Time (s),Gyroscope X (deg/s),Gyroscope Y (deg/s),Gyroscope Z (deg/s),Accelerometer X (g),Accelerometer Y (g),Accelerometer Z (g),Magnetometer X (uT),Magnetometer Y (uT),Magnetometer Z (uT),Barometer (hPa)
0.000000000,0.3201669,-0.7251607,-0.3432401,-0.04850464,-0.03151959,0.9836174,13.49149,-8.871885,-23.56551,1004.628
0.009912014,0.4426338,-0.4831098,0.2683845,-0.05923881,-0.02768894,0.9798344,13.49149,-8.871885,-23.56551,1004.628
0.029736996,-1.088203,0.0009917939,-0.2820776,-0.06070162,-0.0281881,0.9779091,13.49149,-8.871885,-23.56551,1004.627
0.052039623,-0.6595686,0.364068,-0.09859026,-0.06218135,-0.02625499,0.975031,13.49807,-9.23016,-23.11568,1004.627
0.071864605,2.218405,0.9086823,0.207222,-0.05436251,-0.03498756,0.9715646,13.49807,-9.23016,-23.11568,1004.622
0.091689110,1.116202,0.2430426,0.5741968,-0.06020318,-0.02182159,0.9919367,13.49807,-9.23016,-23.11568,1004.622
0.111514568,-1.578071,-0.5436226,0.1460596,-0.060725,-0.01989398,0.9847093,13.86778,-9.234596,-23.56042,1004.624
0.131339073,-0.5371017,1.211246,-0.09859026,-0.0562957,-0.02863363,0.9856055,13.86778,-9.234596,-23.56042,1004.624
0.151163578,1.116202,0.9086823,0.3907094,-0.06164975,-0.03110883,0.9803126,12.75534,-9.254965,-23.99961,1004.621
0.170988560,-0.3534013,1.029708,0.5741968,-0.0606732,-0.02767892,0.9870824,12.75534,-9.254965,-23.99961,1004.621
0.190813065,-0.7820356,0.1825299,0.3295469,-0.06357423,-0.02719303,0.9928929,12.75534,-9.254965,-23.99961,1004.623
0.210638046,0.5651007,0.5456061,0.5130343,-0.05973488,-0.02183196,0.9866246,13.87271,-9.609713,-23.99729,1004.623
0.230462551,1.361136,0.4850934,0.02373465,-0.06116934,-0.02622183,0.9866099,13.87271,-9.609713,-23.99729,1004.621
0.250287533,-0.2921678,-0.7251607,1.185821,-0.05629688,-0.03401206,0.9764071,13.87271,-9.609713,-23.99729,1004.621
0.270112038,0.6875677,-0.3620844,1.246984,-0.05729125,-0.02425517,0.9861162,13.49642,-9.247,-24.00238,1004.619
0.289936543,-1.639304,0.1220172,0.8188466,-0.06412172,-0.02479491,0.9789106,13.49642,-9.247,-24.00238,1004.619
0.309762001,-0.1084674,-1.209262,1.308146,-0.05872793,-0.03060212,0.9822299,13.87271,-9.609713,-23.99729,1004.622
0.332064152,0.993735,-0.1200336,1.552796,-0.05290066,-0.02666714,0.9860798,13.87271,-9.609713,-23.99729,1004.622
0.351889610,-0.965736,1.816373,0.5130343,-0.05826723,-0.02719581,0.9803141,13.87353,-9.601292,-23.55394,1004.62
0.371714115,-1.21067,1.574322,0.1460596,-0.06309403,-0.03550573,0.9774019,13.87353,-9.601292,-23.55394,1004.62
0.391539097,0.1976999,0.3035553,1.185821,-0.06699488,-0.0242891,0.9929266,13.87353,-9.601292,-23.55394,1004.618
0.411364079,1.60607,0.3035553,1.124659,-0.06840426,-0.03257203,0.9938571,13.87353,-9.601292,-23.55394,1004.618
0.431188583,3.565541,0.9086823,0.4518718,-0.05914982,-0.03446956,0.994762,13.87353,-9.601292,-23.55394,1004.616
0.451013088,2.218405,0.4245807,0.6353592,-0.05623196,-0.04178762,0.9826415,13.87353,-9.601292,-23.55394,1004.616
0.470838547,2.402105,1.332271,-0.465565,-0.05635053,-0.03942799,0.9517629,13.13246,-9.609258,-23.55116,1004.619
0.490662575,-0.9045025,1.211246,-1.016027,-0.06358033,-0.03257498,0.9822464,13.13246,-9.609258,-23.55116,1004.619
0.510487080,-2.067938,2.300474,-1.260677,-0.06601956,-0.02917089,0.985656,13.12013,-8.884287,-24.00748,1004.615
0.530312538,1.299902,1.150733,-0.1597527,-0.06598682,-0.03208072,0.9904677,13.12013,-8.884287,-24.00748,1004.615
0.550137043,-0.1084674,0.0615045,-0.465565,-0.06068895,-0.02133484,0.9929072,13.12013,-8.884287,-24.00748,1004.615
0.569962025,0.6875677,0.1220172,-1.199515,-0.06214475,-0.02720657,0.9841968,12.76109,-9.62166,-23.99313,1004.615
0.589786530,1.78977,-0.4225971,-0.9548646,-0.05825575,-0.02718761,0.983693,12.76109,-9.62166,-23.99313,1004.615
0.609611511,0.2589334,1.332271,-1.199515,-0.06699976,-0.02135935,0.9963204,13.49149,-8.871885,-23.56551,1004.615
0.631914139,0.5038673,0.4245807,-1.260677,-0.06696066,-0.03746419,0.9812745,13.49149,-8.871885,-23.56551,1004.615
0.651739121,1.483603,-0.3015717,-0.5267274,-0.07185271,-0.02382149,0.995369,13.49149,-8.871885,-23.56551,1004.615
0.671563625,1.667303,0.1825299,-1.138352,-0.06892492,-0.02526599,0.9958282,13.49724,-9.238579,-23.55903,1004.615
0.691389084,-0.965736,-0.4831098,-1.933464,-0.06504858,-0.03063366,0.982747,13.49724,-9.238579,-23.55903,1004.615
0.711213589,1.116202,-0.6646479,-1.566489,-0.06264801,-0.02624344,0.9808258,12.75124,-8.871431,-23.11938,1004.615
0.731037617,0.0139995,-0.9672114,-0.5878899,-0.05195682,-0.01739414,0.9928797,12.75124,-8.871431,-23.11938,1004.614
0.750863075,0.5038673,-0.7251607,-1.688814,-0.06216856,-0.01206856,1.002134,12.75124,-8.871431,-23.11938,1004.614
0.770687580,0.07523298,-1.693364,-1.07719,-0.05830751,-0.01646941,0.9861618,13.50217,-9.613695,-23.9959,1004.614
0.790512562,0.993735,-1.511826,-0.465565,-0.06558169,-0.0169812,0.9915083,13.50217,-9.613695,-23.9959,1004.614
0.810337067,0.993735,-1.209262,-0.2209152,-0.05685291,-0.01744274,0.9832526,14.24407,-9.597309,-23.55533,1004.614
0.830162049,-0.7820356,-0.846186,-0.5878899,-0.06116782,-0.03355382,0.974988,14.24407,-9.597309,-23.55533,1004.614
0.849986553,-0.3534013,-0.7251607,-0.09859026,-0.06413586,-0.01991629,0.9827971,14.24407,-9.597309,-23.55533,1004.615
0.869811058,0.8100346,-0.5436226,-0.1597527,-0.05634217,-0.02915571,0.9711227,13.50217,-9.613695,-23.9959,1004.615
0.889636517,1.78977,0.5456061,-0.2820776,-0.05977407,-0.01159365,0.9919869,13.50217,-9.613695,-23.9959,1004.614
0.911939621,0.8712681,1.634835,-0.6490523,-0.05919726,-0.02717038,0.9928691,13.50779,-9.910854,-23.54715,1004.614
0.931764126,-0.2309344,1.271759,-0.4044026,-0.0650676,-0.02429192,0.9876065,13.50779,-9.910854,-23.54715,1004.612
0.951588631,1.116202,-0.3620844,0.02373465,-0.06799645,-0.0208927,0.9900534,13.50779,-9.910854,-23.54715,1004.612
0.971413613,0.5038673,-1.632851,0.1460596,-0.06159674,-0.03204869,0.9943053,13.13246,-9.609258,-23.55116,1004.61
0.991238117,0.2589334,-2.419516,0.3907094,-0.05390385,-0.02180527,0.9851448,13.13246,-9.609258,-23.55116,1004.61
1.011063099,1.973471,-1.330288,-0.2820776,-0.05634101,-0.0252439,0.9779003,13.50299,-9.605274,-23.55255,1004.609
1.030887604,0.1364664,0.1825299,-0.5267274,-0.05924694,-0.0232949,0.9846838,13.50299,-9.605274,-23.55255,1004.609
1.050712585,-0.1084674,0.0615045,-0.8937021,-0.05879273,-0.01549339,0.9881001,13.50299,-9.605274,-23.55255,1004.609
1.070537090,-0.1084674,0.1220172,-0.3432401,-0.06072391,-0.02038208,0.984224,13.49724,-9.238579,-23.55903,1004.609
1.090362549,1.60607,-0.3015717,0.08489711,-0.0530026,-0.00962947,0.984237,13.49724,-9.238579,-23.55903,1004.61
1.110187054,-0.1697009,0.9691951,0.1460596,-0.05877753,-0.02232674,0.9813074,13.50779,-9.910854,-23.54715,1004.61
1.130011559,-1.02697,0.2430426,-0.2209152,-0.05730926,-0.02280143,0.9832276,13.50779,-9.910854,-23.54715,1004.61
1.149836540,0.1364664,-0.7856733,-0.03742781,-0.06262454,-0.02867103,0.9837093,13.50779,-9.910854,-23.54715,1004.61
1.169661045,2.402105,0.2430426,-0.2209152,-0.06022777,-0.02183916,0.9846966,14.24489,-9.58889,-23.11197,1004.606
1.191964150,3.01444,0.4245807,-0.5878899,-0.06166755,-0.01645539,0.9992124,14.24489,-9.58889,-23.11197,1004.606
1.211788654,0.993735,-0.5436226,-0.3432401,-0.04663182,-0.01885066,0.9831895,13.87353,-9.601292,-23.55394,1004.606
1.231613636,-0.3534013,0.1220172,-0.465565,-0.05491796,-0.01646234,0.9817991,13.87353,-9.601292,-23.55394,1004.606
1.251438141,-0.7208021,0.4245807,-0.8325397,-0.05830478,-0.01695634,0.9861593,13.87353,-9.601292,-23.55394,1004.608
1.271263599,0.1976999,0.2430426,-1.016027,-0.05726882,-0.0232614,0.9943267,13.12013,-8.884287,-24.00748,1004.608
1.291087627,-0.1084674,-0.846186,-0.3432401,-0.06257043,-0.02863237,0.9996375,13.12013,-8.884287,-24.00748,1004.608
1.310913086,0.07523298,-0.7856733,-0.5267274,-0.05778134,-0.0203494,0.9914483,13.50299,-9.605274,-23.55255,1004.608
1.330737591,0.5038673,-0.6646479,-0.7713773,-0.06371439,-0.007738316,0.9838228,13.50299,-9.605274,-23.55255,1004.609
1.350562573,1.667303,-0.4225971,-0.465565,-0.05686275,-0.01744977,0.9803565,13.50299,-9.605274,-23.55255,1004.609
1.370387077,0.7488011,-1.451313,-0.2820776,-0.05635838,-0.01743437,0.9856634,13.87188,-9.618132,-24.44065,1004.607
1.390211582,1.054968,-0.9066988,-0.5267274,-0.05105021,-0.01205871,0.9822832,13.87188,-9.618132,-24.44065,1004.607
1.410036564,0.5038673,0.0615045,-0.465565,-0.05200209,-0.01107115,0.9900163,12.75699,-9.238126,-23.1129,1004.609
1.429861069,0.6875677,-0.3620844,-0.1597527,-0.05774488,-0.03010078,0.9860887,12.75699,-9.238126,-23.1129,1004.609
1.449686527,0.8100346,-0.241059,-0.4044026,-0.05778843,-0.01937673,0.9909706,12.75699,-9.238126,-23.1129,1004.611
1.471988678,0.5038673,0.1220172,-1.016027,-0.06319316,-0.01308845,0.9852404,13.13246,-9.609258,-23.55116,1004.611
1.491814137,-0.2309344,-0.4831098,-0.465565,-0.05886963,-0.00528204,0.9823608,13.13246,-9.609258,-23.55116,1004.612
1.511638641,0.8712681,-0.9066988,-0.09859026,-0.05835663,-0.01210467,0.9789442,13.50217,-9.613695,-23.9959,1004.612
1.531463623,1.667303,0.0615045,0.207222,-0.0529677,-0.01498212,0.9856575,13.50217,-9.613695,-23.9959,1004.61
1.551288128,-0.5371017,0.364068,-0.2209152,-0.05345195,-0.02182736,0.975006,13.50217,-9.613695,-23.9959,1004.61
1.571113110,-0.5983351,0.3035553,-0.5267274,-0.05636109,-0.01548081,0.9880869,13.50779,-9.910854,-23.54715,1004.61
1.590937615,0.9325016,-0.6041352,-0.1597527,-0.05780109,-0.02476336,0.9783934,13.50779,-9.910854,-23.54715,1004.61
1.610762596,-0.04723396,0.3035553,0.02373465,-0.05245359,-0.02082622,0.9841765,13.87353,-9.601292,-23.55394,1004.614
1.630587101,1.973471,1.513809,0.02373465,-0.05978234,-0.01599941,0.9823107,13.87353,-9.601292,-23.55394,1004.614
1.650411606,-0.9045025,1.09022,-0.1597527,-0.05343006,-0.01985623,0.9846696,13.87353,-9.601292,-23.55394,1004.614
1.670237065,0.2589334,0.8481696,-0.09859026,-0.05248578,-0.01742712,0.9803327,13.8775,-9.915291,-23.99189,1004.614
1.690061569,0.07523298,1.150733,-0.465565,-0.05781132,-0.01499323,0.991476,13.8775,-9.915291,-23.99189,1004.611
1.709886551,0.07523298,0.9086823,-1.07719,-0.0577895,-0.017422,0.9938768,13.87833,-9.906872,-23.54854,1004.611
1.729711056,1.667303,0.6061188,-0.1597527,-0.05780649,-0.02085625,0.9832404,13.87833,-9.906872,-23.54854,1004.613
1.752014160,1.60607,0.5456061,-0.09859026,-0.06315819,-0.01404121,0.9939235,13.87833,-9.906872,-23.54854,1004.613
1.771838665,0.1364664,0.2430426,-0.3432401,-0.05739542,-0.0106412,0.9779811,13.51189,-10.29439,-24.42738,1004.615
1.791663647,0.5038673,-0.4225971,-0.1597527,-0.05635231,-0.01351905,0.993889,13.51189,-10.29439,-24.42738,1004.615
1.811488152,-0.965736,-0.3620844,-0.4044026,-0.05830363,-0.01304454,0.9929367,13.86696,-9.243017,-24.00377,1004.615
1.831313610,-0.2921678,1.211246,-0.2209152,-0.06516296,-0.005782934,0.9901155,13.86696,-9.243017,-24.00377,1004.615
1.851137638,0.8712681,-0.5436226,0.3907094,-0.06221671,-0.01552507,0.9823265,13.86696,-9.243017,-24.00377,1004.613
1.870963097,-0.1084674,-1.511826,0.5130343,-0.06030629,-0.01016235,0.9808955,12.76192,-9.613241,-23.54977,1004.613
1.890787602,-1.639304,0.1825299,-1.199515,-0.05446165,-0.01403692,0.9769822,12.76192,-9.613241,-23.54977,1004.614
1.910612583,-1.149436,1.634835,-1.138352,-0.0569184,-0.01162308,0.9736294,13.50299,-9.605274,-23.55255,1004.614
1.930437088,-0.1697009,1.029708,-0.1597527,-0.06078883,-0.01260652,0.9779896,13.50299,-9.605274,-23.55255,1004.616
1.950261593,-1.149436,0.7271442,0.3295469,-0.05830529,-0.01451234,0.9900331,13.50299,-9.605274,-23.55255,1004.616
1.970086575,-3.353841,-0.5436226,0.02373465,-0.05830086,-0.01059819,0.9977761,13.50299,-9.605274,-23.55255,1004.614
1.989911079,-1.884238,0.0009917939,0.207222,-0.05540755,-0.01500057,0.9832573,13.50299,-9.605274,-23.55255,1004.614
2.009736538,-2.190405,0.364068,-0.1597527,-0.05390221,-0.0218041,0.9856275,13.87353,-9.601292,-23.55394,1004.615
2.032038689,2.402105,0.2430426,0.5130343,-0.05733706,-0.01842145,0.9822849,13.87353,-9.601292,-23.55394,1004.615
2.051864147,1.483603,0.7271442,-0.2820776,-0.06320138,-0.01456094,0.980406,13.87353,-9.601292,-23.55394,1004.617
2.071688652,0.8712681,0.8481696,-0.7102148,-0.05729945,-0.02426103,0.9837028,13.50217,-9.613695,-23.9959,1004.617
2.091513634,1.544836,0.4850934,-0.03742781,-0.06219752,-0.01160038,0.9944136,13.50217,-9.613695,-23.9959,1004.619
2.111338139,0.6263342,-0.4831098,0.6353592,-0.05976858,-0.009634241,0.9968237,13.87271,-9.609713,-23.99729,1004.619
2.131163120,0.9325016,-0.6041352,0.4518718,-0.06075987,-0.0130747,0.9857099,13.87271,-9.609713,-23.99729,1004.615
2.150987625,0.3201669,-1.451313,0.6353592,-0.06172064,-0.02138205,0.9755363,13.87271,-9.609713,-23.99729,1004.615
2.170812607,1.483603,-0.846186,-0.03742781,-0.06121299,-0.02136431,0.9818083,13.13246,-9.609258,-23.55116,1004.617
2.190637112,0.0139995,0.1825299,-1.016027,-0.05927755,-0.02429453,0.9740598,13.13246,-9.609258,-23.55116,1004.617
2.210462570,-0.5371017,1.75586,-0.8937021,-0.06808254,-0.004332575,0.9920697,13.12178,-8.867448,-23.12077,1004.618
2.230287075,-2.006705,0.0615045,0.08489711,-0.05831799,-0.02283224,0.972614,13.12178,-8.867448,-23.12077,1004.618
2.250111580,-0.2309344,-0.1805463,0.2683845,-0.05777483,-0.02327798,0.9885371,13.12178,-8.867448,-23.12077,1004.62
2.269936562,0.5651007,0.3035553,-0.7713773,-0.05683215,-0.01791677,0.9885595,14.23832,-9.230614,-23.56181,1004.62
2.289761067,0.5651007,1.271759,-0.9548646,-0.06270844,-0.01162047,0.9871761,14.23832,-9.230614,-23.56181,1004.62
2.312064171,0.5651007,0.1825299,0.4518718,-0.06125493,-0.01210571,0.9847522,13.48574,-8.50519,-23.57199,1004.62
2.331888676,-0.4758682,0.7271442,0.1460596,-0.05881074,-0.01403965,0.9852115,13.48574,-8.50519,-23.57199,1004.62
2.351713657,-0.8432691,1.513809,-0.7102148,-0.06365386,-0.01649475,0.9871562,13.48574,-8.50519,-23.57199,1004.62
2.371538162,-0.2309344,0.7271442,-0.5267274,-0.06314244,-0.02038529,0.9880988,14.24324,-9.605729,-23.99868,1004.623
2.391363621,0.0139995,-0.4225971,-1.07719,-0.06365973,-0.007210379,1.000719,14.24324,-9.605729,-23.99868,1004.623
2.411187649,-3.047674,-1.269775,-0.7713773,-0.0563442,-0.01937972,0.9866186,14.24969,-9.894468,-23.10657,1004.623
2.431013107,-3.721242,-1.632851,-1.260677,-0.05439669,-0.01887921,0.9880586,14.24969,-9.894468,-23.10657,1004.625
2.450837612,-4.945911,1.513809,-1.199515,-0.05541965,-0.01989793,0.9716479,14.24969,-9.894468,-23.10657,1004.625
2.470662594,-4.945911,2.118936,-1.016027,-0.07096949,-0.01165857,0.9891518,13.49724,-9.238579,-23.55903,1004.625
2.490487099,-3.598775,0.3035553,0.3295469,-0.06603266,-0.02771363,0.9842154,13.49724,-9.238579,-23.55903,1004.625
2.510312081,-0.04723396,-1.572338,1.246984,-0.06612474,-0.0092023,0.9876898,13.13163,-9.617678,-23.99452,1004.622
2.530136585,0.3201669,0.5456061,1.063496,-0.06755701,-0.01310173,0.9891257,13.13163,-9.617678,-23.99452,1004.622
2.549962044,-2.067938,0.4850934,0.3295469,-0.06164046,-0.03159107,0.9822409,13.13163,-9.617678,-23.99452,1004.626
2.569786549,1.116202,1.029708,0.5741968,-0.0656358,-0.01701987,0.9755801,13.86778,-9.234596,-23.56042,1004.626
2.589611054,2.095937,0.4245807,0.9411715,-0.05925624,-0.0242793,0.9803345,13.86778,-9.234596,-23.56042,1004.629
2.611914158,2.402105,0.2430426,1.124659,-0.05979543,-0.01454215,0.9808702,13.86696,-9.243017,-24.00377,1004.629
2.631739140,0.8100346,1.211246,0.6965217,-0.06113341,-0.03499585,0.9827032,13.86696,-9.243017,-24.00377,1004.627
2.651563645,-0.5371017,1.816373,-0.2209152,-0.06367407,-0.01553145,0.9828171,13.86696,-9.243017,-24.00377,1004.627
2.671388149,-0.1697009,1.211246,0.207222,-0.05781794,-0.01939782,0.9822825,13.49642,-9.247,-24.00238,1004.629
2.691213131,-0.2921678,0.9086823,0.3907094,-0.0670587,-0.01553501,0.9886277,13.49642,-9.247,-24.00238,1004.629
2.711037636,-2.496573,0.6666315,-0.1597527,-0.06312283,-0.02477112,0.9866281,13.87353,-9.601292,-23.55394,1004.632
2.730862618,-0.7820356,0.6061188,-0.2209152,-0.06559771,-0.02823671,0.9682821,13.87353,-9.601292,-23.55394,1004.632
2.750687123,0.6875677,0.7876569,0.3295469,-0.07290721,-0.01508532,0.9857661,13.87353,-9.601292,-23.55394,1004.634
2.770512581,-0.4758682,0.9086823,-0.6490523,-0.06505179,-0.02623611,0.9890445,13.50299,-9.605274,-23.55255,1004.634
2.790337086,0.3814003,2.118936,-0.4044026,-0.06506271,-0.02575504,0.9866336,13.50299,-9.605274,-23.55255,1004.636
2.810162068,0.1364664,1.211246,-0.09859026,-0.06944349,-0.0262693,0.9847243,13.50217,-9.613695,-23.9959,1004.636
2.829986572,1.728537,0.7876569,-0.1597527,-0.06609152,-0.01748939,0.9837857,13.50217,-9.613695,-23.9959,1004.633
2.849811554,-0.5983351,0.6061188,-0.5267274,-0.0680679,-0.01165519,0.9843091,13.50217,-9.613695,-23.9959,1004.633
2.869636059,0.07523298,0.6061188,-0.7102148,-0.06656584,-0.01846107,0.985714,13.87353,-9.601292,-23.55394,1004.633
2.891939163,-1.02697,0.364068,-0.2820776,-0.0651167,-0.01846055,0.9828099,13.87353,-9.601292,-23.55394,1004.633
2.911763668,-0.5371017,0.1220172,-0.465565,-0.06213923,-0.02378052,0.9914545,13.49149,-8.871885,-23.56551,1004.635
2.931589127,0.3814003,0.7271442,-0.465565,-0.06799483,-0.02235816,0.9881152,13.49149,-8.871885,-23.56551,1004.635
2.951413632,0.993735,-1.269775,-0.465565,-0.07239859,-0.02288883,0.9794483,13.49149,-8.871885,-23.56551,1004.635
2.971238613,1.483603,-2.116953,-0.3432401,-0.06410965,-0.02136417,0.988099,13.86861,-9.226177,-23.11707,1004.635
2.991063118,-0.8432691,-1.088237,-1.138352,-0.06119387,-0.02183951,0.9866325,13.86861,-9.226177,-23.11707,1004.634
3.010887623,-1.21067,-0.241059,-1.811139,-0.06172387,-0.01845113,0.9794127,13.87436,-9.592873,-23.11058,1004.634
3.030712605,0.8100346,-0.6646479,-0.5267274,-0.06504519,-0.02329816,0.995817,13.87436,-9.592873,-23.11058,1004.638
3.050537109,0.4426338,0.7876569,-0.9548646,-0.06358245,-0.02866552,0.9880587,13.87436,-9.592873,-23.11058,1004.638
3.070362091,-1.823005,0.4245807,-1.444164,-0.0727232,-0.02619787,1.021426,14.23339,-8.855499,-23.12493,1004.64
3.090186596,-1.516837,-0.4831098,-0.465565,-0.07090571,-0.0218793,0.9910296,14.23339,-8.855499,-23.12493,1004.64
3.110012054,0.6875677,-0.7856733,0.2683845,-0.06652924,-0.01941266,0.9948797,14.23339,-8.855499,-23.12493,1004.641
3.129836559,0.8100346,-0.9066988,0.5130343,-0.06661379,-0.008717891,0.987695,14.23749,-9.239034,-24.00516,1004.641
3.149661541,1.177435,-0.5436226,1.185821,-0.06421549,-0.009218011,0.9770603,14.23749,-9.239034,-24.00516,1004.639
3.171964169,0.6875677,-0.05952091,0.5130343,-0.06316923,-0.02089331,0.979408,13.87833,-9.906872,-23.54854,1004.639
3.191789150,-0.1697009,-0.05952091,0.1460596,-0.0636615,-0.01601134,0.9857107,13.87833,-9.906872,-23.54854,1004.641
3.211613655,-2.190405,-0.1805463,-0.03742781,-0.06656164,-0.02921325,0.9692477,13.49889,-9.221741,-22.67232,1004.641
3.231438637,-0.6595686,-0.3015717,0.3907094,-0.05881847,-0.01942277,0.9740824,13.49889,-9.221741,-22.67232,1004.643
3.251263142,-0.1697009,0.0615045,0.4518718,-0.06313983,-0.02820538,0.9759915,13.49889,-9.221741,-22.67232,1004.643
3.271088600,1.422369,0.7271442,-0.2820776,-0.06804344,-0.02043741,0.9770237,13.13246,-9.609258,-23.55116,1004.643
3.290912628,-0.04723396,0.364068,0.7576842,-0.02264945,-0.03475131,1.001318,13.13246,-9.609258,-23.55116,1004.643
3.310738087,-0.2921678,0.0615045,-1.138352,-0.04117076,-0.02314319,1.008719,13.13246,-9.609258,-23.55116,1004.644
3.330562592,-2.067938,1.150733,-0.4044026,-0.05736021,0.004538996,1.013294,13.87353,-9.601292,-23.55394,1004.644
3.350387096,0.1976999,1.211246,-0.5878899,-0.06264444,-0.007174878,1.013263,13.87353,-9.601292,-23.55394,1004.644
3.370212078,0.1976999,0.7876569,-0.03742781,-0.06163753,-0.0188783,1.004027,14.23914,-9.222195,-23.11845,1004.644
3.390036583,0.6263342,0.1825299,0.3907094,-0.06362157,-0.01402732,1.000684,14.23914,-9.222195,-23.11845,1004.642
3.409861565,-0.2921678,-0.3620844,-0.09859026,-0.0617124,-0.01844293,0.9827914,14.23914,-9.222195,-23.11845,1004.642
3.429686070,-0.7208021,-0.4831098,-0.465565,-0.06754447,-0.01504826,0.9895983,13.49067,-8.880304,-24.00887,1004.644
3.451989174,-2.925207,-1.209262,0.5130343,-0.06462006,-0.02382826,0.9769875,13.49067,-8.880304,-24.00887,1004.644
3.471813679,-0.5371017,0.1825299,0.4518718,-0.06465713,-0.01749942,0.9765376,13.49724,-9.238579,-23.55903,1004.644
3.491639137,0.1364664,0.0615045,0.1460596,-0.06268018,-0.02137771,0.9794029,13.49724,-9.238579,-23.55903,1004.644
3.511463642,1.912237,0.4850934,0.6353592,-0.06614126,-0.01801381,0.9683375,13.49724,-9.238579,-23.55903,1004.644
3.531288624,0.8712681,-0.3015717,0.8800091,-0.06513691,-0.01749725,0.9784709,13.86696,-9.243017,-24.00377,1004.644
3.551113129,0.4426338,0.1220172,0.5741968,-0.06270307,-0.01699422,0.9799083,13.86696,-9.243017,-24.00377,1004.646
3.570938110,-0.1084674,0.8481696,0.6353592,-0.06219934,-0.02333461,0.9745634,13.49642,-9.247,-24.00238,1004.646
3.590762615,0.1364664,1.150733,0.5130343,-0.06511238,-0.02187956,0.9784483,13.49642,-9.247,-24.00238,1004.647
3.610587597,0.993735,1.574322,0.5741968,-0.07381342,-0.0301979,0.9803838,13.49642,-9.247,-24.00238,1004.647
3.630412102,2.402105,0.9691951,0.7576842,-0.07236686,-0.02091066,0.992008,13.8775,-9.915291,-23.99189,1004.645
3.650237560,1.177435,-0.1805463,0.5130343,-0.06268383,-0.01013627,0.9968371,13.8775,-9.915291,-23.99189,1004.645
3.670062065,0.3814003,-0.3620844,0.4518718,-0.05734522,-0.01549404,0.9847134,14.23667,-9.247454,-24.44851,1004.647
3.689887047,0.3201669,-0.5436226,0.6353592,-0.0577803,-0.02377076,0.9861214,14.23667,-9.247454,-24.44851,1004.647
3.709711552,0.1364664,0.8481696,0.02373465,-0.06071738,-0.02184402,0.983734,14.23667,-9.247454,-24.44851,1004.647
3.732014656,-0.1697009,1.574322,-0.2209152,-0.06701784,-0.02430551,0.9861692,13.49807,-9.23016,-23.11568,1004.647
3.751839161,-0.2921678,0.0615045,-0.03742781,-0.06701126,-0.02283419,0.9905208,13.49807,-9.23016,-23.11568,1004.647
3.771664143,0.07523298,-0.846186,0.5741968,-0.06509264,-0.01746561,0.9915032,14.24886,-9.902888,-23.54993,1004.647
3.791488648,0.2589334,-1.027724,0.3295469,-0.06170748,-0.01843941,0.9842394,14.24886,-9.902888,-23.54993,1004.648
3.811313153,0.7488011,-0.1805463,0.6965217,-0.06221895,-0.01894878,0.976034,14.24886,-9.902888,-23.54993,1004.648
3.831138611,1.299902,0.7271442,0.7576842,-0.05928453,-0.01598869,0.9856868,13.49724,-9.238579,-23.55903,1004.646
3.850962639,-0.7820356,2.4215,-0.4044026,-0.06169491,-0.01891931,0.987133,13.49724,-9.238579,-23.55903,1004.646
3.870788098,-0.5983351,1.271759,-0.4044026,-0.06168614,-0.01695755,0.9929352,13.86778,-9.234596,-23.56042,1004.649
3.890612602,-0.5371017,-0.3620844,-0.2820776,-0.06263644,-0.02036871,0.9938882,13.86778,-9.234596,-23.56042,1004.649
3.910437584,1.60607,0.364068,0.5130343,-0.06560517,-0.01602024,0.986204,13.86778,-9.234596,-23.56042,1004.651
3.930262089,0.6875677,0.4245807,0.207222,-0.06218068,-0.01843256,0.9881036,13.86778,-9.234596,-23.56042,1004.651
3.950087071,1.361136,0.1825299,0.207222,-0.06321768,-0.008706132,0.985263,13.86778,-9.234596,-23.56042,1004.651
3.969911576,0.4426338,0.6061188,-0.09859026,-0.05878026,-0.02183982,0.98131,13.50299,-9.605274,-23.55255,1004.651
3.989737034,-1.639304,2.058424,-0.9548646,-0.06849161,-0.02579024,0.979412,13.50299,-9.605274,-23.55255,1004.651
4.009561539,-0.4758682,0.3035553,-0.09859026,-0.07537973,-0.007794033,0.985817,13.50299,-9.605274,-23.55255,1004.653
4.031864643,2.279638,-0.7251607,0.4518718,-0.06512538,-0.01455578,0.9866915,13.49642,-9.247,-24.00238,1004.651
4.051689148,-0.6595686,0.6061188,-0.3432401,-0.0602462,-0.01207489,0.9953658,13.49642,-9.247,-24.00238,1004.651
4.071514130,0.07523298,-1.14875,0.207222,-0.06018313,-0.03305132,0.9793293,13.86121,-8.876322,-24.01025,1004.652
4.091338635,2.340871,-1.269775,0.2683845,-0.06119066,-0.02623706,0.9803351,13.86121,-8.876322,-24.01025,1004.652
4.111163616,-0.6595686,0.1220172,-0.4044026,-0.05630383,-0.02423959,0.990455,13.86121,-8.876322,-24.01025,1004.652
4.130988121,0.3814003,-0.5436226,-0.2820776,-0.05042765,-0.03786905,0.9797339,13.86778,-9.234596,-23.56042,1004.654
4.150813580,1.361136,-0.9066988,0.5741968,-0.04706743,-0.02615001,0.9860505,13.86778,-9.234596,-23.56042,1004.654
4.170637608,0.6263342,0.364068,0.207222,-0.06167309,-0.02134807,0.9895338,13.50217,-9.613695,-23.9959,1004.656
4.190462112,0.0139995,0.1825299,1.063496,-0.05676741,-0.0374254,0.9754268,13.50217,-9.613695,-23.9959,1004.656
4.210287571,1.728537,-0.6646479,2.347908,-0.06412011,-0.02626037,0.9769723,13.50217,-9.613695,-23.9959,1004.658
4.230112076,-0.7208021,-0.4225971,1.736283,-0.05380353,-0.03737748,0.9889257,13.86121,-8.876322,-24.01025,1004.658
4.249937058,-0.6595686,0.6666315,0.7576842,-0.06068742,-0.02866682,0.9812853,13.86121,-8.876322,-24.01025,1004.658
4.269761562,-0.5371017,-1.14875,1.124659,-0.05438184,-0.01300214,1.002086,14.25461,-10.26958,-23.54345,1004.658
4.289586544,-1.455604,-2.419516,1.491634,-0.04607373,-0.04372934,0.9632688,14.25461,-10.26958,-23.54345,1004.658
4.311889172,0.0139995,0.4850934,1.858608,-0.04322975,-0.02225675,0.9768785,14.25461,-10.26958,-23.54345,1004.658
4.331714153,0.6263342,1.574322,1.919771,-0.04219922,-0.02612133,0.9874719,14.24489,-9.58889,-23.11197,1004.658
4.351538658,-1.149436,0.5456061,1.430471,-0.03687893,-0.01438168,0.998122,14.24489,-9.58889,-23.11197,1004.658
4.371364117,-1.578071,-0.9066988,1.308146,-0.04067631,-0.02753471,1.003867,13.87271,-9.609713,-23.99729,1004.655
4.391188622,-3.476308,1.937398,-0.2820776,-0.02371746,-0.01624736,1.003833,13.87271,-9.609713,-23.99729,1004.655
4.411013603,-2.496573,-1.330288,2.347908,-0.0377962,-0.03781299,0.9758035,13.87271,-9.609713,-23.99729,1004.657
4.430838108,-1.39437,-1.511826,4.305107,-0.05054617,-0.03257616,0.953697,13.50382,-9.596855,-23.1092,1004.657
4.450663090,-1.823005,-3.932334,5.100219,-0.0374487,0.03199902,1.05001,13.50382,-9.596855,-23.1092,1004.659
4.470487595,-9.538422,-2.419516,2.65372,-0.05595711,-0.004293089,0.9823499,13.13246,-9.609258,-23.55116,1004.659
4.490312576,-5.680713,-2.540542,5.161381,-0.04873066,0.01916157,1.000773,13.13246,-9.609258,-23.55116,1004.659
4.510137081,1.851004,-5.203101,11.95041,-0.03126721,0.01042074,0.9731195,13.13246,-9.609258,-23.55116,1004.659
4.529961586,1.054968,-2.782593,12.37855,-0.0395477,-0.009675005,0.936378,13.49559,-9.255419,-24.44574,1004.661
4.549787045,1.78977,-2.419516,11.76693,-0.02926064,-0.02227984,0.9372224,13.49559,-9.255419,-24.44574,1004.661
4.569611550,1.728537,1.876886,9.381591,0.004402543,-0.02936317,0.9563088,12.39138,-9.617224,-23.54839,1004.658
4.591914654,-0.8432691,1.513809,7.913692,-0.006273264,-0.03331278,0.9568296,12.39138,-9.617224,-23.54839,1004.658
4.611739636,-0.1697009,3.99483,5.711843,0.001905653,-0.007423144,0.9733289,12.39138,-9.617224,-23.54839,1004.658
4.631564140,-0.6595686,5.628673,6.568118,-0.01758821,0.01151311,0.99284,13.12753,-9.234142,-23.11429,1004.658
4.651388645,-2.680273,7.56508,6.996255,-0.03603116,0.002644623,0.9895167,13.12753,-9.234142,-23.11429,1004.66
4.671213627,-3.353841,7.444054,8.647641,-0.0490809,-0.0154536,0.9837031,13.13328,-9.600838,-23.10781,1004.66
4.691038132,1.483603,3.510728,10.97181,-0.06117267,-0.02915744,0.9808027,13.13328,-9.600838,-23.10781,1004.66
4.710863590,5.953646,-0.241059,9.687403,-0.05143199,-0.03691899,0.9720213,13.13328,-9.600838,-23.10781,1004.66
4.730687618,5.769945,2.4215,7.730205,-0.03638804,-0.03784176,0.9608327,13.50944,-9.894014,-22.66044,1004.662
4.750513077,6.19858,5.447135,4.916731,-0.0344306,-0.0314677,0.9748524,13.50944,-9.894014,-22.66044,1004.662
4.770337582,2.402105,7.988668,2.531395,-0.0203023,-0.0211107,0.998962,13.13246,-9.609258,-23.55116,1004.662
4.790162564,2.830739,7.686105,1.675121,-0.03543525,-0.01487394,0.9928022,13.13246,-9.609258,-23.55116,1004.662
4.809987068,0.0139995,7.080978,0.08489711,-0.04080531,0.006105264,1.021417,13.13246,-9.609258,-23.55116,1004.664
4.829812050,-2.863973,7.867643,-2.545089,-0.03452456,0.007086053,1.010769,13.50861,-9.902434,-23.1038,1004.664
4.849636555,-0.4146348,9.259436,-0.03742781,-0.04236875,0.002112089,0.9842391,13.50861,-9.902434,-23.1038,1004.664
4.871939659,0.0139995,5.870724,2.776045,-0.04711316,-0.01444976,0.9919029,13.50944,-9.894014,-22.66044,1004.664
4.891764164,4.177875,1.150733,4.060457,-0.03294097,-0.02899388,0.9878892,13.50944,-9.894014,-22.66044,1004.661
4.911589623,5.831179,0.9691951,4.121619,-0.0003768359,-0.01026236,1.012424,13.50944,-9.894014,-22.66044,1004.661
4.931414128,1.177435,4.176368,-0.09859026,-0.0009711278,0.005790741,1.0072,13.50861,-9.902434,-23.1038,1004.661
4.951239109,-0.5371017,5.447135,-2.300439,0.002969067,-0.005397761,1.00326,13.50861,-9.902434,-23.1038,1004.661
4.971063614,0.6263342,3.510728,0.207222,-0.001404155,-0.01079533,0.9955329,12.77329,-10.2771,-23.09454,1004.665
4.990888119,1.361136,1.695347,2.776045,-0.0247739,0.008131332,1.019409,12.77329,-10.2771,-23.09454,1004.665
5.010713100,-2.680273,-0.3015717,1.308146,-0.03988358,0.0002074419,0.9967654,12.77329,-10.2771,-23.09454,1004.665
5.030537605,-1.884238,-2.177466,0.1460596,-0.04087496,-0.009099544,0.9759678,13.13493,-9.583999,-22.2211,1004.665
5.050362587,2.218405,-2.782593,2.347908,-0.03215377,-0.006144411,0.9711085,13.13493,-9.583999,-22.2211,1004.666
5.070187092,3.749241,-4.96105,2.776045,-0.02963278,-0.02415624,0.9676234,12.76836,-9.901981,-22.65767,1004.666
5.090012550,3.932941,-6.473867,-0.5878899,-0.01224917,-0.0006885647,0.9695796,12.76836,-9.901981,-22.65767,1004.668
5.109837055,0.9325016,-4.840024,-3.768338,0.008568683,0.01450729,0.9666476,12.76836,-9.901981,-22.65767,1004.668
5.129662037,0.7488011,-1.632851,-4.012987,-0.0001285512,0.005213936,0.9680955,13.50944,-9.894014,-22.66044,1004.67
5.151964664,-2.006705,1.75586,-5.236237,-0.02272742,0.01212468,1.055619,13.50944,-9.894014,-22.66044,1004.67
5.171789646,2.463338,-3.38772,-4.563449,-0.06760031,0.01375528,1.020638,13.13411,-9.592419,-22.66446,1004.67
5.191614151,-0.04723396,-2.661567,-2.116951,-0.07885625,0.0224468,1.014469,13.13411,-9.592419,-22.66446,1004.67
5.211439133,2.647039,-5.505664,0.3295469,-0.05004373,0.01925831,1.043739,13.13411,-9.592419,-22.66446,1004.67
5.231263638,0.6263342,-6.171304,4.488594,-0.04179204,0.01537875,1.032572,13.51026,-9.885595,-22.21709,1004.67
5.251089096,-1.088203,-4.779512,5.89533,-0.01341968,-0.006356411,1.044855,13.51026,-9.885595,-22.21709,1004.67
5.270913601,-5.374546,1.392784,4.305107,-0.04224218,0.02273517,1.055298,13.12178,-8.867448,-23.12077,1004.67
5.290738583,-14.86573,1.271759,0.1460596,-0.04845024,-0.0124147,1.031018,13.12178,-8.867448,-23.12077,1004.672
5.310563088,-10.70186,-3.024643,1.124659,-0.02529598,-0.006074021,0.9855517,13.12178,-8.867448,-23.12077,1004.672
5.330388069,-3.966176,-7.321045,6.751605,-0.003478264,0.001324358,0.9777474,12.39865,-9.897544,-22.21292,1004.669
5.350212574,-4.02741,-7.502584,6.996255,0.00176455,0.02131946,0.9792694,12.39865,-9.897544,-22.21292,1004.669
5.370037079,-6.170581,-0.4225971,5.89533,-0.002623406,0.01737798,0.9696197,12.38881,-9.218052,-21.84479,1004.669
5.389862061,-7.946352,2.482013,6.751605,-0.02517337,-0.02945226,0.9830176,12.38881,-9.218052,-21.84479,1004.669
5.409686565,-3.966176,0.4245807,6.751605,-0.05821285,-0.04426746,0.9681593,12.38881,-9.218052,-21.84479,1004.673
5.431989670,0.8712681,-3.508745,6.812768,-0.0767732,-0.04686452,0.9407349,12.75865,-9.221287,-22.22619,1004.673
5.451814175,2.585805,-5.868741,6.262305,-0.06165999,-0.05751524,0.9338399,12.75865,-9.221287,-22.22619,1004.671
5.471639633,7.055848,-4.779512,4.427432,-0.04175756,-0.05254984,0.9308604,12.39456,-9.584747,-21.83831,1004.671
5.491464138,8.158051,-0.3620844,1.124659,-0.03394729,-0.05004448,0.9433802,12.39456,-9.584747,-21.83831,1004.673
5.511289120,10.05629,2.966114,0.5130343,-0.04168205,-0.0466294,0.9627472,12.39456,-9.584747,-21.83831,1004.673
5.531113625,10.36246,6.778414,0.2683845,-0.07187291,-0.02285819,0.9910299,11.64703,-9.233234,-22.22203,1004.675
5.550938606,7.606949,6.596876,0.7576842,-0.05422324,-0.04075449,1.002908,11.64703,-9.233234,-22.22203,1004.675
5.570763111,8.341751,7.323029,1.919771,-0.06293897,-0.04468347,1.007763,12.01253,-8.85534,-21.84988,1004.675
5.590588570,2.708272,8.896359,-1.749977,-0.07897412,-0.04133462,1.017521,12.01253,-8.85534,-21.84988,1004.675
5.610412598,2.585805,4.297394,-4.502287,-0.05755519,-0.06223077,0.9888186,12.01253,-8.85534,-21.84988,1004.669
5.630238056,5.647479,-0.7251607,-3.462525,-0.0280534,-0.04948399,0.96121,12.38881,-9.218052,-21.84479,1004.669
5.650062561,4.239109,-2.782593,-3.646013,0.004450349,-0.04790615,0.9398022,12.38881,-9.218052,-21.84479,1004.67
5.669887543,3.688008,3.268678,-6.642973,0.01454343,-0.02202872,0.9471201,12.38881,-9.218052,-21.84479,1004.67
5.689712048,0.5651007,2.4215,-8.416684,0.004380074,-0.03329021,0.9432565,12.38964,-9.209633,-21.40143,1004.67
5.712015152,-0.4146348,0.0615045,-6.765298,0.02366102,-0.003002558,0.9423411,12.38964,-9.209633,-21.40143,1004.67
5.731839657,0.3814003,1.211246,-4.196475,0.02176327,-0.001512012,0.9587703,12.02403,-9.58873,-21.83692,1004.67
5.751664639,0.8100346,3.692266,-2.239276,-0.002099366,0.01740745,0.9807186,12.02403,-9.58873,-21.83692,1004.67
5.771489144,-3.231374,2.542525,0.6965217,-0.02836256,0.03193669,1.004588,12.7536,-8.847374,-21.85266,1004.674
5.791314602,-7.885118,-0.1200336,3.571157,-0.0559721,0.01573995,1.010931,12.7536,-8.847374,-21.85266,1004.674
5.811139107,-2.80274,-2.903618,7.240905,-0.07722076,-0.0140849,1.006067,12.7536,-8.847374,-21.85266,1004.674
5.830963612,-2.80274,-5.566177,7.057417,-0.1019616,-0.001458313,1.045364,12.74868,-8.47226,-21.41578,1004.674
5.850788593,-5.80318,-8.168223,3.693482,-0.08581629,-0.02037234,1.042283,12.74868,-8.47226,-21.41578,1004.674
5.870613098,-3.660008,-8.712837,4.182782,-0.04146875,-0.03621064,1.042441,12.74868,-8.47226,-21.41578,1004.674
5.890438080,-0.5983351,-2.177466,5.100219,-0.07322275,0.002633622,1.065018,11.64364,-8.842484,-20.96178,1004.674
5.910262585,-5.252079,-2.116953,3.571157,-0.1052846,-0.0107064,1.054023,11.64364,-8.842484,-20.96178,1004.674
5.930087567,-2.435339,-10.64924,3.081857,-0.0857821,-0.03648069,1.025789,12.00267,-8.10511,-20.97613,1004.674
5.949912071,3.504307,-12.16206,4.243944,-0.06768253,0.03374028,1.029429,12.00267,-8.10511,-20.97613,1004.676
5.969737530,-1.149436,-8.5313,5.467194,-0.06818903,0.0361677,1.027514,12.00267,-8.10511,-20.97613,1004.676
5.989562035,-7.334017,-9.983604,3.571157,-0.07601077,0.03512077,1.014036,11.26652,-8.488192,-21.41023,1004.677
6.011865139,-6.905383,-9.499503,3.38767,-0.05715566,0.01900629,0.9544809,11.26652,-8.488192,-21.41023,1004.677
6.031689644,-4.456044,-4.537461,5.956493,-0.05131992,0.005836801,0.9326608,11.64281,-8.850904,-21.40514,1004.676
6.051514626,1.851004,1.634835,8.280666,-0.02301176,0.002632897,0.9566232,11.64281,-8.850904,-21.40514,1004.676
6.071339130,0.8712681,6.052262,5.589519,-0.03883801,-0.02075692,0.9836197,11.64281,-8.850904,-21.40514,1004.672
6.091164112,-2.496573,8.714821,0.8800091,-0.04806309,-0.02910472,0.9744564,10.88531,-7.750363,-20.97845,1004.672
6.110988617,0.1364664,11.67994,-1.321839,-0.05293121,-0.02326687,0.9827185,10.88531,-7.750363,-20.97845,1004.673
6.130813122,-2.190405,9.743537,-4.196475,-0.06850789,-0.01846879,0.9866899,11.26735,-8.479772,-20.96688,1004.673
6.150638580,-2.312872,5.810211,-5.358562,-0.04430386,-0.00913474,0.9687462,11.26735,-8.479772,-20.96688,1004.673
6.170462608,5.280077,1.997911,-1.505327,-0.03950056,-0.001330496,0.9639332,11.26735,-8.479772,-20.96688,1004.673
6.190288067,4.667743,-1.995928,0.4518718,-0.03572447,0.01327394,0.9543341,11.25585,-7.746381,-20.97984,1004.673
6.210112572,5.831179,-5.62669,1.063496,-0.009002633,0.01046035,0.9416237,11.25585,-7.746381,-20.97984,1004.673
6.229937553,4.422809,-3.629771,-0.1597527,0.00993955,0.006141038,0.9270175,11.25667,-7.737961,-20.53648,1004.673
6.249762058,3.932941,0.4850934,-1.688814,0.01431171,0.01349334,0.9376502,11.25667,-7.737961,-20.53648,1004.673
6.269587040,0.1976999,3.510728,-4.624612,0.005974549,0.03882218,0.9590638,11.25667,-7.737961,-20.53648,1004.673
6.291889668,-3.598775,4.297394,-4.563449,-0.02309624,0.01772756,0.9567012,10.89106,-8.117059,-20.97197,1004.673
6.311714649,-1.21067,1.392784,-2.422764,-0.0488747,0.03519141,0.9849274,10.89106,-8.117059,-20.97197,1004.673
6.331539154,0.3201669,-2.177466,-1.872301,-0.04477084,0.005053862,0.9977825,10.88696,-7.733524,-20.09174,1004.673
6.351364613,-0.7820356,-6.836944,-4.07415,-0.03900188,0.01970235,1.00217,10.88696,-7.733524,-20.09174,1004.669
6.371189118,0.3814003,-8.168223,-6.031348,-0.006884764,0.0008162995,0.9763154,10.88696,-7.733524,-20.09174,1004.669
6.391014099,4.851443,-6.715919,-6.82646,-0.007855647,0.009612232,0.991329,11.62228,-7.358863,-20.101,1004.671
6.410838604,4.300342,-3.024643,-8.783659,-0.02689958,0.04270228,1.02346,11.62228,-7.358863,-20.101,1004.671
6.430663586,2.585805,-0.6646479,-10.37388,-0.06680302,0.05274475,1.033383,10.89354,-8.0918,-19.6419,1004.673
6.450488091,2.340871,-4.597974,-10.1904,-0.08516747,0.03073281,1.03144,10.89354,-8.0918,-19.6419,1004.673
6.470312595,6.014879,-13.13027,-7.009948,-0.06188087,0.04254567,1.033787,10.89354,-8.0918,-19.6419,1004.671
6.490137577,9.137786,-14.94565,-5.236237,-0.01418188,0.03646465,1.03446,10.88121,-7.366829,-20.09822,1004.671
6.509962082,7.668183,-11.19386,-4.746937,0.004810802,0.04635872,1.058058,10.88121,-7.366829,-20.09822,1004.673
6.529787541,-0.5983351,-7.684122,-6.153673,0.005511857,0.007404929,1.056889,11.25175,-7.362846,-20.09961,1004.673
6.549612045,-1.455604,-4.840024,-8.722497,-0.02111915,-0.01807115,1.049663,11.25175,-7.362846,-20.09961,1004.674
6.571915150,0.3814003,-4.779512,-7.499248,-0.04444243,-0.03333233,1.030888,11.25175,-7.362846,-20.09961,1004.674
6.591739655,3.932941,-6.897457,-6.337161,-0.0535944,-0.04944982,1.030373,10.87628,-6.991714,-19.66134,1004.674
6.611564636,6.56598,0.4245807,-8.661334,-0.06791202,-0.03892062,0.9851335,10.87628,-6.991714,-19.66134,1004.674
6.631389141,4.851443,7.323029,-11.23016,-0.0839787,-0.02435024,1.004121,10.51642,-7.737507,-20.09035,1004.674
6.651214123,4.851443,6.596876,-14.04363,-0.1166838,-0.008472629,0.9952105,10.51642,-7.737507,-20.09035,1004.674
6.671038628,4.60651,2.300474,-13.24852,-0.07684544,-0.0180727,0.9669478,10.51642,-7.737507,-20.09035,1004.672
6.690864086,10.48492,0.6061188,-9.701096,-0.05954316,0.01169218,0.9554217,11.62886,-7.717139,-19.65116,1004.672
6.710688591,6.259813,0.6061188,-8.967146,-0.05080662,0.01808039,0.9607161,11.62886,-7.717139,-19.65116,1004.674
6.730513573,1.483603,-0.241059,-10.86318,-0.04510899,0.01458963,0.9143299,10.88286,-7.34999,-19.21151,1004.674
6.750338078,5.892412,-3.266694,-7.988547,-0.008265059,0.005408656,0.8643652,10.88286,-7.34999,-19.21151,1004.674
6.770163059,11.15849,-5.445152,-1.07719,0.02033355,0.02308878,0.8652648,10.88286,-7.34999,-19.21151,1004.674
6.789987564,7.300782,-3.327207,-0.1597527,0.02420645,0.04216225,0.8914062,11.62969,-7.708719,-19.20781,1004.674
6.809812069,-2.863973,2.4215,-3.462525,0.009801893,0.0104425,0.8937356,11.62969,-7.708719,-19.20781,1004.674
6.829637051,-1.271903,3.692266,-3.034388,-0.01926016,-0.01162363,0.8923333,11.62464,-7.334807,-18.83427,1004.676
6.851940155,-0.1697009,-0.3015717,-0.5267274,-0.01382195,-0.008599399,0.9232104,11.62464,-7.334807,-18.83427,1004.676
6.871764660,0.9325016,-1.027724,-2.055789,-0.002063151,-0.008476889,0.9487287,11.62464,-7.334807,-18.83427,1004.672
6.891590119,-2.312872,0.9086823,-4.135312,0.005632511,0.004212872,0.9444076,11.63544,-8.075415,-19.20133,1004.672
6.911414623,-0.3534013,3.934317,-2.606251,0.0128987,0.01791849,0.9584359,11.63544,-8.075415,-19.20133,1004.672
6.931239128,-0.7820356,5.084059,0.5130343,-0.008589356,0.05734238,0.9973702,12.37076,-7.700753,-19.21058,1004.672
6.951064110,-3.660008,3.99483,3.693482,-0.02392551,0.0300468,1.019035,12.37076,-7.700753,-19.21058,1004.672
6.970888615,-3.598775,4.176368,4.916731,-0.0535139,0.03630414,1.052533,12.37076,-7.700753,-19.21058,1004.672
6.990713596,-4.945911,3.208165,4.549757,-0.07882243,0.05375879,1.07593,11.62886,-7.717139,-19.65116,1004.674
7.010538101,-4.333577,-2.661567,7.240905,-0.09152982,0.05462619,1.059111,11.62886,-7.717139,-19.65116,1004.674
7.030363560,-3.170141,-14.34052,13.66296,-0.06294456,0.05763061,1.031939,12.3764,-8.068651,-19.26744,1004.674
7.050187588,3.504307,-20.63384,20.63548,0.03243621,0.02883463,1.000861,12.3764,-8.068651,-19.26744,1004.674
7.070013046,0.5038673,-15.97436,23.02082,0.04699051,0.06115027,1.043423,12.3764,-8.068651,-19.26744,1004.674
7.089837551,-13.57983,-7.744634,15.0697,0.003901282,0.02977716,1.04929,12.37569,-8.075869,-19.64746,1004.674
7.109662533,-16.76397,-5.142588,10.54368,0.01006113,-0.05306941,1.007803,12.37569,-8.075869,-19.64746,1004.674
7.131965160,-6.599215,-5.687202,11.52228,-0.01583483,-0.03520066,1.002244,12.00515,-8.079851,-19.64607,1004.674
7.151790142,-7.701417,-0.6041352,6.568118,-0.01205479,-0.01277145,1.006683,12.00515,-8.079851,-19.64607,1004.669
7.171614647,-9.415955,9.683024,2.40907,-0.02541679,0.02757181,1.005515,12.00515,-8.079851,-19.64607,1004.669
7.191439629,-9.171021,17.36814,1.980933,-0.08482176,0.05556731,1.031083,11.62969,-7.708719,-19.20781,1004.669
7.211264134,-12.23269,18.09429,-0.6490523,-0.1324291,0.05438079,1.045336,11.62969,-7.708719,-19.20781,1004.669
7.231088638,-6.293048,13.3743,1.736283,-0.1245635,0.02759334,1.025848,12.37076,-7.700753,-19.21058,1004.669
7.250914097,1.851004,5.447135,8.402991,-0.09193246,0.02437342,1.033858,12.37076,-7.700753,-19.21058,1004.669
7.270738602,0.5651007,4.115856,9.014616,-0.07354522,0.03613533,1.025612,12.37076,-7.700753,-19.21058,1004.671
7.290563583,-2.80274,4.66047,7.424392,-0.06130163,0.007415799,1.003194,12.75198,-8.438581,-19.64237,1004.671
7.310388088,-3.047674,0.9691951,7.974854,-0.05352993,-0.01112791,0.969752,12.75198,-8.438581,-19.64237,1004.671
7.330213070,3.075673,-4.174385,9.014616,-0.03748963,-0.03451683,0.9285163,13.11759,-8.059483,-19.20688,1004.671
7.350037575,5.157611,-5.989766,8.280666,-0.02156512,-0.01838988,0.9183757,13.11759,-8.059483,-19.20688,1004.671
7.369862557,3.504307,-4.597974,3.509995,-0.004582386,-0.01784064,0.9076667,13.11759,-8.059483,-19.20688,1004.671
7.389687061,-0.6595686,-1.027724,-1.749977,0.01437573,-0.01677098,0.906603,14.2292,-8.047534,-19.21105,1004.671
7.411990166,1.728537,-1.209262,-2.239276,0.01381077,-0.01242984,0.8907,14.2292,-8.047534,-19.21105,1004.671
7.431814671,4.851443,-0.1200336,-1.138352,-0.003743764,0.00846769,0.9116586,13.12323,-8.427382,-19.26374,1004.667
7.451640129,0.993735,-1.3908,-3.034388,-0.02171204,0.02257037,0.9427208,13.12323,-8.427382,-19.26374,1004.667
7.471464634,2.279638,-6.110791,-3.951825,-0.01247569,0.01772668,0.9334745,13.12323,-8.427382,-19.26374,1004.673
7.491289616,1.116202,-7.018482,-3.523688,0.007407236,0.03441108,0.9440703,13.11759,-8.059483,-19.20688,1004.673
7.511114121,1.60607,-5.808228,-4.991587,0.00214001,0.02613146,0.9546754,13.11759,-8.059483,-19.20688,1004.67
7.530939102,0.1364664,-4.29541,-5.725536,-0.00606515,0.034933,0.9875877,13.8528,-7.686025,-19.27947,1004.67
7.550763607,0.4426338,-3.206182,-5.664374,-0.007797685,0.01160914,1.011611,13.8528,-7.686025,-19.27947,1004.67
7.570588112,-0.2921678,-3.508745,-6.275998,-0.03941695,0.03343918,1.045684,13.8528,-7.686025,-19.27947,1004.67
7.590413571,-0.2309344,-6.594893,-5.970186,-0.04855359,0.01928812,1.052902,13.86359,-8.426632,-19.64653,1004.67
7.610237599,-0.8432691,-11.55693,-4.502287,-0.003656813,0.006919398,1.077209,13.86359,-8.426632,-19.64653,1004.672
7.630063057,3.749241,-3.085156,-4.930424,-0.01878395,0.03564843,1.109779,13.85126,-7.701661,-20.10284,1004.672
7.649887562,-3.353841,7.020465,-8.783659,-0.08239335,0.05396715,1.170073,13.85126,-7.701661,-20.10284,1004.674
7.669712544,-6.109347,2.300474,-10.25156,-0.1104945,0.01429826,1.136236,13.85126,-7.701661,-20.10284,1004.674
7.689537049,3.504307,-8.107711,-3.523688,-0.08001319,0.01141107,1.08489,14.59234,-7.693696,-20.10562,1004.676
7.711840153,7.97435,-13.91693,3.693482,-0.005192513,-0.00585365,1.033711,14.59234,-7.693696,-20.10562,1004.676
7.731664658,9.627654,-5.868741,4.305107,0.01224008,0.004449482,1.028359,14.21688,-7.322563,-19.66736,1004.676
7.751489639,-0.9045025,7.928156,-2.973226,-0.03210369,0.0163795,1.02287,14.21688,-7.322563,-19.66736,1004.676
7.771314144,-1.39437,9.743537,-3.523688,-0.04944906,-0.0427485,0.9734286,14.21688,-7.322563,-19.66736,1004.676
7.791139603,4.728976,4.599957,-1.199515,-0.05307206,-0.01310122,0.9581549,13.48073,-7.705644,-20.10146,1004.676
7.810964108,7.055848,0.9691951,0.3295469,-0.02147889,-0.0261502,0.930885,13.48073,-7.705644,-20.10146,1004.674
7.830789089,9.627654,0.7271442,0.9411715,-0.01678958,-0.003272393,0.9174619,14.2218,-7.697679,-20.10423,1004.674
7.850613594,3.259373,2.239962,-2.178114,-0.01972141,-0.0155192,0.8932811,14.2218,-7.697679,-20.10423,1004.676
7.870438099,5.096377,-0.9672114,-3.951825,0.001125101,-0.01985774,0.8665975,14.2218,-7.697679,-20.10423,1004.676
7.890263081,5.831179,-2.540542,-3.095551,0.01512769,-0.01056834,0.8520882,14.23905,-8.797764,-20.08479,1004.674
7.910087586,5.341311,3.147652,-3.401363,0.02196431,-0.001713386,0.8747821,14.23905,-8.797764,-20.08479,1004.674
7.929912567,1.60607,8.170207,-3.8295,-0.02662801,0.009308012,0.9055135,14.96945,-8.047988,-19.65718,1004.674
7.949737072,-0.2309344,8.351745,-5.542049,-0.05081259,-0.0146783,0.90504,14.96945,-8.047988,-19.65718,1004.674
7.969562531,4.728976,5.326109,-3.890663,-0.03853709,-0.0296866,0.9145492,14.96945,-8.047988,-19.65718,1004.674
7.991864681,6.014879,1.211246,-3.401363,-0.01321178,-0.02219679,0.9371349,14.61617,-9.152056,-19.63635,1004.674
8.011690140,0.8100346,2.4215,-6.58181,0.007163968,-0.009905076,0.9423959,14.61617,-9.152056,-19.63635,1004.67
8.031514645,1.177435,2.239962,-7.56041,0.02477591,-0.02929496,0.940752,14.98249,-8.765742,-18.82084,1004.67
8.051339626,3.749241,-1.14875,-5.970186,0.02718751,-0.01805265,0.9533461,14.98249,-8.765742,-18.82084,1004.67
8.071164131,3.38184,0.6061188,-5.909023,0.0184021,-0.00394316,0.9674643,14.98249,-8.765742,-18.82084,1004.67
8.090989113,2.034704,6.536364,-6.642973,0.003387179,0.0009113383,0.9936361,15.65452,-8.407381,-19.65324,1004.67
8.110813618,0.1976999,5.084059,-7.499248,-0.04374553,0.01682945,1.03259,15.65452,-8.407381,-19.65324,1004.67
8.130639076,-1.884238,-1.330288,-5.909023,-0.0364347,0.01932292,1.041251,14.96453,-7.672873,-19.2203,1004.672
8.150463581,0.3814003,-3.992847,-2.300439,-0.01253438,-0.00103622,1.027983,14.96453,-7.672873,-19.2203,1004.672
8.170287609,2.095937,-4.840024,0.7576842,-0.004742673,0.002433614,1.036647,14.96453,-7.672873,-19.2203,1004.673
8.190113068,0.6875677,-0.05952091,0.02373465,-0.0163021,0.03080817,1.116498,15.65452,-8.407381,-19.65324,1004.673
8.209937573,-8.130052,1.029708,-1.994627,-0.0650088,0.0666803,1.154597,15.65452,-8.407381,-19.65324,1004.672
8.229762554,-11.37543,-2.419516,-1.260677,-0.1168505,0.09749348,1.120769,15.33577,-7.661674,-18.84167,1004.672
8.249587059,-5.190845,-13.7959,5.467194,-0.07054252,0.03718873,1.052148,15.33577,-7.661674,-18.84167,1004.672
8.271890163,5.402544,-15.49026,11.82809,-0.03623965,0.05578267,1.015855,15.33577,-7.661674,-18.84167,1004.672
8.291714668,0.993735,-13.37232,7.913692,0.0006448287,0.05347488,0.9890943,15.34728,-8.395063,-18.82871,1004.672
8.311539650,1.299902,-6.715919,4.427432,0.03898174,0.05116996,0.9603946,15.34728,-8.395063,-18.82871,1004.672
8.331364155,-3.353841,5.568161,2.470233,0.0005079531,0.07293195,0.9809895,14.97099,-8.032351,-18.83381,1004.672
8.351189613,-5.129612,9.319948,2.225583,-0.0548306,0.05365262,0.980228,14.97099,-8.032351,-18.83381,1004.672
8.371014118,-2.80274,8.109694,5.711843,-0.05432912,0.04388852,0.9685909,14.97099,-8.032351,-18.83381,1004.668
8.390839100,1.544836,8.351745,9.198103,-0.04307528,0.04057309,0.9829925,14.97674,-8.399047,-18.82733,1004.668
8.410663605,-3.598775,12.46661,8.586479,-0.05761537,0.04395527,1.003362,14.97674,-8.399047,-18.82733,1004.668
8.430488587,-7.456484,15.00814,5.039056,-0.06328192,0.006891857,0.9921011,15.35385,-8.75334,-18.37888,1004.668
8.450313091,-5.558246,10.83277,5.222544,-0.0685588,-0.02437165,0.9620433,15.35385,-8.75334,-18.37888,1004.666
8.470137596,-2.61904,5.205084,4.610919,-0.05554691,-0.01510017,0.9422299,15.35385,-8.75334,-18.37888,1004.666
8.489962578,1.238669,2.4215,2.531395,-0.009885775,-0.03201257,0.8979694,15.35385,-8.75334,-18.37888,1004.666
8.509787083,3.075673,2.300474,0.02373465,0.02304946,-0.007983296,0.8974298,15.35385,-8.75334,-18.37888,1004.666
8.529612541,1.851004,3.32919,-2.912063,0.02740291,-0.008466318,0.8896806,15.35385,-8.75334,-18.37888,1004.666
8.551914692,1.422369,4.357906,-5.419724,0.003592584,0.000224211,0.9101281,15.36043,-9.111614,-17.92904,1004.666
8.571740151,0.993735,5.507648,-7.438085,-0.008204652,0.02402896,0.9127283,15.36043,-9.111614,-17.92904,1004.668
8.591564655,-1.39437,3.510728,-7.193435,-0.01748605,0.04986197,0.9433205,16.40536,-8.725216,-17.49611,1004.668
8.611389637,-0.7208021,-0.846186,-4.869262,-0.007726339,0.03575869,0.9296797,16.40536,-8.725216,-17.49611,1004.666
8.631214142,1.361136,-2.419516,-2.361601,-0.005790281,0.03771763,0.9301618,16.39961,-8.358521,-17.50258,1004.666
8.651039124,0.07523298,-5.324126,-3.646013,-0.01296013,0.03385829,0.9605899,16.39961,-8.358521,-17.50258,1004.668
8.670863629,-2.435339,-5.989766,-5.480886,0.005064658,0.03348441,0.9686949,16.39961,-8.358521,-17.50258,1004.668
8.690689087,-1.088203,-3.508745,-2.973226,0.007585974,0.03600544,0.9991028,16.78247,-9.079508,-17.04766,1004.668
8.710513592,-0.04723396,-3.38772,-2.422764,-0.03072452,0.05006218,1.054893,16.78247,-9.079508,-17.04766,1004.668
8.730338574,-2.312872,-4.658486,-3.340201,-0.04578923,0.05145899,1.060774,16.78247,-9.079508,-17.04766,1004.669
8.750163078,0.6875677,-6.715919,2.225583,-0.04136583,0.05053709,1.072813,16.77673,-8.712812,-17.05414,1004.669
8.769987583,4.422809,-4.718999,5.406031,-0.002724112,0.03818369,1.116944,16.77673,-8.712812,-17.05414,1004.669
8.789812565,-2.98644,11.25635,0.8800091,-0.06449652,0.08381189,1.190401,16.78976,-9.430567,-16.21781,1004.669
8.809637070,-8.864854,16.88404,-3.707175,-0.1405894,0.05769293,1.224953,16.78976,-9.430567,-16.21781,1004.666
8.831940174,-1.271903,-1.632851,0.08489711,-0.1398122,-0.04280434,1.144791,17.53327,-9.752236,-17.48191,1004.666
8.851764679,12.38316,-18.75795,10.54368,-0.06633116,-0.003627178,1.078946,17.53327,-9.752236,-17.48191,1004.666
8.871589661,21.56818,-21.54153,14.27459,0.01267632,0.016638,1.033728,17.53327,-9.752236,-17.48191,1004.666
8.891414166,5.525012,-8.470787,4.121619,0.03570387,0.06297562,1.016947,17.16356,-9.7478,-17.03717,1004.667
8.911239624,-4.578511,4.055343,-2.850901,0.01723899,0.01449283,0.9419834,17.16356,-9.7478,-17.03717,1004.667
8.931064129,-0.5371017,3.208165,1.491634,-0.02950689,-0.006811923,0.8904833,17.16356,-9.7478,-17.03717,1004.669
8.950889111,7.851883,-5.747715,5.89533,-0.008636707,-0.0003783656,0.8884714,17.90546,-9.731414,-16.59659,1004.669
8.970713616,10.48492,-3.811309,6.323468,0.02047211,0.006566154,0.8786942,17.90546,-9.731414,-16.59659,1004.669
8.990538597,3.320607,5.144571,2.347908,0.009836257,0.006067215,0.896609,17.53492,-9.735397,-16.5952,1004.669
9.010363102,0.9325016,7.928156,-0.465565,-0.03144301,-0.01317076,0.8827384,17.53492,-9.735397,-16.5952,1004.669
9.030188560,1.973471,6.2338,1.552796,-0.06259856,-0.004065039,0.8892305,17.53492,-9.735397,-16.5952,1004.669
9.050012589,1.116202,3.99483,2.89837,-0.0626219,0.005695715,0.8984517,18.2767,-9.720215,-16.21796,1004.669
9.069837093,-2.251639,3.32919,1.430471,-0.06108703,0.0003799063,0.911931,18.2767,-9.720215,-16.21796,1004.669
9.089662552,-2.067938,1.695347,-0.3432401,-0.04490428,-0.03610677,0.8908998,17.54642,-10.46879,-16.58224,1004.669
9.111965656,2.402105,-1.269775,0.1460596,-0.02065377,-0.024784,0.8898599,17.54642,-10.46879,-16.58224,1004.669
9.131790161,2.279638,-1.269775,-0.7102148,0.0006566173,0.003129485,0.9096764,17.54642,-10.46879,-16.58224,1004.667
9.151614666,2.034704,-2.661567,-0.8325397,0.02596861,-0.002589762,0.9066124,18.65382,-10.07451,-15.76952,1004.667
9.171439648,2.524572,-2.237978,2.164421,0.02838136,0.01256435,0.9259841,18.65382,-10.07451,-15.76952,1004.663
9.191264153,-0.5371017,0.3035553,1.613959,-0.005110593,0.03052525,0.9750103,18.64807,-9.707811,-15.776,1004.663
9.211089134,-6.109347,4.055343,-1.811139,-0.05022603,0.03477193,1.015824,18.64807,-9.707811,-15.776,1004.663
9.230913639,-7.517717,4.236881,0.1460596,-0.09391857,0.03753375,1.04359,18.64807,-9.707811,-15.776,1004.663
9.250739098,-5.068378,-4.658486,5.467194,-0.1205374,0.0198883,1.052816,18.65464,-10.06609,-15.32616,1004.663
9.270563603,0.6875677,-15.79282,12.80669,-0.05479594,-0.007086565,1.03301,18.65464,-10.06609,-15.32616,1004.663
9.290388584,2.218405,-14.46154,15.98714,0.02942065,0.004651236,1.075085,19.02026,-9.686989,-14.89068,1004.661
9.310213089,-4.088643,1.816373,10.60484,-0.01742173,0.06883013,1.136006,19.02026,-9.686989,-14.89068,1004.661
9.330037594,-18.23357,6.536364,7.11858,-0.05696373,0.02046626,1.155764,19.02026,-9.686989,-14.89068,1004.661
9.349862576,-18.17234,5.265597,6.38463,-0.09648645,0.02261382,1.121721,19.01943,-9.69541,-15.33403,1004.663
9.369687080,-13.7023,1.211246,6.568118,-0.09942072,-0.006256384,1.06946,19.01943,-9.69541,-15.33403,1004.663
9.391990185,-4.823445,-4.29541,8.341829,-0.04607369,-0.00608616,1.025245,19.01943,-9.69541,-15.33403,1004.663
9.411814690,1.299902,2.845089,5.528356,-0.03953535,0.04606523,1.031752,19.01943,-9.69541,-15.33403,1004.665
9.431639671,-5.43578,12.16405,-1.07719,-0.07124327,0.06049882,1.027656,19.01943,-9.69541,-15.33403,1004.665
9.451464176,-5.680713,13.55584,-2.973226,-0.08979812,0.05986118,1.005068,19.01464,-9.38983,-15.33943,1004.665
9.471289635,-1.271903,9.380461,0.207222,-0.08159065,0.05888325,0.9857107,19.01464,-9.38983,-15.33943,1004.659
9.491114140,4.484043,5.265597,4.427432,-0.05773105,0.0560944,0.9894273,19.00971,-9.014715,-14.90256,1004.659
9.510939121,-1.088203,2.179449,5.283706,-0.02857479,0.05573975,0.9815431,19.00971,-9.014715,-14.90256,1004.659
9.530763626,-3.415075,-1.693364,7.11858,0.002062971,0.02754302,0.9344107,19.00971,-9.014715,-14.90256,1004.659
9.550588608,-0.2921678,-3.932334,9.809728,0.004458388,0.0172634,0.9068321,19.37943,-9.019152,-15.3473,1004.657
9.570413113,-3.904943,-1.572338,9.259266,-0.009695832,0.02742051,0.9088925,19.37943,-9.019152,-15.3473,1004.657
9.590237618,-4.639744,-2.177466,7.179742,-0.02174899,0.001522469,0.8972412,19.74504,-8.640055,-14.91181,1004.657
9.610062599,-3.231374,-3.206182,7.302067,-0.01303988,0.001046866,0.8831934,19.74504,-8.640055,-14.91181,1004.657
9.629887104,-1.761771,-1.632851,5.89533,-0.02372878,-0.001445471,0.8822737,19.74504,-8.640055,-14.91181,1004.657
9.649712563,-0.4146348,0.6666315,2.592558,-0.01501116,0.01861764,0.9045323,19.3786,-9.027572,-15.79065,1004.657
9.669537068,0.5038673,2.542525,2.40907,-0.02041145,0.02882006,0.9065449,19.3786,-9.027572,-15.79065,1004.659
9.691840172,-1.21067,0.7271442,2.103258,-0.0256633,0.02544015,0.9297249,19.37368,-8.652456,-15.35378,1004.659
9.711664677,-1.945472,-2.782593,0.6353592,0.006017277,0.01000927,0.9241628,19.37368,-8.652456,-15.35378,1004.657
9.731489659,3.01444,-6.776431,-0.7102148,0.03132673,0.01651,0.9404687,19.37368,-8.652456,-15.35378,1004.657
9.751314163,4.300342,-6.473867,-2.483926,0.05133057,0.006881738,0.9432058,18.99738,-8.289744,-15.35887,1004.657
9.771139145,6.014879,-3.508745,-3.095551,0.06300554,0.0284547,0.9794536,18.99738,-8.289744,-15.35887,1004.657
9.790963650,2.891973,-0.6646479,-3.8295,0.03247306,0.044016,1.036657,19.35643,-7.552371,-15.37322,1004.659
9.810789108,1.667303,-0.6041352,-3.279038,-0.02590809,0.05934243,1.056362,19.35643,-7.552371,-15.37322,1004.659
9.830613613,-0.1697009,-2.359004,-1.811139,-0.08033703,0.06251119,1.074053,19.35643,-7.552371,-15.37322,1004.655
9.850438595,-1.578071,-9.317965,-1.566489,-0.08896611,0.04251136,1.077859,19.73271,-7.915083,-15.36813,1004.655
9.870263100,6.443513,-12.76719,0.6965217,-0.01576223,-0.00581645,1.0719,19.73271,-7.915083,-15.36813,1004.655
9.890087605,9.750121,-3.569258,-0.8325397,-0.02680992,0.004490518,1.129452,19.3671,-8.294182,-15.80361,1004.655
9.909912586,1.054968,1.332271,-9.456446,-0.0660895,0.002900873,1.160551,19.3671,-8.294182,-15.80361,1004.657
9.929737091,1.60607,-4.355923,-11.23016,-0.05157771,-0.02836724,1.085978,19.3671,-8.294182,-15.80361,1004.657
9.949562073,9.199019,-7.986685,-5.786699,-0.02593215,-0.01708263,1.066106,19.34985,-7.194096,-15.82305,1004.655
9.971864701,11.77083,0.7876569,-5.358562,-0.04438689,0.06364785,1.064208,19.34985,-7.194096,-15.82305,1004.655
9.991689682,0.0139995,6.173287,-8.172034,-0.08123199,0.03274049,1.04784,19.71381,-6.831837,-16.27427,1004.657
10.011514187,0.1976999,8.170207,-7.80506,-0.08362235,0.01711351,1.034258,19.71381,-6.831837,-16.27427,1004.657
10.031339645,3.075673,0.2430426,-3.217876,-0.07644763,0.01804309,1.000436,19.71381,-6.831837,-16.27427,1004.657
10.051164150,6.443513,1.453297,0.9411715,-0.04302893,0.03376201,0.9853706,18.9678,-6.464687,-15.83462,1004.657
10.070989132,-0.2921678,6.112775,0.207222,-0.04797832,0.05029696,0.9874135,18.9678,-6.464687,-15.83462,1004.659
10.090813637,-5.007145,4.297394,-0.7713773,-0.06644504,0.02332321,0.9473137,19.34492,-6.81898,-15.38618,1004.659
10.110638618,0.3201669,-2.359004,3.265345,-0.04849927,0.002360233,0.8983573,19.34492,-6.81898,-15.38618,1004.66
10.130463123,3.932941,-5.808228,5.834168,-0.02421511,-0.001447988,0.8822764,19.34492,-6.81898,-15.38618,1004.66
10.150287628,2.402105,-4.174385,2.65372,-0.01113877,0.005425193,0.8774134,19.33834,-6.460705,-15.83601,1004.66
10.170112610,-1.333137,-1.753877,-1.994627,0.009785619,-0.01694596,0.843879,19.33834,-6.460705,-15.83601,1004.66
10.189937115,4.116642,-1.14875,-2.667413,0.01416575,-0.02425413,0.832716,18.60384,-6.826946,-15.3834,1004.659
10.209762573,8.892852,-2.661567,-2.545089,0.01749987,-0.003754043,0.8458353,18.60384,-6.826946,-15.3834,1004.659
10.229587078,9.750121,0.1220172,-2.912063,0.03011508,0.006556731,0.8540248,18.60384,-6.826946,-15.3834,1004.654
10.251890183,10.36246,2.542525,-0.8937021,0.02388912,0.01490367,0.8960947,18.23413,-6.822509,-14.93866,1004.654
10.271714687,6.443513,0.5456061,-2.055789,-0.0003720685,0.02019493,0.921354,18.23413,-6.822509,-14.93866,1004.654
10.291539669,6.076113,1.695347,-2.361601,0.000625761,0.02217344,0.9319776,18.59892,-6.451831,-14.94653,1004.654
10.311364174,4.97391,2.179449,-0.4044026,0.003108926,0.03151141,0.9624208,18.59892,-6.451831,-14.94653,1004.654
10.331189156,2.034704,2.179449,-0.3432401,-0.0051463,0.05396558,1.003126,18.59892,-6.451831,-14.94653,1004.654
10.351013661,-0.7820356,1.997911,1.552796,0.005128853,0.04966307,1.014149,17.85702,-6.468217,-15.38711,1004.654
10.370839119,-0.5983351,2.663551,4.855569,0.02380903,0.02643555,1.0342,17.85702,-6.468217,-15.38711,1004.654
10.390663624,-2.496573,6.838927,7.485555,0.03525287,0.01005636,1.082804,17.84716,-5.717987,-14.51336,1004.654
10.410487652,-2.925207,15.49224,7.11858,-0.02723653,0.01381925,1.162325,17.84716,-5.717987,-14.51336,1004.654
10.430313110,-13.82476,22.75377,-1.321839,-0.1601188,0.07269278,1.227551,17.84716,-5.717987,-14.51336,1004.656
10.450137615,-22.15252,15.06866,-6.398323,-0.1939768,0.02620604,1.205777,17.11184,-6.092648,-14.5041,1004.656
10.469962597,-4.884678,2.058424,0.207222,-0.142126,0.0209645,1.141752,17.11184,-6.092648,-14.5041,1004.656
10.489787102,-1.21067,-6.53438,4.855569,-0.1021664,0.08101474,1.121087,16.73473,-5.738355,-14.95255,1004.656
10.509612084,0.1364664,-13.61437,4.672081,-0.04022564,0.07427152,1.018385,16.73473,-5.738355,-14.95255,1004.656
10.531914711,0.1976999,-9.560016,4.794406,0.005215273,0.09435601,0.9704548,16.73473,-5.738355,-14.95255,1004.656
10.551739693,-4.945911,2.482013,1.613959,-0.0265029,0.1170931,0.97702,16.74213,-6.088211,-14.05936,1004.656
10.571564198,-9.599655,7.686105,0.7576842,-0.08391984,0.1162857,0.9676766,16.74213,-6.088211,-14.05936,1004.656
10.591389656,-9.415955,4.902521,4.305107,-0.09065359,0.0796386,0.9293936,17.11267,-6.084228,-14.06075,1004.656
10.611214161,-1.945472,0.6061188,10.72717,-0.05069412,0.05252565,0.9077978,17.11267,-6.084228,-14.06075,1004.656
10.631039143,0.07523298,0.6666315,12.56204,-0.02825752,0.04388851,0.9124574,17.11267,-6.084228,-14.06075,1004.658
10.650863648,-2.680273,3.026627,8.402991,-0.0202834,0.004467972,0.9040058,16.74871,-6.446486,-13.60953,1004.658
10.670688152,-4.39481,4.539444,3.754644,-0.02263068,-0.01797243,0.8918364,16.74871,-6.446486,-13.60953,1004.658
10.690513134,2.402105,3.026627,2.470233,-0.01732253,-0.01406341,0.8860353,17.125,-6.809199,-13.60443,1004.658
10.710337639,2.953206,4.115856,1.919771,0.002113366,-0.0002866688,0.903376,17.125,-6.809199,-13.60443,1004.66
10.730162621,-0.1084674,4.055343,-0.03742781,-0.02424904,0.03079332,0.9254005,17.125,-6.809199,-13.60443,1004.66
10.749987126,-2.312872,5.265597,-2.667413,-0.04564428,0.02921829,0.9240615,16.01409,-6.813931,-13.22025,1004.657
10.769812584,-3.108907,2.724063,-3.768338,-0.05685002,0.03305697,0.9246253,16.01409,-6.813931,-13.22025,1004.657
10.789637089,-0.1697009,-2.72208,-4.012987,-0.04813036,0.04334409,0.9313878,15.63052,-6.10016,-14.05519,1004.657
10.811940193,2.279638,-8.289248,-4.379962,-0.002051369,0.05131774,0.908008,15.63052,-6.10016,-14.05519,1004.657
10.831764698,3.565541,-6.110791,-3.156713,0.02797413,0.07827104,0.9147396,15.63052,-6.10016,-14.05519,1004.657
10.851589680,1.667303,-6.776431,-4.624612,0.01840033,0.06268599,0.9340191,16.00834,-6.447235,-13.22673,1004.657
10.871414185,0.1364664,-5.808228,-5.847861,0.00674068,0.07778939,0.9626386,16.00834,-6.447235,-13.22673,1004.657
10.891238690,-3.966176,-5.021563,-7.132273,-0.01137595,0.0359108,1.000654,14.97491,-7.567026,-13.64671,1004.657
10.911063671,-3.047674,-5.566177,-9.272959,-0.03838224,0.01735578,1.03739,14.97491,-7.567026,-13.64671,1004.657
10.930888176,0.3201669,-8.591812,-9.272959,-0.05052234,0.02317228,1.05245,14.97491,-7.567026,-13.64671,1004.657
10.950713635,0.3201669,-10.95181,-8.110872,-0.06752796,0.02700653,1.063664,15.33324,-6.836869,-14.04108,1004.657
10.970538140,3.136906,-13.49334,-7.621572,-0.02989639,-0.005422436,1.063774,15.33324,-6.836869,-14.04108,1004.657
10.990363121,4.422809,-7.986685,-8.661334,-0.01480565,0.01470972,1.100961,15.33981,-7.195145,-13.59124,1004.657
11.010187626,0.993735,1.332271,-12.33108,-0.0545556,0.01997317,1.148026,15.33981,-7.195145,-13.59124,1004.657
11.030012608,-0.7208021,-0.05952091,-14.34944,-0.07240254,-0.0005473495,1.157671,15.33981,-7.195145,-13.59124,1004.657
11.049837112,5.892412,-3.569258,-10.80202,-0.08864553,0.02758543,1.147286,14.59874,-7.203111,-13.58847,1004.657
11.069661617,5.953646,-4.29541,-8.233197,-0.08206163,0.05777015,1.130994,14.59874,-7.203111,-13.58847,1004.657
11.091964722,3.443074,-6.292329,-3.340201,-0.03008614,0.02230765,1.053781,14.96352,-6.832432,-13.59634,1004.657
11.111789703,11.46466,-2.72208,2.40907,-0.04089942,0.03439258,1.040388,14.96352,-6.832432,-13.59634,1004.656
11.131614208,3.626774,4.176368,-1.933464,-0.07886115,0.02390992,1.015442,14.96352,-6.832432,-13.59634,1004.656
11.151438713,-1.39437,3.631754,-8.477847,-0.08808442,-0.008880192,0.9665738,14.22737,-7.215513,-14.03043,1004.656
11.171264172,3.871708,-3.569258,-7.682735,-0.03607334,-0.03893965,0.9086961,14.22737,-7.215513,-14.03043,1004.657
11.191088676,13.30166,-6.776431,-4.318799,0.007923412,-0.01445227,0.8723801,14.24041,-7.933267,-13.1941,1004.657
11.210913658,12.50563,-5.445152,-7.376923,0.02328709,0.02557366,0.8797417,14.24041,-7.933267,-13.1941,1004.657
11.230738163,4.60651,-0.9672114,-13.00387,0.04314858,0.03490967,0.8719581,14.24041,-7.933267,-13.1941,1004.657
11.250563145,5.586245,1.876886,-11.59713,0.03775908,0.03583122,0.8618562,13.86834,-7.952887,-14.01608,1004.659
11.270387650,6.56598,-1.088237,-6.948785,0.01831041,0.04404459,0.8769678,13.86834,-7.952887,-14.01608,1004.659
11.290212631,6.749681,-1.330288,-5.113912,-0.0005820806,0.04595506,0.9021803,13.86834,-7.952887,-14.01608,1004.655
11.310037136,4.177875,0.2430426,-5.297399,0.002899058,0.03136143,0.9006383,14.2397,-7.940484,-13.57412,1004.655
11.329861641,3.320607,0.9691951,-4.257637,0.004450972,0.03241313,0.9295959,14.2397,-7.940484,-13.57412,1004.655
11.349687100,2.830739,-3.327207,-5.358562,0.01616258,0.01979124,0.920296,15.36282,-8.661926,-13.56532,1004.655
11.369511604,2.218405,-6.352842,-5.847861,0.04772161,0.02578387,0.9143619,15.36282,-8.661926,-13.56532,1004.655
11.391814709,0.9325016,-4.234898,-5.664374,0.08467339,0.02792402,0.9146533,13.88137,-8.670641,-13.17975,1004.655
11.411639214,-1.39437,-0.5436226,-4.502287,0.0886717,0.02899886,0.9479417,13.88137,-8.670641,-13.17975,1004.657
11.431464195,-1.39437,0.7876569,-3.58485,0.08249183,0.01440176,0.9657597,13.88137,-8.670641,-13.17975,1004.657
11.451288700,-2.312872,4.236881,-2.667413,0.05044792,0.03138464,1.009946,13.88712,-9.037335,-13.17327,1004.658
11.471113682,-3.537542,5.386622,-2.361601,0.01221581,0.02496476,1.055012,13.88712,-9.037335,-13.17327,1004.658
11.490938187,-6.170581,1.392784,-2.422764,-0.0008860133,0.03176179,1.074908,13.88712,-9.037335,-13.17327,1004.66
11.510763645,-6.844149,-3.024643,-1.749977,0.0006648677,0.001524948,1.052058,14.62245,-8.662674,-13.18253,1004.66
11.530588150,-3.904943,-2.480029,-1.07719,-0.0252108,0.02429693,1.060522,14.62245,-8.662674,-13.18253,1004.66
11.550412178,-6.354281,-6.594893,-1.016027,-0.02669364,0.03649412,1.073625,13.88712,-9.037335,-13.17327,1004.66
11.570237637,-4.945911,-10.04412,0.8800091,-0.01559688,0.05359906,1.075583,13.88712,-9.037335,-13.17327,1004.662
11.590062142,-3.170141,-11.73847,4.610919,-0.006426301,0.07168535,1.084797,13.88712,-9.037335,-13.17327,1004.662
11.609887123,-1.271903,-11.79899,8.647641,-0.01091393,0.08967188,1.082018,14.25683,-9.041773,-13.61802,1004.662
11.629711628,-0.6595686,-9.196939,12.50088,-0.01010798,0.1232899,1.088461,14.25683,-9.041773,-13.61802,1004.662
11.649536610,-6.415515,-2.601054,12.50088,-0.03355994,0.1274917,1.063994,14.2675,-9.712844,-13.5428,1004.664
11.671839237,-7.456484,-0.05952091,13.05134,-0.05588055,0.0736361,0.9904726,14.2675,-9.712844,-13.5428,1004.664
11.691664219,-2.557806,3.813292,12.86785,-0.06209023,0.03995168,0.9681304,14.2675,-9.712844,-13.5428,1004.664
11.711488724,0.1364664,8.896359,9.198103,-0.05965671,0.05463177,0.9928091,13.16573,-10.47502,-14.41238,1004.664
11.731314182,-2.312872,11.74046,5.039056,-0.07359353,0.02241239,0.9888583,13.16573,-10.47502,-14.41238,1004.664
11.751138687,-0.9045025,8.049181,2.40907,-0.04887982,0.0219882,0.961691,14.27817,-10.45465,-13.97319,1004.664
11.770963669,4.300342,3.934317,4.488594,0.006987834,0.01539039,0.9323906,14.27817,-10.45465,-13.97319,1004.66
11.790788174,3.994175,3.99483,7.302067,0.034044,0.04326963,0.9256282,14.27817,-10.45465,-13.97319,1004.66
11.810612679,-1.333137,6.415338,6.690443,0.05105449,0.03650562,0.91102,13.90271,-10.08352,-13.53493,1004.66
11.830437660,-5.680713,5.326109,7.057417,0.0482039,0.01209508,0.8906377,13.90271,-10.08352,-13.53493,1004.66
11.850262165,-4.517277,2.482013,7.179742,0.03125898,-0.01727058,0.8649977,13.16656,-10.4666,-13.96903,1004.66
11.870087147,-2.312872,2.603038,4.855569,0.02481414,0.009008195,0.8724082,13.16656,-10.4666,-13.96903,1004.66
11.889911652,-3.292608,5.810211,2.225583,0.01954262,0.005614223,0.889796,13.16656,-10.4666,-13.96903,1004.66
11.909737110,-3.170141,6.596876,1.369309,0.01663027,0.01635833,0.9091743,13.92067,-11.17639,-13.13547,1004.66
11.929561615,-4.456044,7.262516,-0.1597527,0.01281065,0.01394459,0.9260765,13.92067,-11.17639,-13.13547,1004.66
11.951864720,-5.190845,10.46969,-1.994627,0.0006498692,0.02610165,0.9455127,13.92725,-11.53467,-12.68564,1004.66
11.971689224,-6.476748,9.622512,-4.07415,-0.01676515,0.02118867,0.9648899,13.92725,-11.53467,-12.68564,1004.66
11.991514206,-3.598775,4.902521,-3.8295,-0.01968858,0.02214742,0.9649109,13.92725,-11.53467,-12.68564,1004.66
12.011338711,3.136906,-1.632851,-2.973226,-0.008024805,0.02660186,0.9696966,13.55013,-11.18037,-13.13409,1004.66
12.031163216,3.075673,-4.597974,-4.07415,0.02643818,0.04482137,0.9797378,13.55013,-11.18037,-13.13409,1004.66
12.050988197,3.075673,-4.416436,-5.175074,0.04444782,0.05421411,0.9994772,14.30775,-12.27971,-13.49744,1004.661
12.070812702,-2.61904,-1.511826,-7.254598,0.03579391,0.05424028,1.028968,14.30775,-12.27971,-13.49744,1004.661
12.090638161,-0.8432691,-1.027724,-7.376923,0.003699096,0.06678694,1.050929,14.30775,-12.27971,-13.49744,1004.661
12.110462189,-1.088203,-2.480029,-5.909023,-0.02741927,0.07689697,1.069975,13.933,-11.90136,-12.67916,1004.661
12.130287647,-1.455604,-5.989766,-3.890663,-0.04928451,0.07093124,1.066203,13.933,-11.90136,-12.67916,1004.663
12.150112152,2.891973,-9.681041,-1.016027,-0.01217359,0.04434168,1.065863,13.56246,-11.90535,-12.67777,1004.663
12.169937134,5.708712,-3.569258,-1.505327,-0.009546045,0.02493938,1.091331,13.56246,-11.90535,-12.67777,1004.663
12.189761639,0.1976999,-1.088237,-7.438085,-0.05751133,0.01699785,1.132098,13.56246,-11.90535,-12.67777,1004.663
12.209586144,1.851004,-4.234898,-11.16899,-0.02436476,-0.03997459,1.060188,13.94532,-12.62633,-12.22285,1004.665
12.231889248,13.05673,-2.601054,-9.089471,0.005568043,0.0006008749,1.062163,13.94532,-12.62633,-12.22285,1004.665
12.251713753,10.60739,3.389703,-8.539009,-0.0111533,0.05024722,1.089539,14.31669,-12.61393,-11.78088,1004.659
12.271538734,6.933381,11.61943,-9.395284,-0.0471734,0.04808281,1.077176,14.31669,-12.61393,-11.78088,1004.659
12.291363239,3.01444,17.54967,-8.355522,-0.1168497,0.08087243,1.093654,14.31669,-12.61393,-11.78088,1004.651
12.311188698,0.6263342,14.64507,-7.438085,-0.1528755,0.06501554,1.057086,13.57069,-12.24678,-11.34123,1004.651
12.331013203,3.565541,2.239962,-1.383002,-0.09768802,0.06805411,0.9868115,13.57069,-12.24678,-11.34123,1004.655
12.350838184,7.606949,-5.929253,7.179742,-0.02099313,0.04732652,0.9090565,13.57726,-12.60506,-10.8914,1004.655
12.370662689,8.892852,-6.231817,8.341829,0.01287792,0.0576461,0.8751367,13.57726,-12.60506,-10.8914,1004.657
12.390487671,3.749241,-3.811309,3.876969,0.03809636,0.04599353,0.8348765,13.57726,-12.60506,-10.8914,1004.657
12.410312176,1.483603,0.6666315,0.2683845,0.0434823,0.02600341,0.8125411,13.96001,-13.32725,-10.49981,1004.653
12.430136681,2.891973,1.574322,0.02373465,0.02161403,0.0361683,0.8344336,13.96001,-13.32725,-10.49981,1004.653
12.449961662,4.60651,0.6666315,3.14302,0.01191268,0.04249133,0.8523782,13.97727,-14.42733,-10.48037,1004.655
12.469786167,1.361136,4.902521,5.589519,-0.007357505,0.0361661,0.8958923,13.97727,-14.42733,-10.48037,1004.655
12.489611626,0.1364664,6.294313,3.754644,-0.05469028,0.009754418,0.9491104,13.97727,-14.42733,-10.48037,1004.65
12.511913777,0.2589334,-0.9672114,2.347908,-0.06679899,-0.004450406,0.9404154,13.96576,-13.69394,-10.49333,1004.65
12.531739235,5.218844,-6.715919,5.467194,-0.02842054,-0.006236767,0.9247505,13.96576,-13.69394,-10.49333,1004.642
12.551563740,6.321046,-9.43899,5.344869,0.02063166,0.004235821,0.9216397,13.97892,-14.41049,-9.593659,1004.642
12.571388722,5.463778,-7.018482,5.222544,0.05703699,0.006819369,0.9050427,13.97892,-14.41049,-9.593659,1004.637
12.591213226,3.320607,-1.14875,4.305107,0.04780139,0.02535202,0.9370452,13.97892,-14.41049,-9.593659,1004.637
12.611038208,-2.312872,4.66047,1.797446,0.01147317,0.02575681,0.9811699,14.36082,-15.07037,-9.139814,1004.642
12.630862713,-5.925647,6.89944,0.5741968,-0.05368643,0.04742489,1.020252,14.36082,-15.07037,-9.139814,1004.642
12.650687218,-8.007585,4.599957,1.736283,-0.06616088,0.02108194,1.026942,14.36165,-15.06195,-8.696461,1004.635
12.670512200,-3.353841,0.2430426,5.467194,-0.06464784,0.01819489,1.038021,14.36165,-15.06195,-8.696461,1004.635
12.690336704,-1.639304,-2.782593,9.870891,-0.01688417,0.0243819,1.077854,14.36165,-15.06195,-8.696461,1004.635
12.710162163,-1.578071,2.905602,10.1767,-0.02082442,0.06734704,1.134086,13.637,-16.17842,-9.117598,1004.635
12.729986668,-14.37587,11.80097,4.182782,-0.08510902,0.09970555,1.162117,13.637,-16.17842,-9.117598,1004.631
12.749811649,-19.94811,7.202003,1.797446,-0.1073186,0.04984028,1.127713,13.26236,-15.79887,-8.235982,1004.631
12.769636154,-7.456484,0.9691951,5.89533,-0.1045342,0.03460487,1.063423,13.26236,-15.79887,-8.235982,1004.631
12.791939259,-5.43578,-6.110791,7.791367,-0.0600549,0.06446968,1.034855,13.26236,-15.79887,-8.235982,1004.628
12.811763764,1.483603,-7.986685,8.464154,0.02599931,0.03898631,0.9840543,14.02069,-16.89099,-8.219318,1004.63
12.831588745,0.5038673,6.173287,3.632319,0.01800038,0.09989949,1.020612,14.02069,-16.89099,-8.219318,1004.63
12.851413250,-9.109787,20.15172,-2.912063,-0.05784458,0.1005006,1.029236,13.27457,-16.52504,-7.843004,1004.626
12.871237755,-14.31463,21.9671,-4.869262,-0.1141722,0.08267117,1.026074,13.27457,-16.52504,-7.843004,1004.626
12.891063214,-5.61948,12.22456,-0.4044026,-0.1054524,0.06704819,0.9902275,13.27457,-16.52504,-7.843004,1004.626
12.910887242,-0.1697009,0.2430426,7.546717,-0.04769717,0.07019659,0.9600014,13.65086,-16.88775,-7.837913,1004.624
12.930712700,-0.2309344,-1.3908,9.626241,-0.00447311,0.05571209,0.9181801,13.65086,-16.88775,-7.837913,1004.624
12.950537205,-2.251639,-0.3620844,8.097179,0.02524194,0.04123444,0.9082895,14.02069,-16.89099,-8.219318,1004.621
12.970362187,-8.681153,1.150733,3.754644,0.02722403,0.01584944,0.8772569,14.02069,-16.89099,-8.219318,1004.621
12.990186691,-4.762211,2.058424,1.613959,0.01364161,0.004559784,0.8690677,14.02069,-16.89099,-8.219318,1004.617
13.010011673,-2.741507,1.75586,2.103258,0.004889988,0.01233808,0.8826705,13.28678,-17.25121,-7.450027,1004.617
13.029836178,-1.455604,3.934317,0.5741968,-0.00580956,0.0279264,0.9083911,13.28678,-17.25121,-7.450027,1004.617
13.049660683,-6.599215,5.810211,-2.850901,-0.02757372,0.02007742,0.9311558,12.92199,-17.62189,-7.442159,1004.617
13.071963787,-4.272344,5.084059,-5.052749,-0.04401951,0.006367337,0.9350368,12.92199,-17.62189,-7.442159,1004.613
13.091788292,-1.088203,0.0009917939,-5.909023,-0.04055081,-0.0004132395,0.9427059,12.92199,-17.62189,-7.442159,1004.613
13.111613750,2.585805,-4.416436,-7.621572,-0.03381841,0.01912241,0.9524229,14.39769,-17.24648,-7.834209,1004.613
13.131438255,5.586245,-6.655406,-8.355522,-0.01827703,0.02945415,0.9630098,14.39769,-17.24648,-7.834209,1004.613
13.151263237,5.953646,-6.413355,-9.517609,-0.01201789,0.04606339,0.9717491,14.03794,-17.99107,-8.199879,1004.609
13.171087742,6.19858,-3.811309,-9.945745,-0.01199154,0.0534153,0.9915766,14.03794,-17.99107,-8.199879,1004.609
13.190912724,4.422809,-0.6041352,-10.1904,-0.04801043,0.09427249,1.050388,14.03794,-17.99107,-8.199879,1004.607
13.210737228,-0.7820356,-0.1805463,-11.59713,-0.06977075,0.08691514,1.075086,13.6754,-18.3389,-6.988621,1004.607
13.230562210,1.299902,-2.298491,-7.621572,-0.07798067,0.07126967,1.066362,13.6754,-18.3389,-6.988621,1004.607
13.250386715,5.341311,-4.05336,-1.627652,-0.05984066,0.06413392,1.097117,14.41072,-17.96424,-6.997878,1004.607
13.270211220,6.321046,-1.814389,-3.095551,-0.06454796,0.04417649,1.110073,14.41072,-17.96424,-6.997878,1004.605
13.290036678,4.055408,0.0615045,-8.539009,-0.07762989,0.02947736,1.100415,14.41072,-17.96424,-6.997878,1004.605
13.309861183,4.667743,-3.690283,-10.25156,-0.04056893,-0.01083632,1.062839,14.78619,-18.33537,-7.43614,1004.605
13.329686165,13.5466,-0.6646479,-8.049709,-0.04378923,0.01875371,1.022947,14.78619,-18.33537,-7.43614,1004.605
13.349510670,10.42369,-4.355923,-7.743897,-0.02909743,0.0003249182,1.022289,14.78701,-18.32695,-6.992786,1004.601
13.371813774,18.93514,-5.747715,-5.297399,0.02732494,-0.03702044,0.9624188,14.78701,-18.32695,-6.992786,1004.601
13.391638279,13.5466,8.109694,-10.06807,-0.008303968,0.02870289,1.033905,14.78701,-18.32695,-6.992786,1004.602
13.411463261,2.585805,19.06249,-18.44733,-0.07744893,0.03903908,1.026614,15.1707,-19.03952,-6.094507,1004.602
13.431287766,-3.415075,19.06249,-18.325,-0.1548468,0.04640976,1.01887,15.1707,-19.03952,-6.094507,1004.602
13.451113224,5.586245,7.323029,-11.78062,-0.1723152,0.02043717,0.9879407,15.16413,-18.68124,-6.544341,1004.602
13.470937252,10.23999,-1.027724,-7.988547,-0.1380677,0.05952413,0.9691295,15.16413,-18.68124,-6.544341,1004.602
13.490761757,8.709152,-5.203101,-7.254598,-0.07158285,0.0485232,0.9083742,15.16413,-18.68124,-6.544341,1004.602
13.510587216,11.34219,-7.20002,-5.358562,-0.008960709,0.04045533,0.8606876,16.20413,-17.91973,-5.674526,1004.598
13.530411720,9.443954,-4.779512,-5.419724,0.01480064,0.04492934,0.8475482,16.20413,-17.91973,-5.674526,1004.598
13.550236702,6.872148,-0.3015717,-7.499248,0.02241245,0.07760293,0.8515357,15.84345,-18.67394,-6.546885,1004.6
13.570061207,3.01444,2.966114,-5.175074,0.01425514,0.07079476,0.8727833,15.84345,-18.67394,-6.546885,1004.6
13.589886189,1.054968,2.542525,-0.8937021,-0.01243539,0.08389703,0.911611,15.84345,-18.67394,-6.546885,1004.6
13.609710694,-2.496573,1.332271,1.613959,-0.02926656,0.05950138,0.9275061,15.85002,-19.03222,-6.097052,1004.6
13.629535198,-0.9045025,-1.632851,4.733244,-0.02576962,0.04149693,0.9249811,15.85002,-19.03222,-6.097052,1004.598
13.651838303,0.8712681,-5.324126,8.892291,-0.0004178858,0.02602865,0.9175228,16.20823,-18.30326,-6.554754,1004.598
13.671663761,0.0139995,-4.234898,9.442753,0.01660808,0.03003089,0.925173,16.20823,-18.30326,-6.554754,1004.598
13.691488266,-2.925207,-0.3015717,7.791367,0.007510765,0.01444132,0.9415537,16.20823,-18.30326,-6.554754,1004.598
13.711312294,-4.578511,2.845089,6.323468,-0.03369498,0.01383303,0.9799078,16.20823,-18.30326,-6.554754,1004.598
13.731137753,-4.088643,3.510728,4.855569,-0.07398684,0.02932055,1.02751,16.20823,-18.30326,-6.554754,1004.598
13.750962258,-6.905383,2.784576,2.042096,-0.1046073,0.0482411,1.064459,16.94848,-18.30371,-7.000884,1004.598
13.770787239,-7.640184,-2.298491,4.121619,-0.08025285,0.02835031,1.042503,16.94848,-18.30371,-7.000884,1004.598
13.790611744,0.5651007,-5.808228,10.91065,-0.03929825,0.005169432,1.033954,16.94848,-18.30371,-7.000884,1004.594
13.810436726,1.912237,-0.7251607,12.1339,-0.003714943,0.02936597,1.097114,16.21316,-18.67838,-6.991628,1004.594
13.830261231,-6.537982,9.259436,7.546717,-0.0444821,0.05170307,1.159235,16.21316,-18.67838,-6.991628,1004.594
13.850085736,-15.5393,12.58763,2.837208,-0.1222085,0.04793994,1.179431,16.58216,-18.69003,-7.816387,1004.594
13.869911194,-19.21331,6.2338,0.08489711,-0.1518891,0.02626564,1.139902,16.58216,-18.69003,-7.816387,1004.594
13.889735699,-11.80406,-2.782593,2.164421,-0.1400366,0.05153146,1.091699,16.58216,-18.69003,-7.816387,1004.594
13.909560681,-5.558246,-12.70668,6.996255,-0.06088749,0.03914341,1.034247,15.84684,-19.06469,-7.807131,1004.594
13.931863308,4.60651,-11.98052,9.442753,0.009901506,0.05500106,0.9962916,15.84684,-19.06469,-7.807131,1004.594
13.951688290,-4.823445,2.239962,2.347908,-0.02037154,0.1002239,1.035787,15.84109,-18.69799,-7.813611,1004.59
13.971512795,-8.987321,10.5302,-2.667413,-0.07344012,0.08719695,0.9978786,15.84109,-18.69799,-7.813611,1004.59
13.991337776,-9.354721,9.864562,-1.321839,-0.1221882,0.09517377,0.9779139,15.84109,-18.69799,-7.813611,1004.59
14.011162281,-1.149436,4.66047,3.204182,-0.1183874,0.08241903,0.9305251,15.84109,-18.69799,-7.813611,1004.59
14.030987263,4.300342,-1.14875,9.320428,-0.07481693,0.1049914,0.908682,15.84109,-18.69799,-7.813611,1004.589
14.050811768,1.912237,-1.14875,11.33879,-0.01699789,0.1023189,0.8875966,15.8338,-18.34694,-8.643462,1004.589
14.070636272,1.60607,0.2430426,12.07274,-0.01202891,0.0799315,0.8816623,15.8338,-18.34694,-8.643462,1004.589
14.090461731,-7.578951,3.934317,8.769966,-0.01442673,0.07652099,0.8860021,15.8338,-18.34694,-8.643462,1004.589
14.110286236,-4.945911,3.692266,8.341829,-0.03133646,0.06086889,0.8932543,15.8453,-19.08033,-8.630502,1004.589
14.130111218,-4.700978,-1.088237,10.23787,-0.05167562,0.04615896,0.8947382,15.8453,-19.08033,-8.630502,1004.589
14.149935722,-0.4146348,-5.384639,10.97181,-0.04486747,0.05157146,0.9034169,15.8453,-19.08033,-8.630502,1004.585
14.169760704,-1.149436,-7.078995,10.05438,-0.005468396,0.04151359,0.8881866,16.22159,-19.44304,-8.62541,1004.585
14.189585209,-1.516837,-4.658486,9.626241,-0.001452621,0.04064541,0.9233956,16.22159,-19.44304,-8.62541,1004.586
14.211888313,-3.476308,0.5456061,5.222544,-0.03983879,0.03851528,0.9303523,14.80695,-19.825,-8.613608,1004.586
14.231712818,-2.557806,0.3035553,2.776045,-0.07769943,0.02614937,0.9319441,14.80695,-19.825,-8.613608,1004.593
14.251537323,1.667303,-6.352842,2.89837,-0.07434314,0.03151027,0.9266438,15.18159,-20.20456,-9.495224,1004.593
14.271362305,5.035144,-8.410274,2.164421,-0.04856006,0.02969363,0.9255279,15.18159,-20.20456,-9.495224,1004.597
14.291186810,5.647479,-3.448232,-1.383002,-0.03108135,0.05322926,0.9554792,15.18159,-20.20456,-9.495224,1004.597
14.311012268,3.932941,-0.3620844,-3.156713,-0.02417871,0.05528719,0.9863435,15.17666,-19.82944,-9.058351,1004.601
14.330836773,3.688008,2.360987,-3.58485,-0.03734418,0.08110475,1.018888,15.17666,-19.82944,-9.058351,1004.601
14.350661755,0.993735,5.144571,-3.340201,-0.07091149,0.1034116,1.052973,15.17666,-19.82944,-9.058351,1004.602
14.370486260,-1.02697,-0.241059,-0.6490523,-0.04732406,0.05970806,1.052137,15.5472,-19.82545,-9.059739,1004.602
14.390311241,4.484043,2.179449,2.347908,-0.01757612,0.05112039,1.061584,15.5472,-19.82545,-9.059739,1004.598
14.410135746,-3.476308,11.19584,-1.260677,-0.07282353,0.05879417,1.131914,16.60363,-20.17245,-8.613838,1004.598
14.429960251,-5.558246,9.501486,-5.725536,-0.07431351,-0.00639934,1.158134,16.60363,-20.17245,-8.613838,1004.602
14.449785709,2.953206,3.510728,-5.664374,-0.1070102,-0.009092821,1.121134,16.60363,-20.17245,-8.613838,1004.602
14.469610214,7.484482,-1.027724,-1.811139,-0.1003496,-0.0008525182,1.091213,15.86831,-20.54711,-8.604582,1004.602
14.491913319,12.68933,-3.024643,2.65372,-0.08399272,0.02257145,1.077246,15.86831,-20.54711,-8.604582,1004.602
14.511737824,1.544836,6.838927,-1.444164,-0.07475494,0.03923915,1.103829,16.60939,-20.53914,-8.607359,1004.6
14.531562805,-2.925207,10.0461,-6.031348,-0.1430503,0.04362597,1.050648,16.60939,-20.53914,-8.607359,1004.6
14.551387310,-1.761771,5.023546,-4.869262,-0.1612239,0.03411605,0.9826407,16.60939,-20.53914,-8.607359,1004.604
14.571212292,3.01444,-2.964131,-1.199515,-0.119492,0.02937772,0.9471524,16.98471,-20.84074,-8.603347,1004.604
14.591036797,7.545716,-4.29541,-0.5878899,-0.0807426,0.02408932,0.8918878,16.98471,-20.84074,-8.603347,1004.604
14.610861778,7.545716,-3.508745,-1.933464,-0.04871039,0.02714182,0.8772478,17.35608,-20.82834,-8.161381,1004.608
14.630686283,7.117082,-4.29541,-4.012987,-0.01129822,0.01362206,0.8441514,17.35608,-20.82834,-8.161381,1004.608
14.650510788,8.770386,-0.7251607,-4.869262,-0.002695259,0.0409363,0.8447274,17.35608,-20.82834,-8.161381,1004.608
14.670336247,6.688447,1.937398,-5.419724,-0.02300602,0.02526893,0.8529636,17.72579,-20.83277,-8.606123,1004.608
14.690160752,8.770386,3.813292,-2.178114,-0.008010915,0.04631049,0.8636085,17.72579,-20.83277,-8.606123,1004.604
14.709985733,9.260253,6.052262,2.714883,-0.02449127,0.05848591,0.8999621,18.10291,-21.18707,-8.157678,1004.604
14.729810238,4.60651,5.568161,5.039056,-0.04530878,0.06528954,0.939208,18.10291,-21.18707,-8.157678,1004.608
14.749635220,-0.1697009,1.392784,8.953453,-0.05108374,0.05112564,0.9338574,18.10291,-21.18707,-8.157678,1004.608
14.769459725,-1.516837,-1.209262,12.37855,-0.04849355,0.01898597,0.9274033,18.84398,-21.1791,-8.160454,1004.608
14.791762829,-2.80274,-2.601054,13.47948,-0.03872602,0.01613234,0.9345754,18.84398,-21.1791,-8.160454,1004.608
14.811587334,-5.374546,-2.661567,11.46111,-0.03714159,-0.0003921059,0.9441354,18.10866,-21.55376,-8.151197,1004.608
14.831411839,-4.088643,-2.359004,12.6232,-0.0430029,0.02058106,0.9713051,18.10866,-21.55376,-8.151197,1004.608
14.851236820,-5.61948,-1.511826,13.41831,-0.06883106,0.04045376,0.988925,18.10866,-21.55376,-8.151197,1004.608
14.871061325,-11.31419,0.2430426,13.72412,-0.09345581,0.0326307,1.028599,18.48494,-21.91647,-8.146106,1004.608
14.890886784,-14.49833,-1.935415,10.91065,-0.1090002,0.03989621,1.046098,18.48494,-21.91647,-8.146106,1004.608
14.910711289,-10.39569,-6.715919,16.78225,-0.06064926,0.0006927736,1.040805,18.11441,-21.92046,-8.144718,1004.608
14.930536270,-2.80274,-7.018482,22.28687,-0.04124315,0.03155875,1.077541,18.11441,-21.92046,-8.144718,1004.614
14.950360775,-12.72256,0.4245807,17.88317,-0.05394721,0.0715383,1.126084,18.11441,-21.92046,-8.144718,1004.614
14.970185757,-18.11111,6.354825,16.5376,-0.04690963,0.03507177,1.133098,17.00772,-22.30752,-8.577427,1004.612
14.990010262,-20.92785,10.40918,15.00854,-0.1362538,0.1081837,1.15327,17.00772,-22.30752,-8.577427,1004.612
15.009834766,-24.35692,4.055343,13.29599,-0.1649495,0.06696828,1.085158,18.86533,-22.66272,-9.021242,1004.616
15.029660225,-11.43666,-5.384639,18.73945,-0.1237255,0.05047914,1.02403,18.86533,-22.66272,-9.021242,1004.616
15.049484253,-5.61948,-0.1200336,19.90153,-0.1006617,0.1085756,1.037234,18.86533,-22.66272,-9.021242,1004.618
15.071787834,-10.51816,10.16713,13.23483,-0.1318986,0.1195786,1.022981,18.12918,-23.0458,-9.455339,1004.618
15.091611862,-6.354281,16.76301,12.37855,-0.1642502,0.1397637,0.9822345,18.12918,-23.0458,-9.455339,1004.614
15.111437321,-3.721242,13.25327,16.41527,-0.1808752,0.1616132,0.9920914,17.38893,-23.04535,-9.009209,1004.614
15.131261826,0.07523298,2.239962,23.20431,-0.1266019,0.1671329,0.9430721,17.38893,-23.04535,-9.009209,1004.616
15.151086807,1.361136,-0.6646479,31.70589,-0.04649417,0.1669617,0.9016051,17.38893,-23.04535,-9.009209,1004.616
15.170911312,1.422369,1.271759,37.8833,-0.002167946,0.1511081,0.8954889,17.75454,-22.66625,-8.573723,1004.616
15.190735817,-8.374986,5.870724,38.12794,-0.001071461,0.1360466,0.9069898,17.75454,-22.66625,-8.573723,1004.616
15.210560799,-14.00846,8.593796,36.4154,-0.02583713,0.1339893,0.9148377,17.41276,-24.50371,-8.539935,1004.616
15.230385304,-19.09084,8.47277,38.98422,-0.05637233,0.1153276,0.9149089,17.41276,-24.50371,-8.539935,1004.616
15.250210762,-13.5186,1.453297,43.32676,-0.06689768,0.0865531,0.9186802,17.41276,-24.50371,-8.539935,1004.614
15.270035267,-10.27322,-2.661567,45.46744,-0.04981996,0.07983713,0.9238617,17.0414,-24.51611,-8.9819,1004.614
15.289860249,-9.109787,-2.601054,44.0607,-0.05479771,0.1002628,0.9239938,17.0414,-24.51611,-8.9819,1004.61
15.309684753,-9.844589,-3.327207,42.95978,-0.04646588,0.08324096,0.9146899,16.2995,-24.5325,-9.422478,1004.61
15.329509258,-8.068818,-5.142588,43.51024,-0.06591514,0.08949842,0.9264128,16.2995,-24.5325,-9.422478,1004.613
15.351812363,-8.80362,-6.957969,40.88026,-0.08588893,0.09817041,0.9309108,16.2995,-24.5325,-9.422478,1004.613
15.371637344,-9.783356,-10.40719,40.57444,-0.06343536,0.09150089,0.9437859,14.1446,-24.914,-8.964546,1004.614
15.391461849,-5.007145,-10.64924,44.0607,-0.04779971,0.08381173,0.9523491,14.1446,-24.914,-8.964546,1004.614
15.411286354,-3.598775,-7.078995,46.44604,-0.06967639,0.115481,1.007174,13.78474,-25.6598,-9.393551,1004.618
15.431111336,-9.844589,-6.292329,45.71209,-0.1052115,0.1309175,1.023376,13.78474,-25.6598,-9.393551,1004.618
15.450935841,-11.06926,-7.260533,49.443,-0.1018313,0.1314068,1.017086,13.78474,-25.6598,-9.393551,1004.62
15.470761299,-9.660889,-5.082076,54.58065,-0.07195845,0.1043312,1.032711,12.67723,-26.05528,-10.26961,1004.62
15.490585804,-3.353841,4.418419,58.37272,-0.09768111,0.1262348,1.084611,12.67723,-26.05528,-10.26961,1004.623
15.510410786,-12.04899,11.80097,58.25039,-0.1445751,0.1012583,1.12625,11.58274,-27.09778,-9.803736,1004.623
15.530235291,-9.415955,7.383542,59.84062,-0.2038393,0.07997834,1.111985,11.58274,-27.09778,-9.803736,1004.618
15.550059796,-2.251639,-7.744634,69.44312,-0.1673597,0.04106081,1.048837,11.58274,-27.09778,-9.803736,1004.618
15.569884777,15.99594,-16.82154,84.06095,-0.07934804,0.02341814,1.014477,10.47112,-27.10973,-9.799571,1004.621
15.589709282,15.68977,-6.715919,86.32396,-0.08692036,0.1097125,1.075296,10.47112,-27.10973,-9.799571,1004.621
15.609534264,-3.537542,8.351745,74.2138,-0.1691736,0.1297743,1.090813,7.581727,-27.85748,-8.889029,1004.621
15.631836891,-14.13093,9.622512,70.2994,-0.2309264,0.07128683,0.9986589,7.581727,-27.85748,-8.889029,1004.621
15.651661873,-2.190405,-3.569258,80.63586,-0.203267,0.06063123,0.9627346,7.581727,-27.85748,-8.889029,1004.617
15.671486378,11.21972,-10.28617,92.80718,-0.1570632,0.04718372,0.940692,5.733964,-28.25251,-9.318961,1004.617
15.691311836,9.566421,-4.900537,91.82858,-0.1440011,0.08484564,0.9823244,5.733964,-28.25251,-9.318961,1004.618
15.711136341,-3.904943,1.816373,83.20467,-0.1357741,0.07361534,0.9518129,4.624,-28.24762,-8.428089,1004.618
15.730960846,-6.109347,5.689186,80.75818,-0.1265178,0.04727549,0.9130126,4.624,-28.24762,-8.428089,1004.624
15.750785828,-2.680273,5.084059,84.73373,-0.1187453,0.04828727,0.91201,4.624,-28.24762,-8.428089,1004.624
15.770610333,-0.1084674,4.66047,88.58698,-0.1065124,0.0332485,0.9089697,1.732132,-29.02063,-8.847609,1004.623
15.790435314,-1.271903,5.144571,88.46465,-0.09580154,0.04504513,0.9316575,1.732132,-29.02063,-8.847609,1004.623
15.810259819,-5.129612,8.654308,84.7949,-0.09476403,0.03287471,0.930624,0.2401285,-28.28633,-7.968307,1004.627
15.830085278,-6.782916,7.504567,82.71538,-0.09128299,0.01241455,0.9193982,0.2401285,-28.28633,-7.968307,1004.627
15.849909783,-1.02697,2.724063,86.01815,-0.08055158,0.007604191,0.9207628,0.2401285,-28.28633,-7.968307,1004.625
15.869733811,2.953206,-0.846186,88.22,-0.0551303,7.552793E-06,0.9466493,-2.286956,-28.68866,-8.395695,1004.625
15.889559269,-0.6595686,-0.1805463,85.59001,-0.05611959,0.02003439,0.9747528,-2.286956,-28.68866,-8.395695,1004.625
15.911862374,-4.578511,2.118936,81.92027,-0.06715094,-0.007290102,0.9751557,-5.261934,-27.97871,-7.954195,1004.625
15.931686878,-3.047674,2.663551,82.16492,-0.09630974,0.003817911,0.9999889,-5.261934,-27.97871,-7.954195,1004.627
15.951511383,-3.415075,3.510728,80.69701,-0.1351838,0.006083992,1.013728,-5.261934,-27.97871,-7.954195,1004.627
15.971336365,-4.945911,-1.269775,79.22912,-0.1502975,0.01917871,1.024497,-6.374373,-27.99908,-8.393384,1004.629
15.991160870,-4.639744,-9.923092,79.84074,-0.1053941,-0.02349534,1.000864,-6.374373,-27.99908,-8.393384,1004.629
16.010985851,1.116202,-13.43283,82.3484,-0.0198192,-0.01817726,1.002836,-8.917059,-27.28449,-7.953504,1004.625
16.030810356,0.6263342,-4.416436,81.12515,0.006973016,0.006436287,1.05591,-8.917059,-27.28449,-7.953504,1004.625
16.050635815,-7.456484,3.813292,76.47681,-0.01828967,0.01952385,1.085559,-8.917059,-27.28449,-7.953504,1004.621
16.070460320,-16.02917,10.89328,71.278,-0.1045367,0.05122475,1.090055,-10.79179,-25.89874,-7.971403,1004.621
16.090284824,-22.15252,6.778414,66.93546,-0.1401695,0.04410338,1.040498,-10.79179,-25.89874,-7.971403,1004.625
16.110109806,-13.1512,-7.805147,71.64497,-0.1033723,0.01386747,0.9421577,-12.28627,-25.1897,-8.422164,1004.625
16.129934311,-1.761771,-15.79282,75.86518,-0.0379723,0.02966932,0.8926478,-12.28627,-25.1897,-8.422164,1004.625
16.149759293,2.218405,-6.110791,70.60521,0.0003795414,0.039108,0.8876595,-12.28627,-25.1897,-8.422164,1004.625
16.169586659,-4.945911,10.95379,58.25039,-0.003007245,0.07625718,0.9539958,-13.72392,-24.10488,-8.436282,1004.621
16.191886902,-10.64062,23.47992,47.4858,-0.05793815,0.09310067,0.9896185,-13.72392,-24.10488,-8.436282,1004.621
16.211711407,-8.191285,18.03378,50.11579,-0.06986395,0.03356148,0.9599346,-15.211,-23.7457,-7.993855,1004.624
16.231536388,5.892412,6.838927,59.22899,-0.03135287,0.02013697,0.9639989,-15.211,-23.7457,-7.993855,1004.624
16.251360893,7.729416,6.89944,61.30852,0.008571795,0.03895312,1.007801,-15.211,-23.7457,-7.993855,1004.624
16.271185398,-4.149877,12.04302,53.05159,-0.0009464656,0.01020822,1.021703,-16.71123,-22.66996,-8.451096,1004.624
16.291010857,-9.171021,13.01122,46.44604,-0.03985678,0.0007154588,1.005456,-16.71123,-22.66996,-8.451096,1004.624
16.310835362,-9.538422,7.14149,42.95978,-0.06039548,0.01812848,1.001314,-17.08669,-22.29883,-8.012834,1004.624
16.330660343,-4.762211,0.5456061,45.22279,-0.04348872,0.01813455,0.9674339,-17.08669,-22.29883,-8.012834,1004.624
16.350484848,0.993735,-4.597974,48.4644,-0.01254686,0.04456377,0.9567813,-17.08669,-22.29883,-8.012834,1004.628
16.370309830,-1.639304,-2.782593,44.42768,0.0142627,0.02519124,0.9425374,-17.85639,-20.54285,-8.484732,1004.628
16.390134335,-2.925207,2.845089,38.80073,0.02247797,0.03399633,0.9415722,-17.85639,-20.54285,-8.484732,1004.628
16.409958840,-2.557806,5.568161,34.03006,-0.0128342,0.01341567,0.963863,-18.22693,-20.54684,-8.483343,1004.628
16.429783821,0.1364664,4.176368,30.17683,-0.0278748,0.01874068,0.9832799,-18.22693,-20.54684,-8.483343,1004.626
16.449608326,2.830739,-0.5436226,27.73033,-0.0351114,0.009456053,0.9852025,-18.22693,-20.54684,-8.483343,1004.626
16.471911430,2.830739,-5.989766,23.51012,0.005066874,0.03544149,0.9725664,-18.92433,-19.46247,-8.943592,1004.626
16.491735935,5.157611,-4.96105,21.55292,0.02600024,0.02823178,0.9666227,-18.92433,-19.46247,-8.943592,1004.626
16.511561394,3.565541,-1.209262,18.43363,0.02841082,0.04436209,0.9869648,-19.29896,-19.08292,-8.061975,1004.626
16.531385899,3.136906,-1.814389,15.31435,0.001177112,0.05644347,1.007448,-19.29896,-19.08292,-8.061975,1004.626
16.551210880,0.5038673,-0.5436226,11.70576,-0.02412543,0.07194692,1.029387,-19.29896,-19.08292,-8.061975,1004.628
16.571035385,-5.80318,-0.3620844,9.136941,-0.04886812,0.07137264,1.046413,-19.30554,-18.72465,-8.511809,1004.628
16.590859890,-4.762211,-2.903618,10.666,-0.03946808,0.04904654,1.056383,-19.30554,-18.72465,-8.511809,1004.626
16.610684872,3.075673,-1.511826,12.19506,-0.05019174,0.06070665,1.068569,-19.681,-18.35351,-8.073547,1004.626
16.630509377,-2.190405,-1.935415,10.42135,-0.07590332,0.05621906,1.080271,-19.681,-18.35351,-8.073547,1004.624
16.650334835,0.993735,-14.46154,13.72412,0.009035033,-0.04529068,1.004952,-19.681,-18.35351,-8.073547,1004.624
16.670158863,12.93426,-6.53438,12.1339,0.0254679,-0.01839028,1.018998,-20.04744,-18.74103,-8.952387,1004.626
16.689984322,0.2589334,7.746618,-0.8937021,-0.05440677,0.03586726,1.075222,-20.04744,-18.74103,-8.952387,1004.626
16.709808827,1.60607,3.389703,-5.358562,-0.09232533,-0.01027222,1.004239,-20.04744,-18.74103,-8.952387,1004.624
16.729633331,12.62809,-4.174385,1.369309,-0.08705331,-0.009322243,0.9829769,-20.42712,-17.98757,-7.697234,1004.624
16.749458313,18.56774,-4.537461,3.876969,-0.07262126,0.03219458,1.004832,-20.42712,-17.98757,-7.697234,1004.628
16.771761418,10.72986,4.478932,0.3295469,-0.08492919,0.07064557,1.024404,-21.16315,-18.36944,-8.067994,1004.628
16.791585922,1.728537,3.99483,0.3295469,-0.09211585,0.04037513,1.006429,-21.16315,-18.36944,-8.067994,1004.63
16.811410427,3.136906,1.271759,3.938132,-0.09366179,0.03590558,0.9735919,-19.6918,-17.61291,-7.70649,1004.63
16.831235409,2.953206,-1.874902,7.791367,-0.09378075,0.04804237,0.9586918,-19.6918,-17.61291,-7.70649,1004.624
16.851059914,3.259373,-7.744634,10.42135,-0.0558459,0.01744057,0.9081285,-19.6918,-17.61291,-7.70649,1004.624
16.870885372,4.97391,-8.773351,12.07274,-0.01171985,0.0273542,0.8857347,-20.05588,-17.97637,-7.318604,1004.624
16.890709877,6.137346,-7.018482,11.6446,0.04131634,-0.004129358,0.8408762,-20.05588,-17.97637,-7.318604,1004.624
16.910534859,1.299902,-4.113872,8.097179,0.03310901,0.00564837,0.8747589,-20.05588,-17.97637,-7.318604,1004.624
16.930359364,-1.02697,-0.3015717,5.039056,0.03119378,0.007615294,0.8868464,-20.42641,-17.98035,-7.317216,1004.624
16.950183869,1.544836,-1.572338,6.078818,0.02651651,-0.01476504,0.9046162,-20.42641,-17.98035,-7.317216,1004.627
16.970008850,1.483603,-2.177466,6.445793,0.0168513,-0.00401633,0.9404425,-19.69684,-17.23899,-7.332952,1004.627
16.989833355,2.647039,-0.7251607,5.589519,0.01108649,0.002359651,0.9718808,-19.69684,-17.23899,-7.332952,1004.625
17.009658337,1.054968,0.1220172,3.509995,-0.0009341307,-0.004938003,1.000387,-19.69684,-17.23899,-7.332952,1004.625
17.029482841,2.340871,-0.5436226,1.430471,-0.01016931,0.005284119,1.018832,-20.80845,-17.25094,-7.328788,1004.619
17.051785946,-0.2921678,-1.753877,-0.1597527,-0.006249558,0.01510251,1.043478,-20.80845,-17.25094,-7.328788,1004.619
17.071610451,1.422369,-4.779512,0.5130343,0.00739972,0.002974086,1.032722,-21.18474,-16.88823,-7.333879,1004.619
17.091435909,6.321046,-5.021563,2.347908,0.0005139718,0.03319379,1.059945,-21.18474,-16.88823,-7.333879,1004.619
17.111260414,4.728976,-7.684122,3.020695,-0.003320499,0.02490297,1.062819,-21.18474,-16.88823,-7.333879,1004.617
17.131084919,4.116642,-9.43899,3.326507,0.005840064,0.03124917,1.049769,-20.80845,-17.25094,-7.328788,1004.617
17.150909901,0.7488011,-8.833863,4.977894,-0.003486955,0.03993904,1.038763,-20.80845,-17.25094,-7.328788,1004.619
17.170734406,1.299902,-12.8277,9.503916,-0.01213675,0.0233465,1.042104,-20.80845,-17.25094,-7.328788,1004.619
17.190559387,0.8100346,-12.58565,12.74553,-0.008740397,0.03949122,1.066302,-20.80845,-17.25094,-7.328788,1004.617
17.210383892,-2.435339,-8.168223,13.54064,-0.03794984,0.0637626,1.097961,-20.80845,-17.25094,-7.328788,1004.617
17.230208397,-13.57983,-2.903618,10.29903,-0.1037639,0.09606316,1.105245,-21.18967,-16.51311,-6.897006,1004.617
17.250033379,-18.35604,-2.05644,7.057417,-0.1384421,0.08893394,1.050373,-21.18967,-16.51311,-6.897006,1004.617
17.269857884,-9.722122,-8.894376,11.58344,-0.1244794,0.06006277,0.961335,-22.31196,-15.78325,-6.462447,1004.611
17.289683342,0.5038673,-13.06975,17.39387,-0.07211877,0.05679606,0.9074543,-22.31196,-15.78325,-6.462447,1004.611
17.309507847,5.831179,-5.142588,14.5804,-0.03761797,0.08237569,0.9407017,-22.31196,-15.78325,-6.462447,1004.616
17.331810951,-9.048554,14.03994,1.491634,-0.07314602,0.09683952,0.9573815,-22.66607,-16.89574,-6.884973,1004.616
17.351635456,-9.477188,13.67686,-2.239276,-0.09581383,0.06312461,0.9578151,-22.66607,-16.89574,-6.884973,1004.614
17.371460438,-0.3534013,6.89944,3.38767,-0.08030338,0.05192387,0.9238852,-23.04811,-16.16633,-6.896544,1004.614
17.391284943,8.341751,1.816373,10.48252,-0.04484041,0.06967907,0.9411587,-23.04811,-16.16633,-6.896544,1004.616
17.411109924,2.279638,3.934317,10.78833,0.004748718,0.06552418,0.928799,-23.04811,-16.16633,-6.896544,1004.616
17.430934429,-0.2309344,7.14149,11.27763,0.0218796,0.03342486,0.9077851,-23.04811,-16.16633,-6.896544,1004.616
17.450758934,-1.945472,7.504567,10.84949,0.01170211,0.02704199,0.9078081,-23.04811,-16.16633,-6.896544,1004.616
17.470583916,-4.578511,7.746618,7.057417,-0.002642292,-0.002190401,0.9318703,-23.05961,-15.43294,-6.909504,1004.616
17.490408421,-8.252519,6.475851,2.225583,-0.009851692,-0.01927754,0.9289259,-23.05961,-15.43294,-6.909504,1004.616
17.510233879,-3.598775,1.876886,-0.2820776,0.0004036492,-0.03239391,0.9196316,-23.05961,-15.43294,-6.909504,1004.618
17.530058384,0.1976999,1.453297,-3.8295,0.007601619,-0.01238171,0.9240391,-23.80069,-15.44091,-6.906728,1004.618
17.549883366,-0.5983351,1.332271,-8.967146,0.006030531,0.01881843,0.9425497,-23.80069,-15.44091,-6.906728,1004.618
17.569707871,-0.7820356,-0.3620844,-9.701096,-0.008645307,0.04410285,0.959171,-23.8063,-15.14375,-7.355482,1004.618
17.589532375,-0.4146348,-5.082076,-9.578771,-0.02950609,0.04452021,0.9752157,-23.8063,-15.14375,-7.355482,1004.614
17.611835480,-0.4758682,-7.684122,-11.78062,-0.03828935,0.05618688,0.9859426,-23.8063,-15.14375,-7.355482,1004.614
17.631659985,0.8100346,-10.95181,-11.10783,-0.02321205,0.0557768,0.9853752,-24.11919,-14.76353,-6.474097,1004.616
17.651484966,0.993735,-12.46463,-9.395284,-0.008743553,0.08754225,1.00187,-24.11919,-14.76353,-6.474097,1004.616
17.671309471,-1.21067,-8.228736,-9.578771,-0.02612809,0.07482911,1.017346,-23.42357,-15.7952,-6.458282,1004.616
17.691134930,-5.374546,-6.594893,-10.86318,-0.06537995,0.06299295,1.039703,-23.42357,-15.7952,-6.458282,1004.616
17.710959435,-1.639304,-12.94873,-10.55737,-0.03450428,0.01052265,1.022371,-23.42357,-15.7952,-6.458282,1004.62
17.730784416,7.484482,-10.40719,-8.477847,-0.00924464,0.01209906,1.015966,-23.42275,-15.78678,-6.014929,1004.62
17.750608921,11.21972,-5.384639,-8.294359,-0.02285069,0.02768048,1.045081,-23.42275,-15.78678,-6.014929,1004.611
17.770433426,7.79065,-3.750796,-12.63689,-0.01921154,-0.01808804,1.038551,-23.78836,-16.16588,-6.450414,1004.611
17.790258408,11.95453,-1.14875,-14.96107,-0.02022505,-0.009322569,1.041015,-23.78836,-16.16588,-6.450414,1004.611
17.810082913,12.56686,3.813292,-13.67666,-0.01865429,-0.02634566,1.045746,-23.78836,-16.16588,-6.450414,1004.611
17.829907894,16.60827,13.13225,-10.55737,-0.07952346,0.01874909,1.097957,-24.47343,-15.80649,-6.454349,1004.611
17.849732399,11.09726,18.69942,-12.63689,-0.1559599,0.07549285,1.168173,-24.47343,-15.80649,-6.454349,1004.611
17.869556904,3.626774,17.36814,-11.96411,-0.1974084,0.07031124,1.127828,-23.78753,-16.15746,-6.007061,1004.607
17.891860008,8.341751,2.360987,-1.749977,-0.1604813,0.033324,1.056482,-23.78753,-16.15746,-6.007061,1004.607
17.911685467,14.6488,-3.932334,4.366269,-0.1179451,0.02749265,0.9698202,-23.78753,-16.15746,-6.007061,1004.605
17.931509972,12.87303,-5.263614,2.531395,-0.06278674,0.05397623,0.929592,-23.41782,-16.1619,-6.451802,1004.605
17.951334477,4.97391,-5.203101,-4.196475,0.0213191,0.008436861,0.8449117,-23.41782,-16.1619,-6.451802,1004.601
17.971159458,8.280518,-3.327207,-4.808099,0.08888136,-0.01421709,0.795675,-23.41207,-16.52859,-6.445323,1004.601
17.990983963,12.44439,-0.1805463,-3.523688,0.1009903,0.01465405,0.8285791,-23.41207,-16.52859,-6.445323,1004.596
18.010808945,6.259813,5.205084,-8.416684,0.06939881,0.02917084,0.8587527,-23.41207,-16.52859,-6.445323,1004.596
18.030633450,4.300342,8.654308,-10.49621,0.01641218,0.04944576,0.8996918,-23.79329,-15.79077,-6.01354,1004.596
18.050457954,1.728537,3.450216,-9.334121,-0.006762712,0.05237891,0.9543765,-23.79329,-15.79077,-6.01354,1004.599
18.070282936,0.3814003,0.7271442,-6.765298,-0.01996878,0.06839001,0.9588751,-22.66934,-16.50379,-5.561391,1004.599
18.090107441,0.4426338,0.2430426,-1.444164,-0.02669691,0.07721198,0.9970887,-22.66934,-16.50379,-5.561391,1004.593
18.109932900,0.8712681,-6.352842,2.286746,-0.01768133,0.0334458,1.001641,-22.66934,-16.50379,-5.561391,1004.593
18.129757404,0.6875677,-10.28617,2.776045,-0.001638557,0.02814691,0.9909074,-23.04071,-16.51619,-6.003357,1004.595
18.149582386,0.5651007,-11.19386,2.531395,0.02076341,0.006285464,0.9636425,-23.04071,-16.51619,-6.003357,1004.595
18.169406891,-1.884238,-7.502584,0.6965217,0.03870974,0.0219883,0.9752093,-23.03413,-16.87447,-5.553523,1004.593
18.191709995,-4.578511,-4.113872,-2.545089,0.01679734,0.04092134,0.998595,-23.03413,-16.87447,-5.553523,1004.593
18.211534500,-7.089083,-2.782593,-3.707175,0.007624444,0.04972136,1.032961,-23.03413,-16.87447,-5.553523,1004.59
18.231359482,-4.823445,-2.177466,-0.9548646,0.003809465,0.02971154,1.02226,-23.42192,-15.77836,-5.571575,1004.59
18.251183987,-2.006705,-1.14875,2.164421,-0.02331183,0.03111808,1.058134,-23.42192,-15.77836,-5.571575,1004.59
18.271008492,-1.516837,-3.38772,5.773006,-0.01484772,0.01516852,1.089379,-23.40384,-16.87003,-5.108781,1004.59
18.290833473,-2.80274,-1.814389,5.589519,-0.03821228,0.05169829,1.143755,-23.40384,-16.87003,-5.108781,1004.586
18.310657978,-10.70186,-0.9066988,2.531395,-0.1021469,0.1010724,1.159804,-23.40384,-16.87003,-5.108781,1004.586
18.330483437,-13.64106,-7.805147,3.020695,-0.08745617,0.05135503,1.107339,-23.78096,-16.51574,-5.557227,1004.582
18.350307942,-5.497013,-8.047197,6.201143,-0.1058371,0.1018282,1.07729,-23.78096,-16.51574,-5.557227,1004.582
18.370132446,-7.39525,-6.776431,4.121619,-0.1126736,0.09590654,1.059438,-23.78671,-16.14904,-5.563706,1004.582
18.389957428,-5.313313,-4.597974,3.081857,-0.1036874,0.1001726,0.9918359,-23.78671,-16.14904,-5.563706,1004.582
18.409781933,-3.782475,0.7876569,2.89837,-0.09882852,0.09921692,0.9889084,-23.78671,-16.14904,-5.563706,1004.576
18.429606915,-2.496573,2.360987,2.103258,-0.1017211,0.08259834,0.9690491,-24.17354,-15.11405,-5.580678,1004.576
18.449431419,1.78977,-1.632851,3.204182,-0.06519167,0.05007177,0.9310331,-24.17354,-15.11405,-5.580678,1004.576
18.471734524,4.97391,-1.814389,5.161381,-0.01720977,0.07269135,0.9193024,-23.44314,-14.36428,-5.153061,1004.576
18.491559029,-0.04723396,1.634835,5.528356,0.0192245,0.07334009,0.9080047,-23.44314,-14.36428,-5.153061,1004.571
18.511384487,-6.660449,3.813292,6.506955,0.01050909,0.05523404,0.8896176,-23.44314,-14.36428,-5.153061,1004.571
18.531208515,-4.639744,1.816373,8.219504,0.008185573,0.01472236,0.8546694,-24.18504,-14.38066,-5.593638,1004.569
18.551033020,-3.047674,1.271759,8.280666,0.01010572,0.01275895,0.8440298,-24.18504,-14.38066,-5.593638,1004.569
18.570858479,-3.598775,3.08714,3.876969,0.007164949,0.02299387,0.8542348,-23.44972,-14.006,-5.602895,1004.565
18.590682984,-3.231374,4.539444,1.491634,0.02075321,0.02353252,0.8464403,-23.44972,-14.006,-5.602895,1004.565
18.610507965,-3.782475,6.354825,-0.9548646,0.004783225,0.03523877,0.8890636,-23.44972,-14.006,-5.602895,1004.565
18.630332470,-3.353841,4.357906,-4.257637,0.01358754,0.04216429,0.9151156,-23.09643,-12.90193,-5.623723,1004.565
18.650157452,-1.455604,3.147652,-3.646013,0.019331,0.06901635,0.9321158,-23.09643,-12.90193,-5.623723,1004.561
18.669981957,-0.9045025,0.7271442,-2.912063,0.007758579,0.0700048,0.9630756,-22.72672,-12.90637,-6.068465,1004.561
18.689806461,-0.8432691,-4.416436,-1.994627,0.02187617,0.05933263,0.9494286,-22.72672,-12.90637,-6.068465,1004.561
18.709631920,-1.02697,-3.024643,-2.422764,0.03647931,0.06821731,0.967736,-22.72672,-12.90637,-6.068465,1004.561
18.729456425,-2.374106,-5.082076,-3.707175,0.03475985,0.04196956,0.9907791,-22.35536,-12.89397,-5.6265,1004.557
18.751759529,-0.7208021,-5.384639,-3.951825,0.03919099,0.04643078,1.013946,-22.35536,-12.89397,-5.6265,1004.557
18.771583557,-0.4146348,-3.266694,-4.685774,0.01203106,0.05856489,1.05615,-22.73165,-12.53126,-5.631591,1004.557
18.791409016,-2.190405,-2.540542,-5.909023,-0.02344792,0.06573074,1.075206,-22.73165,-12.53126,-5.631591,1004.557
18.811233521,0.1364664,-6.352842,-5.480886,-0.05993017,0.0718919,1.083643,-22.73165,-12.53126,-5.631591,1004.551
18.831058502,0.8712681,-12.76719,-1.933464,0.01519071,0.03039814,1.080605,-22.35536,-12.89397,-5.6265,1004.551
18.850883007,1.238669,-5.384639,-4.869262,0.01134073,0.04458435,1.115935,-22.35536,-12.89397,-5.6265,1004.551
18.870707512,-2.067938,2.724063,-10.31272,-0.02711203,0.04729535,1.111332,-21.98399,-12.88157,-5.184534,1004.551
18.890532494,0.5651007,-3.992847,-9.395284,-0.01078125,-0.02917303,1.067891,-21.98399,-12.88157,-5.184534,1004.547
18.910356999,11.46466,-3.992847,-5.480886,0.01815425,0.00844656,1.05779,-21.98399,-12.88157,-5.184534,1004.547
18.930182457,10.85232,5.084059,-5.358562,-0.01055812,0.02050633,1.07249,-21.61921,-12.51089,-5.192402,1004.547
18.950006962,8.954085,10.77225,-6.153673,-0.06862699,0.05428802,1.071533,-21.61921,-12.51089,-5.192402,1004.547
18.969831944,2.218405,17.1866,-7.009948,-0.1203508,0.07931904,1.062774,-21.98975,-12.51487,-5.191014,1004.547
18.989656448,0.6875677,14.58455,-4.869262,-0.1529128,0.0537448,1.027585,-21.98975,-12.51487,-5.191014,1004.547
19.009480953,9.015319,2.179449,2.164421,-0.1229561,0.05327213,0.9690147,-21.98975,-12.51487,-5.191014,1004.541
19.031784058,11.34219,-1.995928,4.060457,-0.0545991,0.04418444,0.8899173,-21.62169,-12.53615,-6.522464,1004.541
19.051608562,4.728976,-1.209262,0.2683845,-0.01094529,0.04628367,0.8587977,-21.62169,-12.53615,-6.522464,1004.543
19.071433544,5.525012,-1.088237,-5.358562,0.009515337,-0.00100635,0.7908678,-21.62086,-12.52773,-6.07911,1004.543
19.091258049,7.239549,3.571241,-8.722497,0.03761951,0.02253193,0.7990404,-21.62086,-12.52773,-6.07911,1004.545
19.111083031,4.728976,9.380461,-10.1904,0.01764346,0.06249012,0.8543803,-21.62086,-12.52773,-6.07911,1004.545
19.130907536,2.157171,11.49841,-9.884583,-0.01183518,0.06149281,0.9081138,-21.62003,-12.51931,-5.635756,1004.545
19.150732994,-0.4758682,10.59071,-7.743897,-0.03896472,0.05996023,0.9367325,-21.62003,-12.51931,-5.635756,1004.545
19.170557499,0.1364664,4.66047,-3.156713,-0.05490337,0.0487119,0.9507596,-21.9914,-12.53171,-6.077722,1004.545
19.190382004,1.361136,-2.480029,2.714883,-0.04274626,0.04632965,0.9463367,-21.9914,-12.53171,-6.077722,1004.545
19.210206986,-1.578071,-3.992847,4.243944,-0.03199512,0.04446661,0.9583352,-21.9914,-12.53171,-6.077722,1004.545
19.230031490,-4.639744,-4.658486,3.020695,-0.008037064,0.01143806,0.9411408,-20.88143,-12.5366,-6.968594,1004.545
19.249856472,-2.557806,-4.113872,2.225583,-0.01822536,0.01286942,0.9508574,-20.88143,-12.5366,-6.968594,1004.543
19.269680977,-2.312872,-4.658486,0.2683845,-0.03575953,0.04307007,0.9931015,-20.88143,-12.5366,-6.968594,1004.543
19.289505482,-1.700538,-6.473867,0.08489711,-0.05385556,0.06588116,1.001041,-21.62169,-12.53615,-6.522464,1004.543
19.311808586,-3.170141,-10.22566,3.265345,-0.01540944,0.05729894,0.9940286,-21.62169,-12.53615,-6.522464,1004.543
19.331633568,1.054968,-9.43899,8.402991,0.02115844,0.03995491,0.9922913,-21.2643,-11.81561,-7.42352,1004.543
19.351458073,-3.047674,-1.935415,7.424392,0.03074549,0.02362892,1.06697,-21.2643,-11.81561,-7.42352,1004.543
19.371282578,-10.15076,9.319948,1.002334,-0.01769251,0.04796016,1.164861,-22.01113,-11.45688,-7.427223,1004.544
19.391108036,-21.78511,13.79789,-4.991587,-0.1281312,0.09135734,1.225541,-22.01113,-11.45688,-7.427223,1004.544
19.410933018,-21.66265,0.4850934,-2.912063,-0.1429852,0.01126316,1.159084,-22.01113,-11.45688,-7.427223,1004.544
19.430757523,-4.823445,-12.94873,6.13998,-0.1231057,0.058399,1.076196,-21.27076,-11.45613,-7.810017,1004.544
19.450582028,0.5651007,-13.85642,8.769966,-0.05129667,0.05962934,1.028024,-21.27076,-11.45613,-7.810017,1004.544
19.470406532,2.463338,-6.836944,5.650681,-0.009730901,0.09192657,1.004794,-21.27076,-11.45613,-7.810017,1004.544
19.490231514,-7.762651,9.259436,-3.462525,-0.0341549,0.1010124,0.9885636,-20.91243,-10.72598,-8.204383,1004.542
19.510056019,-7.456484,14.64507,-4.379962,-0.06620159,0.07937244,0.9683554,-20.91243,-10.72598,-8.204383,1004.542
19.529881477,-4.088643,11.55892,-1.260677,-0.06234271,0.07594778,0.9533536,-20.54847,-10.36372,-8.655605,1004.542
19.549705505,3.871708,7.746618,5.344869,-0.01581007,0.09123367,0.9324222,-20.54847,-10.36372,-8.655605,1004.542
19.569530964,3.01444,5.991749,11.6446,0.01001952,0.09287237,0.950631,-20.54847,-10.36372,-8.655605,1004.546
19.591833115,-4.088643,7.686105,13.17366,0.01936596,0.06806359,0.9407989,-21.66173,-10.39251,-9.538148,1004.546
19.611658573,-5.252079,8.835846,16.10946,-0.009129649,0.03139108,0.9388359,-21.66173,-10.39251,-9.538148,1004.548
19.631483078,-8.252519,8.533283,13.35715,-0.06833088,0.01651143,0.9535639,-19.81069,-10.38943,-10.4318,1004.548
19.651307583,-7.517717,5.568161,9.503916,-0.07802609,-0.003560225,0.9298626,-19.81069,-10.38943,-10.4318,1004.548
19.671132565,-5.068378,1.634835,7.424392,-0.06783514,-0.009878402,0.9128805,-19.81069,-10.38943,-10.4318,1004.548
19.690957070,-0.3534013,-2.540542,4.305107,-0.03819061,-0.02587306,0.879814,-19.82935,-9.374517,-11.71688,1004.544
19.710782051,4.60651,-1.14875,0.08489711,-0.01931759,-0.0145979,0.8705978,-19.82935,-9.374517,-11.71688,1004.544
19.730606556,3.871708,0.364068,-7.499248,-0.0159256,0.002032565,0.8943159,-19.84167,-8.649548,-12.17319,1004.544
19.750432015,4.484043,-2.601054,-10.98551,-0.002441441,0.02058508,0.8856491,-19.84167,-8.649548,-12.17319,1004.544
19.770256519,8.831619,-7.563096,-10.43505,0.01502789,0.03873642,0.9039885,-19.84167,-8.649548,-12.17319,1004.544
19.790080548,9.321486,-5.384639,-10.12923,0.02565333,0.07198234,0.9369232,-19.83675,-9.024662,-12.61007,1004.544
19.809906006,2.524572,-0.4225971,-11.10783,0.01017847,0.0871195,0.9877669,-19.83675,-9.024662,-12.61007,1004.544
19.829730511,-2.557806,2.905602,-11.16899,-0.02324915,0.09534893,1.039639,-19.46857,-9.044736,-13.87818,1004.544
19.849555493,-6.109347,1.453297,-8.722497,-0.06497496,0.1040026,1.083353,-19.46857,-9.044736,-13.87818,1004.544
19.871858120,-4.762211,-0.3015717,-2.361601,-0.1110536,0.08478514,1.088333,-19.46857,-9.044736,-13.87818,1004.546
19.891683102,-5.864414,-9.499503,0.02373465,-0.1226207,0.07746658,1.107183,-18.40324,-10.08084,-14.30711,1004.546
19.911507607,-1.516837,-20.14974,1.736283,-0.01483396,-0.01317622,1.046758,-18.40324,-10.08084,-14.30711,1004.543
19.931332588,7.851883,-16.76103,1.613959,0.04067401,-0.02946347,1.038648,-18.40969,-9.792101,-15.19922,1004.543
19.951157093,1.299902,-10.16514,-8.416684,0.06066534,-0.03567858,1.043333,-18.40969,-9.792101,-15.19922,1004.543
19.970981598,0.9325016,-2.903618,-17.28524,0.09189163,-0.06331086,1.027092,-18.40969,-9.792101,-15.19922,1004.543
19.990807056,5.586245,8.412257,-19.73174,0.02895862,-0.01439993,1.050856,-18.04655,-9.438261,-16.09379,1004.546
20.010631561,5.892412,12.22456,-19.85406,-0.06256908,0.02318904,1.085338,-18.04655,-9.438261,-16.09379,1004.546
20.030456543,5.586245,16.09737,-19.3036,-0.1668421,0.08312867,1.127244,-17.30701,-9.445932,-16.91994,1004.544
20.050281048,-0.8432691,16.15788,-21.01615,-0.2456665,0.101759,1.147561,-17.30701,-9.445932,-16.91994,1004.544
20.070109367,-3.415075,6.959952,-18.8143,-0.2229902,0.08805948,1.071586,-17.30701,-9.445932,-16.91994,1004.546
20.089930534,11.15849,-3.38772,-5.480886,-0.1464798,0.07942181,0.9596242,-17.28827,-10.88528,-18.66852,1004.546
20.109755039,14.34263,-7.018482,1.919771,-0.08395571,0.09328312,0.9192908,-17.28827,-10.88528,-18.66852,1004.546
20.129580021,12.62809,-5.203101,1.002334,-0.03698602,0.1026698,0.8741929,-15.80682,-10.87656,-19.05409,1004.546
20.149404526,4.177875,-1.027724,-2.973226,-0.0145503,0.07301057,0.8439916,-15.80682,-10.87656,-19.05409,1004.542
20.171707630,0.5038673,5.689186,-5.480886,-0.00874933,0.07252691,0.8328558,-15.80682,-10.87656,-19.05409,1004.542
20.191532135,0.993735,7.80713,-2.606251,-0.02815967,0.08565638,0.8672997,-15.0674,-10.88544,-19.94357,1004.54
20.211357594,2.769506,5.628673,1.369309,-0.04259009,0.07738402,0.900641,-15.0674,-10.88544,-19.94357,1004.54
20.231182098,-1.149436,5.205084,2.959532,-0.05611603,0.07835653,0.929198,-15.0748,-10.53558,-20.83676,1004.542
20.251006603,-1.149436,2.784576,4.977894,-0.05648042,0.04715334,0.9135941,-15.0748,-10.53558,-20.83676,1004.542
20.270831585,0.9325016,0.5456061,7.913692,-0.04025821,0.01802796,0.9162518,-15.0748,-10.53558,-20.83676,1004.542
20.290656090,2.034704,-3.932334,7.179742,-0.02029243,0.02108317,0.9287078,-13.95251,-11.26544,-21.27132,1004.542
20.310481072,2.402105,-3.871821,6.323468,0.01380125,0.008095982,0.921697,-13.95251,-11.26544,-21.27132,1004.546
20.330305576,-0.5371017,-1.088237,5.406031,0.006049098,0.01785396,0.9464061,-13.59091,-10.92724,-22.98926,1004.546
20.350130558,1.299902,-1.572338,4.977894,-0.006519005,0.01442106,0.963351,-13.59091,-10.92724,-22.98926,1004.546
20.369955063,0.9325016,-0.6646479,6.13998,-0.03913208,0.04649726,1.008101,-13.59091,-10.92724,-22.98926,1004.546
20.389779568,-2.435339,-4.05336,6.996255,-0.04542036,0.05479967,1.031829,-12.91734,-10.55324,-22.99829,1004.542
20.409605026,-1.455604,-6.715919,10.29903,-0.01566505,0.02812899,1.01367,-12.91734,-10.55324,-22.99829,1004.542
20.429429531,-1.02697,-5.142588,13.72412,-0.03116236,0.04080575,1.053882,-12.91159,-10.91994,-22.99181,1004.542
20.451732636,-0.3534013,-3.629771,15.49784,-0.04412686,0.05601174,1.127881,-12.91159,-10.91994,-22.99181,1004.542
20.471557140,-4.700978,-0.241059,16.10946,-0.08808014,0.1265404,1.19075,-12.91159,-10.91994,-22.99181,1004.542
20.491382122,-17.49877,-1.269775,15.62016,-0.1313957,0.1282489,1.184721,-12.17216,-10.92881,-23.88129,1004.542
20.511206627,-15.723,-7.139507,19.71805,-0.1402516,0.1061315,1.118528,-12.17216,-10.92881,-23.88129,1004.542
20.531031609,-9.109787,-15.55077,24.97802,-0.09964711,0.09638878,1.029443,-11.05562,-11.29198,-24.32233,1004.542
20.550856114,-1.945472,-15.36924,27.1187,-0.03171675,0.06191991,0.926084,-11.05562,-11.29198,-24.32233,1004.54
20.570680618,3.871708,-3.448232,24.06058,-0.004539597,0.06788637,0.9187256,-11.05562,-11.29198,-24.32233,1004.54
20.590506077,-7.517717,18.27583,8.953453,-0.0638289,0.08374273,0.9582286,-11.07441,-10.20753,-25.16514,1004.542
20.610330105,-11.00803,26.20299,1.246984,-0.132137,0.03908944,0.9632,-11.07441,-10.20753,-25.16514,1004.542
20.630155564,-1.088203,17.79173,2.89837,-0.1172849,-0.007090539,0.9638468,-10.7006,-10.5955,-26.49011,1004.54
20.649980068,13.05673,7.14149,9.993216,-0.07018299,0.001901835,0.9568776,-10.7006,-10.5955,-26.49011,1004.54
20.669805050,9.443954,6.415338,7.913692,-0.0251058,0.03331548,0.9635497,-10.7006,-10.5955,-26.49011,1004.54
20.689629555,-0.5371017,9.077897,3.081857,0.01477176,0.01054384,0.9250829,-9.229815,-9.915712,-26.9509,1004.54
20.709454060,0.3201669,9.017385,4.672081,0.02980853,0.00472721,0.9037329,-9.229815,-9.915712,-26.9509,1004.54
20.731757164,-2.312872,8.47277,5.283706,0.01113135,0.04506739,0.9127305,-7.744405,-10.221,-27.77442,1004.54
20.751581669,-7.272783,8.412257,3.876969,-0.003908793,0.04501515,0.9234315,-7.744405,-10.221,-27.77442,1004.539
20.771406651,-8.252519,6.415338,2.714883,-0.01158935,0.01962551,0.9112762,-7.744405,-10.221,-27.77442,1004.539
20.791231156,-6.293048,5.265597,2.776045,-0.02227386,0.01811405,0.9132577,-7.059334,-10.58039,-27.77049,1004.543
20.811056614,-3.904943,4.236881,0.1460596,-0.04314393,0.01901366,0.9273742,-7.059334,-10.58039,-27.77049,1004.543
20.830881119,-5.313313,4.055343,-4.869262,-0.05971393,0.03014727,0.9357276,-5.949372,-10.58528,-28.66136,1004.539
20.850705147,-2.741507,-1.209262,-6.153673,-0.04996404,0.01750359,0.9216116,-5.949372,-10.58528,-28.66136,1004.539
20.870530606,0.6263342,-7.381558,-7.376923,-0.02863626,0.03907416,0.936086,-5.949372,-10.58528,-28.66136,1004.539
20.890355110,1.177435,-9.075913,-8.477847,0.009669883,0.06167972,0.9393712,-4.844334,-10.21506,-29.11536,1004.539
20.910180092,2.585805,-8.5313,-5.664374,0.03110771,0.06035196,0.9484178,-4.844334,-10.21506,-29.11536,1004.543
20.930004597,4.60651,-9.317965,-3.340201,0.02346702,0.06872299,1.003528,-3.733546,-10.21153,-29.56288,1004.543
20.949829579,-3.353841,-4.537461,-4.808099,-0.01349956,0.09834894,1.051185,-3.733546,-10.21153,-29.56288,1004.541
20.969654083,-4.823445,-2.359004,-4.563449,-0.05276188,0.08161659,1.062416,-3.733546,-10.21153,-29.56288,1004.541
20.989478588,-2.251639,-1.874902,-1.016027,-0.112715,0.1056544,1.06335,-3.356432,-10.56582,-29.11443,1004.547
21.011781693,-2.61904,-8.349761,1.308146,-0.08626777,0.08147925,1.077561,-3.356432,-10.56582,-29.11443,1004.547
21.031607151,2.524572,-4.05336,-0.3432401,-0.06229376,0.0553063,1.07633,-2.975218,-11.30365,-29.54622,1004.547
21.051431656,-2.557806,0.7271442,-4.746937,-0.05046628,0.04374497,1.102754,-2.975218,-11.30365,-29.54622,1004.547
21.071256161,5.647479,-1.874902,-3.401363,-0.02702013,-0.01765895,1.031356,-2.975218,-11.30365,-29.54622,1004.551
21.091081142,13.05673,-3.750796,0.02373465,-0.007579406,-0.009745226,1.040461,-1.487315,-11.65441,-29.54529,1004.551
21.110905647,14.03646,1.271759,-1.872301,-0.03687854,0.01055107,1.039278,-1.487315,-11.65441,-29.54529,1004.552
21.130730629,9.321486,9.13841,-6.031348,-0.07820777,0.0122989,1.045305,-1.18511,-11.29282,-29.99628,1004.552
21.150555134,6.19858,14.16096,-6.214836,-0.1328771,0.05636112,1.059828,-1.18511,-11.29282,-29.99628,1004.557
21.170379639,3.320607,14.16096,-4.869262,-0.175788,0.07414647,1.056293,-1.18511,-11.29282,-29.99628,1004.557
21.190204620,2.463338,5.931237,-1.933464,-0.1788454,0.06963187,1.008019,0.3078346,-12.01749,-30.36889,1004.559
21.210029125,8.341751,-3.266694,4.182782,-0.1002238,0.05134547,0.928818,0.3078346,-12.01749,-30.36889,1004.559
21.229854584,12.93426,-5.505664,7.179742,-0.04690397,0.05785157,0.8870493,1.790694,-11.99434,-29.99442,1004.555
21.249679089,5.892412,-2.05644,2.776045,-0.00659331,0.0560659,0.8675123,1.790694,-11.99434,-29.99442,1004.555
21.269504070,2.708272,2.905602,-1.749977,0.0381208,0.03574468,0.8251702,1.790694,-11.99434,-29.99442,1004.555
21.291806698,3.504307,8.109694,-0.4044026,0.03000287,0.03043127,0.8604228,2.547491,-13.1021,-30.80113,1004.555
21.311631680,2.953206,10.5302,-1.383002,-0.02389784,0.05758723,0.9298804,2.547491,-13.1021,-30.80113,1004.555
21.331456184,-3.415075,10.65123,-3.279038,-0.0689829,0.04670058,0.9546878,3.281991,-12.73586,-31.25374,1004.555
21.351280689,-1.884238,2.603038,-0.465565,-0.07228962,0.03159768,0.9584897,3.281991,-12.73586,-31.25374,1004.559
