Time (s),Gyroscope X (deg/s),Gyroscope Y (deg/s),Gyroscope Z (deg/s),Accelerometer X (g),Accelerometer Y (g),Accelerometer Z (g),Magnetometer X (uT),Magnetometer Y (uT),Magnetometer Z (uT),Barometer (hPa)
0.000000000,0.2589334,0.0009917939,-0.2209152,-0.002913788,0.0008938522,0.9999453,29.41368,-4.762534,-28.76362,1003.445
0.009907722,0.3201669,0.0615045,-0.1597527,-0.004843819,-8.303369E-05,1.002847,29.40793,-4.395839,-28.7701,1003.445
0.029723644,0.07523298,0.0615045,-0.09859026,-0.007777638,0.0003794148,0.9990039,29.40793,-4.395839,-28.7701,1003.445
0.049539566,0.1976999,0.0615045,-0.03742781,-0.004859637,0.001861149,1.001409,29.40793,-4.395839,-28.7701,1003.444
0.069354534,0.2589334,0.0615045,-0.2209152,-0.001938428,-0.001054671,0.9975166,28.67332,-4.763283,-28.38082,1003.444
0.089170456,0.2589334,0.0009917939,-0.03742781,-0.005826847,0.000882266,1.001409,28.67332,-4.763283,-28.38082,1003.442
0.108986378,0.1364664,0.0009917939,-0.09859026,-0.008753552,0.00183867,1.000465,29.04385,-4.7593,-28.38221,1003.442
0.128801823,0.1976999,0.0615045,-0.1597527,-0.006283199,-0.00447642,1.001384,29.04385,-4.7593,-28.38221,1003.443
0.148617268,0.1976999,0.1220172,-0.09859026,-0.00193568,-7.496309E-05,0.999935,29.04385,-4.7593,-28.38221,1003.443
0.168432713,0.1976999,0.1825299,-0.1597527,-0.007775975,0.001847219,1.001908,29.40864,-4.388622,-28.39008,1003.442
0.188248634,0.1976999,0.1220172,-0.09859026,-0.003385384,-0.000564751,1.001871,29.40864,-4.388622,-28.39008,1003.442
0.208064556,0.07523298,0.1825299,-0.2820776,-0.006324122,-0.0001058178,0.9965801,29.40864,-4.388622,-28.39008,1003.443
0.230357170,0.2589334,0.0615045,0.02373465,-0.002910509,0.0008961956,1.000911,29.0381,-4.392605,-28.38869,1003.443
0.250172615,0.3201669,0.1220172,-0.2209152,-0.00243732,-0.0005772943,0.9946256,29.0381,-4.392605,-28.38869,1003.441
0.269988537,0.1976999,0.1220172,-0.2209152,-0.004853079,0.001865836,1.00334,29.0381,-4.392605,-28.38869,1003.441
0.289803982,0.1364664,0.1220172,-0.1597527,-0.006309941,-0.002051172,0.9975354,29.0381,-4.392605,-28.38869,1003.444
0.309619427,0.3201669,0.0615045,-0.1597527,-0.005380375,0.003300657,0.9936964,29.04303,-4.76772,-28.82557,1003.444
0.329435349,0.3201669,0.0009917939,-0.2820776,-0.006809874,0.001847566,0.9999716,29.04303,-4.76772,-28.82557,1003.443
0.349251270,0.3814003,0.1220172,-0.09859026,-0.005342733,-0.001072289,0.9975352,29.04303,-4.76772,-28.82557,1003.443
0.369067192,0.2589334,0.1825299,-0.1597527,-0.007775444,0.0008698551,1.000454,29.04303,-4.76772,-28.82557,1003.446
0.388882160,0.2589334,0.0009917939,-0.4044026,-0.01167536,0.001331957,0.9985476,29.04303,-4.76772,-28.82557,1003.446
0.408698082,0.1364664,0.0615045,-0.03742781,-0.003383767,-0.002030212,0.9999329,29.04303,-4.76772,-28.82557,1003.445
0.428514004,0.1364664,0.2430426,-0.1597527,-0.002918153,0.001379605,0.9994652,29.04385,-4.7593,-28.38221,1003.445
0.448329449,0.3201669,0.0615045,-0.1597527,-0.009241566,-0.001098283,0.9951429,29.04385,-4.7593,-28.38221,1003.444
0.468145371,0.2589334,0.1825299,-0.09859026,-0.00341977,0.002343906,0.9965767,29.0381,-4.392605,-28.38869,1003.444
0.487960339,0.07523298,0.1825299,-0.2209152,-0.004895663,0.004768634,0.9956319,29.0381,-4.392605,-28.38869,1003.447
0.510253906,0.2589334,0.1220172,-0.1597527,-0.002906168,-0.00105619,0.9989699,29.0381,-4.392605,-28.38869,1003.447
0.530068874,0.2589334,-0.241059,-0.2820776,-0.009730067,-0.0001246075,0.996116,29.04385,-4.7593,-28.38221,1003.446
0.549884796,0.3201669,0.0615045,-0.09859026,-0.005361831,0.0008695499,0.9951319,29.04385,-4.7593,-28.38221,1003.446
0.569700241,0.2589334,0.1220172,0.02373465,-0.005812135,-0.002040453,1.000911,29.04303,-4.76772,-28.82557,1003.445
0.589516163,0.3201669,0.0615045,-0.2209152,-0.01114756,-0.00254686,1.004317,29.04303,-4.76772,-28.82557,1003.445
0.609332085,0.1976999,0.3035553,-0.03742781,-0.005852504,0.002819418,0.9970752,29.04303,-4.76772,-28.82557,1003.443
0.629147053,0.07523298,0.1220172,-0.2209152,-0.00729461,-0.001087044,0.995615,28.66756,-4.396588,-28.3873,1003.443
0.648962975,0.2589334,0.0009917939,-0.2820776,-0.003443742,0.007215494,0.9975674,28.66756,-4.396588,-28.3873,1003.446
0.668778896,0.2589334,0.0615045,-0.1597527,-0.002915959,0.001870045,1.000916,28.66674,-4.405007,-28.83066,1003.446
0.688594818,0.2589334,0.0615045,-0.2820776,-0.007299484,0.001842705,0.9990088,28.66674,-4.405007,-28.83066,1003.445
0.708410263,0.2589334,0.1220172,-0.03742781,-0.003410418,0.006261567,1.005768,28.66674,-4.405007,-28.83066,1003.445
0.728226185,0.1976999,0.1825299,-0.2820776,-0.007749855,-0.005467194,0.9975258,29.40934,-4.381405,-28.01006,1003.442
0.748041630,0.2589334,0.0615045,-0.3432401,-0.003875547,-0.00105888,0.9999406,29.40934,-4.381405,-28.01006,1003.442
0.770334721,0.3201669,0.0009917939,-0.2209152,-0.004361877,-0.001061396,0.9999433,29.04385,-4.7593,-28.38221,1003.443
0.790150166,0.1364664,0.1220172,-0.2820776,-0.004334049,-0.003974741,1.003307,29.04385,-4.7593,-28.38221,1003.443
0.809965611,0.1364664,0.0615045,-0.1597527,-0.005332319,0.0008906421,1.00382,29.04385,-4.7593,-28.38221,1003.446
0.829781532,0.1364664,0.0009917939,-0.3432401,-0.003423072,0.0008749301,0.9931905,29.40864,-4.388622,-28.39008,1003.446
0.849596977,0.1976999,0.0009917939,-0.2820776,-0.008285789,0.002805662,0.9966058,29.40864,-4.388622,-28.39008,1003.447
0.869412899,0.1976999,0.1220172,-0.2209152,-0.007260179,-0.001062436,1.005751,29.40781,-4.397042,-28.83343,1003.447
0.889228821,0.3201669,0.0009917939,-0.2209152,-0.006322437,0.002828619,1.001905,29.40781,-4.397042,-28.83343,1003.448
0.909044743,0.1976999,0.0615045,-0.03742781,-0.006304447,-9.1756E-05,1.002372,29.40781,-4.397042,-28.83343,1003.448
0.928859711,0.1976999,0.1220172,-0.03742781,-0.007276552,0.000392478,1.003345,29.40781,-4.397042,-28.83343,1003.448
0.948675633,0.1364664,0.0615045,-0.2209152,-0.002906145,0.0004104427,1.001391,29.40781,-4.397042,-28.83343,1003.448
0.968491554,0.5038673,0.2430426,-0.1597527,-0.005823036,-9.275461E-05,1.000922,29.41356,-4.763737,-28.82695,1003.447
0.988306999,0.1364664,0.1220172,-0.1597527,-0.006341026,0.002326461,0.9956273,29.41356,-4.763737,-28.82695,1003.447
1.008122921,0.2589334,0.0615045,-0.2209152,-0.008751935,0.0003732096,0.9985266,29.41356,-4.763737,-28.82695,1003.445
1.027938843,0.1976999,0.0615045,-0.09859026,-0.006818072,0.001841707,0.9975582,29.40781,-4.397042,-28.83343,1003.445
1.050231457,0.2589334,0.1825299,-0.1597527,-0.003884254,0.001379258,1.001401,29.40781,-4.397042,-28.83343,1003.443
1.070046902,0.3201669,0.0009917939,-0.1597527,-0.00339633,-0.001550318,0.9970393,29.40781,-4.397042,-28.83343,1003.443
1.089862824,0.3201669,0.0009917939,-0.09859026,-0.004382083,-9.809365E-05,0.9956041,29.40781,-4.397042,-28.83343,1003.444
1.109677792,0.3201669,0.1825299,-0.3432401,-0.003414343,-9.657489E-05,0.9941509,29.40781,-4.397042,-28.83343,1003.444
1.129493713,0.3201669,0.1220172,-0.1597527,-0.003902267,0.002833001,0.9985127,29.04303,-4.76772,-28.82557,1003.443
1.149309635,0.3201669,0.2430426,-0.09859026,-0.006829572,0.0003668722,0.9917586,29.04303,-4.76772,-28.82557,1003.443
1.169125557,0.07523298,0.0615045,-0.2820776,-0.005330747,-0.003508084,0.9970399,29.42002,-5.123216,-28.44045,1003.45
1.188941479,0.1364664,0.0009917939,-0.2209152,-0.004413721,0.003790272,0.9927282,29.42002,-5.123216,-28.44045,1003.45
1.208756924,0.2589334,0.1220172,-0.1597527,-0.001946072,-0.0005712621,0.9960711,29.42002,-5.123216,-28.44045,1003.45
1.228572846,0.1976999,0.0615045,-0.2209152,-0.01116504,-0.002070482,0.9999753,28.67332,-4.763283,-28.38082,1003.45
1.248387814,0.1976999,0.1220172,-0.2820776,-0.009218657,-0.004015143,0.9970585,28.67332,-4.763283,-28.38082,1003.451
1.268203735,0.2589334,-0.05952091,-0.1597527,-0.007741634,-0.003994702,1.00236,29.04303,-4.76772,-28.82557,1003.451
1.288019657,0.3201669,0.0615045,-0.1597527,-0.001957503,0.0023538,0.9975342,29.04303,-4.76772,-28.82557,1003.452
1.310312748,0.07523298,0.1220172,-0.09859026,-0.00822526,-0.005950776,0.9999393,29.04303,-4.76772,-28.82557,1003.452
1.330127716,0.1976999,0.3035553,-0.2209152,-0.004366796,-0.001064912,0.9984952,29.0381,-4.392605,-28.38869,1003.451
1.349943638,0.0139995,0.0615045,-0.03742781,-0.006779853,-0.0005753387,1.004786,29.0381,-4.392605,-28.38869,1003.451
1.369759560,0.2589334,0.1220172,-0.09859026,-0.008758471,0.001835155,0.9990167,28.67249,-4.771703,-28.82418,1003.45
1.389575482,0.1976999,0.0009917939,-0.2209152,-0.00972457,0.001834808,1.000953,28.67249,-4.771703,-28.82418,1003.45
1.409390926,0.1976999,0.0009917939,-0.1597527,-0.004376057,0.0008839577,0.9989879,28.67249,-4.771703,-28.82418,1003.449
1.429206848,0.1976999,0.0615045,-0.09859026,-0.01357978,-0.004515345,1.000941,28.67249,-4.771703,-28.82418,1003.449
1.449022770,0.1976999,0.1825299,-0.465565,-0.004858575,-9.357976E-05,0.9985029,28.67249,-4.771703,-28.82418,1003.45
1.468838692,0.2589334,0.0009917939,-0.09859026,-0.006321374,0.0008738901,0.9989984,29.03248,-4.095445,-28.83744,1003.45
1.488653660,0.1976999,0.1825299,-0.1597527,-0.005307793,-0.003491679,1.003797,29.03248,-4.095445,-28.83744,1003.452
1.508469582,0.1364664,0.2430426,-0.03742781,-0.002900649,0.002369859,1.006228,29.03248,-4.095445,-28.83744,1003.452
1.528285504,0.2589334,0.1825299,-0.09859026,-0.008261218,0.001356606,1.001425,29.41427,-4.75652,-28.44693,1003.455
1.548100948,0.1364664,-0.05952091,-0.2820776,-0.006814239,0.002333319,0.9994914,29.41427,-4.75652,-28.44693,1003.455
1.567916870,0.2589334,0.1825299,-0.1597527,-0.006294631,-0.001551358,1.002847,29.41427,-4.75652,-28.44693,1003.455
1.590209484,0.1976999,0.1220172,-0.2209152,-0.002923072,0.001376089,0.9980171,29.40852,-4.389825,-28.45341,1003.455
1.610025406,0.2589334,0.0009917939,-0.1597527,-0.00386026,-0.002025699,1.002832,29.40852,-4.389825,-28.45341,1003.454
1.629840851,0.1364664,0.0009917939,-0.2209152,-0.004842179,-8.186186E-05,1.00333,29.40455,-4.075826,-28.01546,1003.454
1.649656773,0.1976999,0.0009917939,-0.09859026,-0.006318649,0.0003869655,0.9989959,29.40455,-4.075826,-28.01546,1003.456
1.669472695,0.2589334,0.0009917939,-0.3432401,-0.007277151,-0.003030055,0.9975357,29.40455,-4.075826,-28.01546,1003.456
1.689288616,0.1364664,0.1220172,-0.03742781,-0.006830104,0.001344236,0.9932115,29.04303,-4.76772,-28.82557,1003.457
1.709104538,0.2589334,0.1220172,-0.2209152,-0.005855229,0.003306343,0.9970777,29.04303,-4.76772,-28.82557,1003.457
1.728919983,0.1976999,0.1220172,-0.2209152,-0.006807748,-0.002061891,0.9941594,29.41356,-4.763737,-28.82695,1003.457
1.748735905,0.1364664,0.3035553,-0.2820776,-0.006797312,0.001367672,1.002865,29.41356,-4.763737,-28.82695,1003.457
1.768550873,0.2589334,0.3035553,-0.1597527,-0.002936211,-9.991694E-05,0.9917349,29.41356,-4.763737,-28.82695,1003.456
1.788366795,0.1364664,0.1825299,-0.09859026,-0.004861808,0.002837342,1.002379,29.03248,-4.095445,-28.83744,1003.456
1.808182717,0.1364664,0.1220172,-0.2209152,-0.006301766,-0.003511945,0.9975279,29.03248,-4.095445,-28.83744,1003.455
1.827998638,0.3814003,0.1220172,-0.2820776,-0.006324676,-0.0005950858,0.9956122,29.78481,-4.752537,-28.44832,1003.455
1.850291729,0.1976999,0.1220172,-0.1597527,-0.002912195,-0.002038242,0.9955861,29.78481,-4.752537,-28.44832,1003.456
1.870106697,0.1364664,0.1825299,-0.1597527,-0.004863471,0.001369537,0.9994757,29.78481,-4.752537,-28.44832,1003.456
1.889922619,0.0139995,0.0615045,-0.09859026,-0.007276575,-0.001074154,1.000924,29.41932,-5.130432,-28.82047,1003.457
1.909738541,0.1976999,0.0009917939,-0.09859026,-0.004847652,-0.0005746454,1.000914,29.41932,-5.130432,-28.82047,1003.457
1.929553986,0.1364664,0.0615045,-0.1597527,-0.008252533,-0.002548164,0.9975435,29.78563,-4.744118,-28.00497,1003.456
1.949369908,0.3814003,0.1220172,-0.1597527,-0.002450414,0.0008799639,0.9931852,29.78563,-4.744118,-28.00497,1003.456
1.969185829,0.3201669,0.2430426,-0.03742781,-0.006809897,0.0003809335,0.9975507,29.78563,-4.744118,-28.00497,1003.454
1.989001751,0.1976999,0.1825299,-0.2820776,-0.006322483,-0.0001046457,0.9970627,28.66745,-4.397791,-28.45064,1003.454
2.008817673,0.1976999,0.0615045,-0.2820776,-0.007273827,-9.444635E-05,1.003343,28.66745,-4.397791,-28.45064,1003.455
2.028633118,0.1364664,0.2430426,-0.1597527,-0.007789623,0.00281521,0.9994992,29.41427,-4.75652,-28.44693,1003.455
2.048449039,0.3201669,-0.1200336,-0.2209152,-0.005337792,0.0003978582,1.001404,29.41427,-4.75652,-28.44693,1003.454
2.068264961,0.3201669,0.0615045,-0.09859026,-0.003400672,0.0004020669,0.99898,29.41427,-4.75652,-28.44693,1003.454
2.088080883,0.1976999,0.0615045,-0.1597527,-0.006806572,0.003316542,1.003358,29.04374,-4.760503,-28.44555,1003.455
2.110373020,0.1976999,0.0615045,0.08489711,-0.00486294,0.0003921727,0.9980227,29.04374,-4.760503,-28.44555,1003.455
2.130188942,0.1976999,0.0009917939,-0.03742781,-0.008260686,0.0003792418,0.999972,29.42002,-5.123216,-28.44045,1003.455
2.150004864,0.1976999,0.1825299,-0.03742781,-0.009193,-0.005952295,1.001392,29.42002,-5.123216,-28.44045,1003.455
2.169820786,0.2589334,0.0615045,-0.2209152,-0.006326847,0.0003811065,0.9965826,29.42002,-5.123216,-28.44045,1003.456
2.189636231,0.3201669,0.1220172,-0.2209152,-0.008737755,-0.001572145,0.9994819,29.42085,-5.114796,-27.9971,1003.456
2.209452152,0.2589334,0.1220172,-0.2820776,-0.003858066,-0.001535258,1.004282,29.42085,-5.114796,-27.9971,1003.457
2.229268074,0.2589334,0.1220172,-0.2209152,-0.007253621,-0.001057749,1.007682,29.03798,-4.393808,-28.45203,1003.457
2.249083042,0.2589334,0.1220172,-0.1597527,-0.00339573,0.001872215,1.002849,29.03798,-4.393808,-28.45203,1003.456
2.268898964,0.1976999,0.1220172,-0.09859026,-0.007260732,-0.001551704,1.004783,29.03798,-4.393808,-28.45203,1003.456
2.288714886,0.3201669,0.2430426,-0.2209152,-0.009231152,0.0008646478,1.001428,29.03657,-4.408242,-29.21206,1003.451
2.308530808,0.2589334,0.1220172,-0.1597527,-0.00387116,-7.79999E-05,1.002842,29.03657,-4.408242,-29.21206,1003.451
2.328346253,0.2589334,0.2430426,-0.1597527,-0.006305577,-0.002536925,0.9980155,29.03798,-4.393808,-28.45203,1003.451
2.348162174,0.1364664,0.1825299,-0.3432401,-0.005338346,-9.140954E-05,1.000436,29.03798,-4.393808,-28.45203,1003.451
2.367978096,0.3814003,0.1825299,-0.2820776,-0.004359706,-0.00203759,0.9989727,29.03798,-4.393808,-28.45203,1003.452
2.390271187,0.3201669,0.2430426,-0.2209152,-0.005826315,-9.509805E-05,0.9999563,28.66827,-4.389371,-28.00728,1003.452
2.410087109,0.2589334,0.0615045,-0.09859026,-0.004396794,0.002824625,0.996102,28.66827,-4.389371,-28.00728,1003.453
2.429902077,0.2589334,0.0615045,-0.03742781,-0.007786344,0.002817553,1.000464,29.03798,-4.393808,-28.45203,1003.453
2.449717999,0.1976999,0.1220172,-0.2209152,-0.004361832,0.001871868,1.004785,29.03798,-4.393808,-28.45203,1003.454
2.469533920,0.0139995,0.0615045,-0.09859026,-0.003862962,-7.214095E-05,1.005255,29.03798,-4.393808,-28.45203,1003.454
2.489349365,0.3201669,0.1825299,-0.1597527,-0.002945472,0.001848952,0.9922276,29.04456,-4.752083,-28.00219,1003.454
2.509165287,0.2589334,0.3035553,-0.2209152,-0.004855827,0.0008861282,1.000921,29.04456,-4.752083,-28.00219,1003.454
2.528981209,0.1976999,0.2430426,-0.1597527,-0.008257408,0.0003815852,1.000937,29.41356,-4.763737,-28.82695,1003.455
2.548797131,0.1364664,0.1825299,-0.09859026,-0.002932909,0.001369059,0.9951211,29.41356,-4.763737,-28.82695,1003.455
2.568612576,0.3201669,0.1220172,-0.1597527,-0.00677879,-0.002530067,1.00188,29.41356,-4.763737,-28.82695,1003.456
2.588428497,0.3814003,0.1220172,-0.2209152,-0.004870052,-0.0001017821,0.9951242,29.03727,-4.401025,-28.83204,1003.456
2.608244419,0.1364664,0.1825299,-0.09859026,-0.005806154,-0.003991666,0.9994534,29.03727,-4.401025,-28.83204,1003.452
2.628060341,0.07523298,0.1220172,-0.09859026,-0.004384763,0.003322096,1.000448,29.03727,-4.401025,-28.83204,1003.452
2.650352478,0.3201669,0.1220172,-0.2209152,-0.003905545,0.002830657,0.9975473,29.40852,-4.389825,-28.45341,1003.453
2.670168400,0.1976999,0.1825299,-0.1597527,-0.00290947,-0.002525166,0.9955836,29.40852,-4.389825,-28.45341,1003.453
2.689984322,0.3814003,0.1825299,-0.03742781,-0.006282068,-0.002031252,1.005741,29.42002,-5.123216,-28.44045,1003.454
2.709800244,0.1976999,0.1825299,-0.03742781,-0.001930761,-7.144804E-05,1.001383,29.42002,-5.123216,-28.44045,1003.454
2.729616165,0.3814003,0.1825299,-0.2820776,-0.006302276,-0.001067949,1.001402,29.40852,-4.389825,-28.45341,1003.453
2.749431610,0.1976999,0.0615045,-0.2209152,-0.005848693,0.001844397,0.9965875,29.40852,-4.389825,-28.45341,1003.453
2.769247532,0.1364664,-0.1200336,-0.2209152,-0.006321905,0.001851255,1.000451,29.40852,-4.389825,-28.45341,1003.452
2.789063454,0.1364664,0.3035553,-0.1597527,-0.004859106,0.0008837847,0.999956,28.6732,-4.764486,-28.44416,1003.452
2.808879376,0.3201669,0.1220172,-0.09859026,-0.004862363,0.002348073,1.001411,28.6732,-4.764486,-28.44416,1003.451
2.828694821,0.2589334,0.0615045,-0.09859026,-0.01018799,-0.001084568,1.002871,28.6732,-4.764486,-28.44416,1003.451
2.848510742,0.3201669,0.1220172,-0.2209152,-0.007272232,-0.003026539,0.9989836,29.40852,-4.389825,-28.45341,1003.45
2.868326664,0.2589334,0.1220172,-0.1597527,-0.008263389,0.002332799,1.002395,29.40852,-4.389825,-28.45341,1003.45
2.888142586,0.1976999,0.0615045,-0.2209152,-0.01020273,0.0003715178,1.000948,29.03727,-4.401025,-28.83204,1003.449
2.907958031,0.2589334,0.0615045,-0.3432401,-0.004861277,0.001859977,1.000926,29.03727,-4.401025,-28.83204,1003.449
2.930251599,0.1976999,0.1825299,-0.09859026,-0.006803316,0.001852253,1.001902,29.03727,-4.401025,-28.83204,1003.446
2.950067044,0.2589334,0.0615045,-0.2820776,-0.005816478,-8.806749E-05,1.002852,29.42002,-5.123216,-28.44045,1003.446
2.969882965,0.3201669,0.0615045,-0.2820776,-0.006282623,-0.00252052,1.004773,29.42002,-5.123216,-28.44045,1003.446
2.989698887,0.1364664,0.0009917939,-0.03742781,-0.003382151,-0.003495672,0.9979946,28.66674,-4.405007,-28.83066,1003.446
3.009514809,0.1976999,-0.1200336,-0.2209152,-0.003383722,0.000903053,1.004775,28.66674,-4.405007,-28.83066,1003.447
3.029330254,0.1364664,0.1825299,-0.09859026,-0.004370607,-8.989125E-05,0.9989828,28.66674,-4.405007,-28.83066,1003.447
3.049146175,0.1976999,0.3035553,-0.1597527,-0.008254129,0.0003839289,1.001903,29.41498,-4.749303,-28.06692,1003.448
3.068962097,0.3814003,0.0615045,-0.1597527,-0.004383169,0.0003900025,0.9960893,29.41498,-4.749303,-28.06692,1003.448
3.088778019,0.1976999,0.1220172,-0.2820776,-0.004860236,-0.001561384,0.9955992,29.03798,-4.393808,-28.45203,1003.447
3.108593464,0.1976999,0.0615045,-0.03742781,-0.004882061,0.0008673795,0.9931984,29.03798,-4.393808,-28.45203,1003.447
3.128408909,0.3201669,-0.1200336,-0.3432401,-0.006807704,0.0008713732,0.9990011,29.03798,-4.393808,-28.45203,1003.447
3.148225307,0.1364664,0.1220172,-0.2209152,-0.008248655,0.0008767126,1.004318,29.04303,-4.76772,-28.82557,1003.447
3.168040276,0.07523298,0.0615045,-0.1597527,-0.002909933,0.002852096,1.004299,29.04303,-4.76772,-28.82557,1003.448
3.190333366,0.3814003,0.1825299,-0.2209152,-0.007784727,0.001352092,0.9985263,28.66745,-4.397791,-28.45064,1003.448
3.210149288,0.1976999,0.0009917939,-0.2209152,-0.001954801,0.0004002433,0.9951108,28.66745,-4.397791,-28.45064,1003.449
3.229965210,0.3201669,0.1220172,-0.03742781,-0.007793456,0.002323598,0.997566,28.66745,-4.397791,-28.45064,1003.449
3.249781132,0.1976999,-0.1200336,-0.09859026,-0.007293502,-0.0001085077,0.9975508,29.03869,-4.386591,-28.07201,1003.449
3.269597054,0.1976999,0.1825299,-0.2820776,-0.009258516,-0.001599269,0.9893484,29.03869,-4.386591,-28.07201,1003.449
3.289412499,0.2589334,0.0615045,-0.09859026,-0.005844351,-0.0001079878,0.9946467,29.03869,-4.386591,-28.07201,1003.45
3.309228420,0.3814003,0.2430426,-0.2209152,-0.008224729,-0.006928141,0.9984862,29.03869,-4.386591,-28.07201,1003.45
3.329044342,0.3201669,0.0615045,-0.1597527,-0.003406631,0.003819913,1.002859,29.03869,-4.386591,-28.07201,1003.451
3.348860264,0.07523298,0.2430426,-0.2820776,-0.006308834,-0.001072636,0.9994711,29.79056,-5.119233,-28.44184,1003.451
3.368675709,0.1976999,0.0615045,0.02373465,-0.005338346,-9.140954E-05,1.000436,29.79056,-5.119233,-28.44184,1003.45
3.388491631,0.3814003,0.1825299,-0.03742781,-0.001465746,-8.416409E-05,0.9951056,29.41427,-4.75652,-28.44693,1003.45
3.408307552,0.1976999,0.0615045,-0.2209152,-0.004374417,0.0008851298,0.9994706,29.41427,-4.75652,-28.44693,1003.451
3.428123474,0.3201669,0.2430426,-0.2209152,-0.005817032,-0.0005773355,1.001884,29.41427,-4.75652,-28.44693,1003.451
3.447938919,0.2589334,-0.05952091,-0.2209152,-0.006800591,0.001365329,1.0019,29.03319,-4.088228,-28.45743,1003.451
3.470232010,0.07523298,0.1220172,-0.03742781,-0.003396861,-0.0005729536,0.9984924,29.03319,-4.088228,-28.45743,1003.451
3.490047932,0.1976999,0.1220172,-0.09859026,-0.0092339,-0.00011506,0.9990093,29.41356,-4.763737,-28.82695,1003.452
3.509863854,0.3201669,0.0615045,-0.1597527,-0.006810983,0.0008690298,0.9980358,29.41356,-4.763737,-28.82695,1003.452
3.529679775,0.1976999,0.1220172,-0.2209152,-0.004373862,0.001374398,1.000438,29.41356,-4.763737,-28.82695,1003.453
3.549495697,0.1976999,0.1220172,-0.3432401,-0.004858044,-0.001070944,0.9970497,29.40923,-4.382608,-28.0734,1003.453
3.569311142,0.3814003,0.0615045,-0.09859026,-0.005819779,-0.001557043,0.9994659,29.40923,-4.382608,-28.0734,1003.454
3.589127064,0.2589334,0.0615045,-0.09859026,-0.00677715,-0.002528895,1.002362,28.67895,-5.131181,-28.43768,1003.454
3.608942986,0.1364664,0.0009917939,-0.1597527,-0.006277173,-0.003494368,1.004768,28.67895,-5.131181,-28.43768,1003.456
3.628758907,0.3814003,0.1825299,-0.3432401,-0.007293502,-0.0001085077,0.9975508,28.67895,-5.131181,-28.43768,1003.456
3.648574352,0.2589334,0.1220172,-0.09859026,-0.01214259,-0.0006123986,1.000954,29.04374,-4.760503,-28.44555,1003.457
3.668390274,0.3201669,0.1220172,-0.09859026,-0.004367836,0.002356449,1.003822,29.04374,-4.760503,-28.44555,1003.457
3.688206196,0.3201669,0.0615045,-0.09859026,-0.005363449,0.002335011,0.99707,29.03798,-4.393808,-28.45203,1003.457
3.708022118,0.2589334,0.1220172,-0.09859026,-0.006828949,0.005256037,0.9999892,29.03798,-4.393808,-28.45203,1003.457
3.730314255,0.0139995,0.0009917939,-0.1597527,-0.002423672,-0.001545284,0.997034,29.03798,-4.393808,-28.45203,1003.456
3.750130177,0.1976999,0.0009917939,-0.09859026,-0.007800038,0.0008522782,0.9932143,29.04444,-4.753286,-28.06553,1003.456
3.769946099,0.1364664,0.1220172,-0.2209152,-0.007266738,-0.001067124,1.00382,29.04444,-4.753286,-28.06553,1003.459
3.789762497,0.3201669,0.0615045,-0.2209152,-0.004874925,0.002827967,0.998518,29.03798,-4.393808,-28.45203,1003.459
3.809578419,0.2583837,0.1822429,-0.0370768,-0.001927482,-6.910414E-05,1.002348,29.03798,-4.393808,-28.45203,1003.46
3.829394341,0.3802595,0.06087399,-0.2201448,-0.008746485,-0.0006006393,0.9985216,29.03798,-4.393808,-28.45203,1003.46
3.849209786,0.2571069,0.121158,-0.09743983,-0.003903352,0.003321097,0.9989977,29.03248,-4.095445,-28.83744,1003.462
3.869025707,0.1340138,-1.958467E-05,-0.03591762,-0.007792925,0.001346233,0.9961129,29.03248,-4.095445,-28.83744,1003.462
3.888841629,0.01088374,0.2417653,-0.1577493,-0.003882637,-8.620229E-05,0.9994629,29.03248,-4.095445,-28.83744,1003.459
3.908657551,0.255329,-0.0006265201,-0.2185157,-0.006314838,-0.000588055,0.9985083,29.03869,-4.386591,-28.07201,1003.459
3.928472996,0.3160559,0.1203814,-0.2791487,-0.003405568,0.001865184,0.999953,29.03869,-4.386591,-28.07201,1003.464
3.948288918,0.131735,0.1200413,-0.2786974,-0.003927923,0.004770153,0.9941787,29.05524,-5.493894,-28.43259,1003.464
3.968104840,0.3149317,-0.001266559,-0.1558456,-0.008258516,-0.000596951,0.9990015,29.05524,-5.493894,-28.43259,1003.465
3.987920761,0.3143333,0.05904045,-0.09425343,-0.007286921,0.001362812,1.001902,29.05524,-5.493894,-28.43259,1003.465
4.010213852,0.1299951,0.05868384,-0.1551113,-0.001938405,0.0004119612,0.9999375,29.04374,-4.760503,-28.44555,1003.465
4.030029774,0.1293804,0.05840357,-0.1547603,-0.008289068,0.002803318,0.9956404,29.04374,-4.760503,-28.44555,1003.465
4.049845219,0.3125254,0.05820005,-0.09305578,-0.00681373,-0.0001106781,0.9956174,29.03869,-4.386591,-28.07201,1003.466
4.069661140,0.1894661,-0.06323732,-0.153927,-0.01020873,0.0008560991,0.9999851,29.03869,-4.386591,-28.07201,1003.466
4.089477062,0.3113998,0.0577189,-0.153387,-0.007779808,0.001355608,0.9999744,29.03869,-4.386591,-28.07201,1003.467
4.109292984,0.3719092,0.0576499,-0.2141068,-0.007786898,0.002328285,0.9994966,28.30912,-5.127947,-28.05627,1003.467
4.129108429,0.310088,0.05735325,-0.091398,-0.00386571,-0.001051849,1.002837,28.30912,-5.127947,-28.05627,1003.466
4.148924351,0.2482683,0.05722829,-0.09093812,-0.006796204,0.002346208,1.004801,29.40781,-4.397042,-28.83343,1003.466
4.168740273,0.3089169,0.2385468,-0.1517187,-0.005839433,-0.0001044725,0.9960948,29.40781,-4.397042,-28.83343,1003.468
4.188556194,0.1244409,0.05686568,-0.2736051,-0.009240435,0.001346885,0.9994996,29.40781,-4.397042,-28.83343,1003.468
4.208372116,0.1239363,0.1776723,-0.1507276,-0.01069231,0.00183329,1.002406,29.03248,-4.095445,-28.83744,1003.469
4.228187561,0.2458999,0.05633386,-0.02779396,-0.00289192,0.001398353,1.007188,29.03248,-4.095445,-28.83744,1003.469
4.248003483,0.1227772,0.2376925,-0.02751308,-0.006778258,-0.003507431,1.000427,29.41356,-4.763737,-28.82695,1003.47
4.270296574,0.1834525,0.05569202,-0.08834844,-0.00875413,-0.00011723,0.997076,29.41356,-4.763737,-28.82695,1003.47
4.290112495,0.1217393,0.2371283,-0.1491548,-0.007291263,0.003315197,1.003843,29.41356,-4.763737,-28.82695,1003.472
4.309928417,0.1824749,0.1156975,-0.2099236,-0.002890326,-0.00153374,1.002829,29.03798,-4.393808,-28.45203,1003.472
4.329743862,0.2431542,0.05502724,-0.1483877,-0.009221338,-0.0005949535,1.001903,29.03798,-4.393808,-28.45203,1003.469
4.349559784,0.05878575,0.1152878,-0.1479383,-0.003400626,0.003335332,1.003822,29.04374,-4.760503,-28.44555,1003.469
4.369375706,0.3032069,0.05465663,-0.2087293,3.312319E-05,-0.001025855,1.005229,29.04374,-4.760503,-28.44555,1003.469
4.389191628,0.2414812,0.1752979,-0.2083205,-0.01068194,0.0008629564,1.003849,29.04374,-4.760503,-28.44555,1003.469
4.409007549,0.2408172,-0.006566297,-0.1467886,-0.007295119,0.001356953,0.999489,29.41356,-4.763737,-28.82695,1003.472
4.428822994,-0.004644306,-0.2488665,-0.1463432,-0.007758538,-0.001562424,1.001407,29.41356,-4.763737,-28.82695,1003.472
4.448638916,0.3009581,0.1141128,-0.08490936,-0.007758538,-0.001562424,1.001407,29.40923,-4.382608,-28.0734,1003.474
4.468455315,0.1780046,0.05346559,-0.08444661,-0.006806595,0.00184991,1.000937,29.40923,-4.382608,-28.0734,1003.474
4.488271237,0.05501386,0.05338832,-0.1451859,-0.007276021,-0.0005848862,1.001892,29.40923,-4.382608,-28.0734,1003.473
4.508087158,0.05468366,0.1740897,-0.1447638,-0.003885916,-8.854596E-05,0.9984976,29.78481,-4.752537,-28.44832,1003.473
4.527903080,0.1154148,0.1737856,-0.3277534,-0.006817518,0.002330975,0.9985261,29.78481,-4.752537,-28.44832,1003.476
4.550195217,0.1149159,0.1735606,-0.1437052,-0.008247615,-0.002544649,0.9989914,28.6732,-4.764486,-28.44416,1003.476
4.570011139,0.1143584,0.2942642,-0.1433061,-0.005827401,0.0003929979,1.000441,28.6732,-4.764486,-28.44416,1003.476
4.589827538,0.2363461,0.1124432,-0.2040896,-0.01021637,0.001339508,0.9985396,28.6732,-4.764486,-28.44416,1003.476
4.609643459,0.2358296,0.1726355,-0.3259788,-0.004870052,-0.0001017821,0.9951242,28.66815,-4.390574,-28.07062,1003.475
4.629459381,0.1741385,0.172354,-0.1420762,-0.008292856,0.005244971,0.9985491,28.66815,-4.390574,-28.07062,1003.475
4.649274826,0.2349348,0.1115795,-0.2639869,-0.007305001,-0.001583342,0.9917511,29.40923,-4.382608,-28.0734,1003.474
4.669090748,0.2955784,0.2323818,-0.1413639,-0.005850355,0.0003765929,0.9936839,29.40923,-4.382608,-28.0734,1003.474
4.688906670,0.3562236,-0.009872567,-0.2020755,-0.006823522,0.002815556,0.9975632,29.40923,-4.382608,-28.0734,1003.475
4.708722592,0.2330546,0.1109876,-0.07947354,-0.006296293,-0.003019162,0.9999438,29.04878,-5.134415,-28.81908,1003.475
4.728538513,0.1712936,-0.01029742,-0.1401869,-0.005344373,-0.001073461,0.9970524,29.04878,-5.134415,-28.81908,1003.475
4.748353958,0.3544486,0.1708676,-0.2010359,-0.007798906,0.003297447,0.9975711,29.04527,-4.744866,-27.62218,1003.475
4.768169880,0.3537126,0.109945,-0.017063,-0.006788605,-0.001070466,1.001404,29.04527,-4.744866,-27.62218,1003.476
4.787985802,0.3530551,0.1098208,-0.07804821,-0.005330724,-0.002041452,0.9994608,29.04527,-4.744866,-27.62218,1003.476
4.810278893,0.2912475,-0.0114958,-0.2611617,-0.004361345,-0.002038762,0.9984902,29.40852,-4.389825,-28.45341,1003.477
4.830094814,0.2293791,-0.07213151,-0.07740258,-0.008261795,-0.0005992944,0.9980362,29.40852,-4.389825,-28.45341,1003.477
4.849910259,0.04514126,-0.01177957,-0.1382172,-0.006794055,-9.66168E-05,1.001409,29.41356,-4.763737,-28.82695,1003.479
4.869726181,0.2283823,0.04853472,0.04561716,-0.005812135,-0.002040453,1.000911,29.41356,-4.763737,-28.82695,1003.479
4.889542103,0.1665177,0.04835591,-0.01521829,-0.005832297,0.001856115,1.001414,29.41356,-4.763737,-28.82695,1003.478
4.909358502,0.4109759,0.1691649,-0.01493059,-0.004379336,0.0008816143,0.9980226,29.41932,-5.130432,-28.82047,1003.478
4.929174423,0.3491527,0.1690061,-0.2592742,-0.005359615,0.002826622,0.9990032,29.41932,-5.130432,-28.82047,1003.479
4.948990345,0.2261359,0.1685438,-0.1364712,-0.007781448,0.001354436,0.9994916,29.41427,-4.75652,-28.44693,1003.479
4.968805790,0.2867824,0.10776,-0.1973486,-0.01018582,-0.002060761,1.001901,29.41427,-4.75652,-28.44693,1003.481
4.988621712,0.3473727,0.1075844,-0.01346174,-0.008244313,-0.001075673,1.002378,29.41427,-4.75652,-28.44693,1003.481
5.008437634,0.2857092,0.2282258,-0.1355225,-0.006778236,-0.002040799,1.002847,28.6732,-4.764486,-28.44416,1003.48
5.028253555,0.2851649,0.04632373,-0.07407744,-0.004837328,-0.004478244,0.9975149,28.6732,-4.764486,-28.44416,1003.48
5.048069477,0.2846604,0.04597951,-0.1349005,-0.008273226,0.002325768,0.9994993,28.6732,-4.764486,-28.44416,1003.481
5.070362568,0.1615434,0.2273308,-0.318007,-0.007288538,0.002828273,1.003841,28.66265,-4.092211,-28.45604,1003.481
5.090178013,0.2835279,0.04539293,-0.01183792,-0.009214225,-0.0001009984,1.004801,28.66265,-4.092211,-28.45604,1003.482
5.109993935,0.1604069,0.2873677,-0.2561893,-0.009208221,-0.0005855793,1.005764,29.04374,-4.760503,-28.44555,1003.482
5.129809856,0.3436277,0.04488041,-0.2557765,-0.008251979,-0.002058896,0.9985114,29.04374,-4.760503,-28.44555,1003.482
5.149625778,0.2206056,0.1052615,-0.07187735,-0.004831832,-0.002518828,1.002352,29.04374,-4.760503,-28.44555,1003.482
5.169441223,0.2812852,0.04469346,-0.1327634,-0.01067434,-0.002553718,1.000453,29.03727,-4.401025,-28.83204,1003.485
5.189258099,0.1584196,0.1051318,-0.2546014,-0.006312666,-0.001564247,0.9975379,29.03727,-4.401025,-28.83204,1003.485
5.209073544,0.2193515,0.04446905,-0.1929917,-0.002429099,0.0008951973,0.99946,29.77906,-4.385842,-28.4548,1003.484
5.228889465,0.1575865,0.2861803,-0.1313831,-0.006324099,0.001360815,0.999001,29.77906,-4.385842,-28.4548,1003.484
5.248705387,0.09591914,-0.07738651,-0.1309957,1.127715E-05,-6.372388E-05,1.000407,29.77906,-4.385842,-28.4548,1003.484
5.268521309,0.0344833,0.04345332,-0.1919445,-0.006785326,-0.001068122,1.00237,29.41356,-4.763737,-28.82695,1003.484
5.288336754,0.09541872,0.04324928,-0.2528171,-0.003883768,-0.002531371,0.9951063,29.41356,-4.763737,-28.82695,1003.484
5.308152676,0.2785913,0.04315976,-0.2524704,-0.0082487,-0.002056553,0.9994767,29.41356,-4.763737,-28.82695,1003.484
5.327968597,0.3392983,0.1034881,-0.1908852,-0.005825806,-0.002539095,0.9960822,29.41356,-4.763737,-28.82695,1003.481
5.350261688,0.1550433,-0.0176397,-0.1294715,-0.006331766,0.0003775915,0.9951346,29.41356,-4.763737,-28.82695,1003.481
5.370077610,0.2157915,0.2846642,-0.1291465,-0.005810519,-0.003505913,0.9989731,28.65619,-3.732733,-28.84254,1003.48
5.389893532,0.3990654,0.1027154,-0.1899462,-0.01021309,0.001341852,0.9995049,28.65619,-3.732733,-28.84254,1003.48
5.409708977,0.2147091,0.04202083,-0.2506319,-0.006317054,-0.002545127,0.9946368,29.41427,-4.75652,-28.44693,1003.482
5.429525852,0.1527443,0.1021812,-0.005487218,-0.007290223,-0.0001061643,0.9985161,29.41427,-4.75652,-28.44693,1003.482
5.449341297,0.2136712,0.04135503,-0.127472,-0.01167649,-0.001113211,0.9941909,29.41427,-4.75652,-28.44693,1003.483
5.469157219,0.2747719,0.04138416,-0.3105241,-0.005344373,-0.001073461,0.9970524,29.04374,-4.760503,-28.44555,1003.483
5.488973141,0.2742743,0.2227233,-0.06532507,-0.003893006,0.0008841311,0.9980199,29.04374,-4.760503,-28.44555,1003.484
5.508789063,0.0901736,0.2225821,-0.2485525,-0.01020437,0.000370346,1.000465,29.77835,-4.393059,-28.83482,1003.484
5.528604508,0.2122221,0.04077017,-0.1869196,-0.005850864,0.00282059,0.9975579,29.77835,-4.393059,-28.83482,1003.484
5.548420429,0.08931844,0.1616742,-0.2476704,-0.003914275,0.003802163,0.996587,29.77835,-4.393059,-28.83482,1003.484
5.568236828,0.02766854,-0.02007992,-0.06386828,-0.004358066,-0.002036418,0.9994555,28.66745,-4.397791,-28.45064,1003.484
5.588052750,0.08858266,-0.02033331,-0.002353486,-0.00534816,0.001368192,0.9999611,28.66745,-4.397791,-28.45064,1003.484
5.610345364,0.2106073,0.1609204,-0.1856039,-0.004376611,0.0003946896,0.99802,29.41427,-4.75652,-28.44693,1003.482
5.630161762,0.3937982,-0.02098373,-0.1854066,-0.006797334,-9.896024E-05,1.000444,29.41427,-4.75652,-28.44693,1003.482
5.649977684,0.2094936,0.2814045,-0.1237787,-0.007280385,-9.91337E-05,1.001412,29.41427,-4.75652,-28.44693,1003.481
5.669793129,0.2092752,0.09955879,-0.1845536,-0.009710437,-0.003043811,0.9970662,29.03869,-4.386591,-28.07201,1003.481
5.689609051,0.3313128,0.09947985,-0.3065302,-0.004851462,0.0004003751,1.001401,29.03869,-4.386591,-28.07201,1003.481
5.709424973,0.1472996,0.09926812,-0.122619,-0.004377165,-9.457814E-05,0.9970521,28.66745,-4.397791,-28.45064,1003.481
5.729240894,0.2081825,-0.1432217,-0.1834544,-0.008734409,0.002830096,1.00771,28.66745,-4.397791,-28.45064,1003.481
5.749056816,0.1464841,0.03810613,-0.2443482,-0.008749233,-0.001580347,0.9961032,28.66745,-4.397791,-28.45064,1003.481
5.768873215,0.1460395,0.09835225,-0.1217362,-0.006789158,-0.001559734,1.000437,29.41498,-4.749303,-28.06692,1003.482
5.788688660,0.2068679,0.1586181,-0.1825162,-0.008778123,0.003287726,0.9956456,29.41498,-4.749303,-28.06692,1003.482
5.808504582,0.08413157,0.03732742,-0.2433164,-0.01022021,0.0008478962,0.9966063,29.40781,-4.397042,-28.83343,1003.481
5.828320503,0.206445,0.03713886,-0.1817926,-0.004367327,-8.754735E-05,0.9999483,29.40781,-4.397042,-28.83343,1003.481
5.848136425,0.02228385,0.03681771,-0.1813747,-0.01020603,-0.001097458,0.9975616,29.40781,-4.397042,-28.83343,1003.485
5.867952347,0.1443296,0.1576936,-0.1811305,-0.00775198,-0.001557737,1.003338,29.41498,-4.749303,-28.06692,1003.485
5.890245438,0.2048672,0.1573812,-0.2417047,-0.008239395,-0.001072157,1.003826,29.41498,-4.749303,-28.06692,1003.486
5.910060883,0.2043145,0.2176127,-0.1802042,-0.00779184,0.0008581372,0.9956277,29.04303,-4.76772,-28.82557,1003.486
5.929876805,0.2039169,0.2171043,-0.1797709,-0.007271102,-0.0005813709,1.00334,29.04303,-4.76772,-28.82557,1003.487
5.949693203,0.1423829,0.216901,-0.2406357,-0.006317586,-0.001567763,0.9960899,29.04303,-4.76772,-28.82557,1003.487
5.969509125,0.1421409,0.09571098,-0.240377,-0.002908916,-0.002035898,0.9965515,29.03716,-4.402227,-28.89538,1003.489
5.989325047,0.2642702,0.1558505,-0.3011664,-0.008737247,-0.004016141,0.9956079,29.03716,-4.402227,-28.89538,1003.489
6.009140968,0.2637606,0.09509833,-0.2396894,-0.008784613,0.007682936,1.000978,28.66815,-4.390574,-28.07062,1003.49
6.028956413,0.1408044,0.4578218,-0.1780596,-0.003871183,-0.001544633,1.000421,28.66815,-4.390574,-28.07062,1003.49
6.048772335,0.1403356,0.1549067,-0.05544116,-0.007301654,0.002818898,0.9999793,28.66815,-4.390574,-28.07062,1003.489
6.068588734,0.07873073,0.09411912,0.06729159,-0.006317563,-0.0001011305,0.9985108,29.40852,-4.389825,-28.45341,1003.489
6.088404655,0.1395551,0.09384489,-0.1159808,-0.0111443,-0.00401115,1.002861,29.40852,-4.389825,-28.45341,1003.487
6.108220577,0.1391278,0.1541789,-0.2378801,-0.003876656,-0.002037416,0.9980048,29.41498,-4.749303,-28.06692,1003.487
6.128036499,0.1998775,0.1538868,-0.1763123,-0.004394115,-0.0005955643,0.9912575,29.41498,-4.749303,-28.06692,1003.488
6.150329590,0.07680769,0.1534332,-0.2982736,-0.007772188,-0.0005944341,0.9989988,29.41498,-4.749303,-28.06692,1003.488
6.170145035,0.5052927,-0.0887432,-31.36796,0.1560775,-0.08302925,0.9909211,28.29282,-4.088977,-28.07463,1003.489
6.189960957,0.3215923,0.0322822,-4.15067,0.01883908,0.02046769,0.9931692,28.29282,-4.088977,-28.07463,1003.489
6.209776878,0.3828257,0.2138203,-12.4076,0.2566611,-0.06350414,0.996263,28.66815,-4.390574,-28.07062,1003.491
6.229592800,0.3215923,0.1533076,4.228586,0.07390639,-0.0104556,0.9743673,28.66815,-4.390574,-28.07062,1003.491
6.249409199,0.5665261,-1.298997,-2.254634,0.1301447,-0.04563197,1.006701,28.66815,-4.390574,-28.07062,1003.486
6.269225121,3.383266,3.239455,5.146023,0.1863849,0.01075591,1.04771,29.02744,-3.721533,-28.46391,1003.486
6.289040566,0.6277596,1.000486,7.898334,0.1611523,-0.04066609,0.9800094,29.02744,-3.721533,-28.46391,1003.487
6.308856487,0.3828257,2.392277,13.21947,0.1330377,-0.06763393,0.963131,29.02744,-3.721533,-28.46391,1003.487
6.328672409,0.5665261,0.0322822,15.72713,0.05514596,0.05329094,0.9974833,29.03319,-4.088228,-28.45743,1003.488
6.348488808,-0.04580855,-0.2702813,9.305071,0.1103187,0.01999865,1.005698,29.03319,-4.088228,-28.45743,1003.488
6.368304730,-0.6581432,0.0322822,1.109301,0.009547254,0.008161213,0.9579214,28.66815,-4.390574,-28.07062,1003.489
6.388120651,0.01542491,-0.8754084,-15.58805,0.1123933,0.002501699,1.014768,28.66815,-4.390574,-28.07062,1003.489
6.407936573,0.2603588,-0.3913067,-22.49941,0.06972297,0.03331349,0.9606172,28.66815,-4.390574,-28.07062,1003.489
6.430229664,0.688993,-0.5123321,-25.86334,0.04580482,0.06832606,0.9927848,27.98812,-4.405093,-28.44809,1003.489
6.450045109,0.9339269,-2.146175,-16.322,0.120927,-0.03295296,1.034329,27.98812,-4.405093,-28.44809,1003.488
6.469861031,1.362561,-0.3913067,-12.22411,-0.002723657,-0.03808003,0.9915386,28.27486,-2.996109,-28.47409,1003.488
6.489676952,-0.5356763,0.0927949,-16.13851,0.1583541,-0.04059565,1.015261,28.27486,-2.996109,-28.47409,1003.489
6.509493351,-0.04580855,-0.8148956,11.87389,0.1419751,0.02801631,1.031631,28.27486,-2.996109,-28.47409,1003.489
6.529309273,0.688993,-0.4518194,18.11246,0.04665491,0.01774585,1.016172,27.94953,-1.892125,-28.11236,1003.49
6.549125195,0.3215923,-0.3913067,14.38155,0.01202051,0.04780217,1.03534,27.94953,-1.892125,-28.11236,1003.49
6.568940640,-0.4132094,0.5163838,13.95342,0.1035885,-0.03522311,0.9378767,28.26406,-2.255501,-28.10703,1003.491
6.588756561,-0.9643106,-0.8148956,14.1369,-0.09692138,0.02914719,1.004949,28.26406,-2.255501,-28.10703,1003.491
6.608572960,0.9339269,0.274333,-8.126229,-0.09017977,0.1192308,0.9908946,28.26406,-2.255501,-28.10703,1003.491
6.628388882,-3.291182,-18.48461,-21.45964,-0.4082961,-0.02652938,0.596091,27.95024,-1.884908,-27.73234,1003.491
6.648204804,1.056394,-2.509251,32.42448,0.1275819,0.03115845,0.9520839,27.95024,-1.884908,-27.73234,1003.492
6.668020725,-2.250213,0.3348457,30.16147,0.02117084,0.02920859,0.9782383,27.93395,-0.845938,-27.7507,1003.492
6.690313816,-0.7806102,0.87946,31.75169,-0.02546147,0.0358507,1.00604,27.93395,-0.845938,-27.7507,1003.491
6.710129261,1.117627,-0.6333575,25.57428,0.05294441,0.01922176,1.008905,27.93395,-0.845938,-27.7507,1003.491
6.729945183,0.1991253,-0.0887432,16.95038,0.02629627,0.01622155,1.033652,27.5707,-1.20098,-26.91946,1003.49
6.749761582,-0.1682755,-0.3913067,12.73017,0.002962485,-0.006869081,0.9989079,27.5707,-1.20098,-26.91946,1003.49
6.769577503,2.587231,-0.8148956,13.76993,0.1025693,0.06852327,0.9524128,27.57478,-1.513776,-27.29408,1003.492
6.789393425,1.852429,-0.0282305,8.999258,0.1211471,0.1024206,1.036471,27.57478,-1.513776,-27.29408,1003.492
6.809209347,1.668729,0.5163838,28.08195,-0.07149439,-0.06742007,0.8860578,27.57478,-1.513776,-27.29408,1003.489
6.829024792,0.7502266,-1.117459,13.34179,-0.04183086,0.01437326,1.019535,27.1937,-0.845484,-27.30457,1003.489
6.848841667,-0.229509,-0.5728449,19.94734,-0.04393838,0.02158035,0.9838651,27.1937,-0.845484,-27.30457,1003.488
6.868657112,-0.5356763,-0.2097686,14.74853,-0.03405695,0.07321674,0.9715266,27.94123,-1.196997,-26.92085,1003.488
6.888473034,-1.025544,1.182024,9.916696,-0.1735418,0.02157338,1.057942,27.94123,-1.196997,-26.92085,1003.489
6.908288956,0.2603588,-1.298997,7.470197,0.0087226,0.001417746,0.9902308,27.94123,-1.196997,-26.92085,1003.489
6.928104878,-0.8418437,-1.117459,12.36319,-0.0799153,0.01993567,0.9850189,27.5714,-1.193763,-26.53944,1003.489
6.947921276,-1.270478,-0.754383,1.782088,-0.02735003,0.06570239,1.071848,27.5714,-1.193763,-26.53944,1003.489
6.970213890,2.158597,0.9399728,4.717886,0.1081712,0.02228845,0.9502139,27.93044,-0.4563897,-26.55379,1003.488
6.990030289,-0.2907424,0.0322822,18.90758,-0.002399852,-0.05139321,0.9219628,27.93044,-0.4563897,-26.55379,1003.488
7.009845734,2.893398,1.182024,11.32343,-0.05603242,0.002986171,0.9722514,27.93044,-0.4563897,-26.55379,1003.489
7.029661655,-1.270478,0.1533076,10.34483,0.03258503,-0.03070141,0.9464941,27.93126,-0.4479699,-26.11044,1003.489
7.049477577,1.791196,-1.420023,26.61405,0.00678548,0.07684366,0.9742177,27.93126,-0.4479699,-26.11044,1003.49
7.069293976,0.7502266,-1.541048,22.39384,0.0965571,0.04720181,1.008327,27.55486,-0.08645964,-26.17886,1003.49
7.089109898,-0.04580855,0.5768965,32.97494,-0.05327053,0.05177692,1.006757,27.55486,-0.08645964,-26.17886,1003.489
7.108925819,0.01542491,-0.3913067,27.65381,-0.07891756,-0.02467255,1.06153,27.55486,-0.08645964,-26.17886,1003.489
7.128741264,-0.3519759,1.726638,21.10942,-0.05829838,-0.02721808,0.9711434,27.92622,-0.07405758,-25.7369,1003.488
7.148557186,-0.04580855,-2.690789,20.86477,-0.03185157,-0.04762637,1.134039,27.92622,-0.07405758,-25.7369,1003.488
7.168373585,0.5052927,-1.117459,5.451836,-0.1402393,0.05334206,1.035236,28.612,-0.4262338,-25.35295,1003.487
7.188189507,2.097363,-0.6938702,-1.643009,-0.07353975,0.03662811,1.028028,28.612,-0.4262338,-25.35295,1003.487
7.208005428,-0.107042,-0.9359211,1.843251,0.01297149,0.02432585,0.9903252,28.612,-0.4262338,-25.35295,1003.486
7.230298519,0.1378918,-0.1492559,12.42436,-0.03628847,-0.03092639,1.001413,28.97679,-0.05555582,-25.36082,1003.486
7.250114441,1.546262,-0.5728449,12.66901,-0.05412616,0.05674425,1.049263,28.97679,-0.05555582,-25.36082,1003.483
7.269930363,-0.107042,0.0927949,9.794371,-0.08388571,0.01580372,1.097484,28.23724,-0.04788494,-24.53467,1003.483
7.289746761,0.3215923,0.3348457,0.1918643,-0.09804504,0.01876792,0.9436018,28.23724,-0.04788494,-24.53467,1003.484
7.309562206,-0.1682755,0.8189473,-13.50853,-0.1149396,0.03245902,1.003617,28.23724,-0.04788494,-24.53467,1003.484
7.329378128,0.1378918,1.363562,-25.74102,-0.03523192,-0.008718344,0.9199483,28.97749,-0.04833889,-24.9808,1003.483
7.349194050,0.07665838,1.000486,-11.24551,-0.02882406,-0.02280175,0.9217716,28.97749,-0.04833889,-24.9808,1003.483
7.369010449,0.07665838,-0.6333575,-6.964143,-0.1037548,-0.02775879,1.046687,28.59628,0.6894884,-24.54902,1003.482
7.388826370,-0.4744428,-2.327713,-3.049746,-0.03541369,0.00127425,1.025707,28.59628,0.6894884,-24.54902,1003.482
7.408642292,0.7502266,-0.9359211,1.476276,-0.1068457,-0.005409345,1.032821,28.59628,0.6894884,-24.54902,1003.482
7.428457737,0.2603588,0.8189473,-8.432042,-0.01626946,0.06128539,1.033633,28.60203,0.322793,-24.54254,1003.482
7.448274613,1.178861,0.5163838,8.876933,-0.008916487,0.06771996,1.061139,28.60203,0.322793,-24.54254,1003.482
7.468090057,-2.311447,0.3348457,7.714847,-0.02592572,0.01484247,0.9779397,28.60203,0.322793,-24.54254,1003.482
7.487905979,-6.169156,4.570735,4.534399,0.03841718,-0.06440609,0.8898157,29.70285,1.075349,-24.17964,1003.481
7.510199070,2.342297,0.274333,9.243908,0.05652004,0.005817224,0.8944215,29.70285,1.075349,-24.17964,1003.481
7.530014992,1.791196,-0.8148956,18.29595,-0.05560805,0.02494365,0.990221,28.95531,1.426862,-24.56336,1003.481
7.549830914,3.444499,-1.238485,11.93506,-0.01823592,0.0368166,0.9871814,28.95531,1.426862,-24.56336,1003.481
7.569647312,-0.229509,1.242536,9.060421,-0.04594778,0.01272479,0.9505258,28.95531,1.426862,-24.56336,1003.482
7.589463234,2.21983,0.5163838,6.675085,-0.05122465,-0.01853872,0.920468,28.95602,1.434079,-24.18335,1003.482
7.609279156,0.1991253,0.4558711,8.693446,0.03460112,-0.01304136,0.9962896,28.95602,1.434079,-24.18335,1003.484
7.629094601,0.07665838,0.0927949,5.329511,-0.05943099,0.01959429,1.001316,29.33231,1.071366,-24.17825,1003.484
7.648910999,1.546262,2.331765,5.146023,-0.147023,0.005904065,0.964559,29.33231,1.071366,-24.17825,1003.485
7.668726921,0.6277596,0.5768965,2.82185,-0.03891207,-0.003699325,0.9899825,29.33231,1.071366,-24.17825,1003.485
7.688542843,-0.5356763,-0.3913067,-4.089508,-0.3310954,0.1173656,0.9376611,28.95531,1.426862,-24.56336,1003.484
7.708358765,0.5665261,-0.1492559,1.598601,0.002251425,-0.01890896,1.055806,28.95531,1.426862,-24.56336,1003.484
7.728175163,0.6277596,-2.02515,-6.046706,-0.01031149,-0.0756252,0.9865605,29.33806,0.7046709,-24.17177,1003.485
7.747991085,0.5665261,-0.0282305,-5.312757,-0.005064291,-0.05464922,0.9909836,29.33806,0.7046709,-24.17177,1003.485
7.770284176,0.1991253,0.2138203,-4.211833,-0.05608791,0.01907929,0.9824707,29.33806,0.7046709,-24.17177,1003.486
7.790100098,0.1378918,-0.2097686,-1.031385,0.0004643744,0.006759251,1.001888,29.32656,1.438062,-24.18473,1003.486
7.809915543,0.1378918,0.1533076,-1.092547,-0.01849871,0.002752807,0.9966614,29.32656,1.438062,-24.18473,1003.484
7.829731465,0.07665838,0.3953584,-0.3585979,-0.003892937,0.005284028,1.005283,29.32727,1.445279,-23.80472,1003.484
7.849547863,0.1991253,0.1533076,-0.1751105,-0.0009744524,0.002855133,1.001393,29.32727,1.445279,-23.80472,1003.484
7.869363785,0.07665838,-0.0887432,-0.05278558,-0.002447112,0.00234894,0.9965715,29.32727,1.445279,-23.80472,1003.484
7.889179707,0.2603588,0.0927949,-0.236273,-0.004402267,0.002331842,0.993686,29.32248,1.750858,-23.81012,1003.484
7.908996105,0.1991253,0.0322822,-0.1751105,-0.001468957,0.004313389,1.001403,29.32248,1.750858,-23.81012,1003.484
7.928812027,0.07665838,0.1533076,-0.236273,-0.002919261,0.0004010687,0.9975294,29.69709,1.442044,-24.18612,1003.483
7.948627472,0.1378918,0.274333,-0.113948,-0.004400605,0.003799646,0.9965896,29.69709,1.442044,-24.18612,1003.483
7.968443394,-0.04580855,-0.0282305,-0.1751105,-0.002435657,0.0008905102,0.9975293,29.69709,1.442044,-24.18612,1003.482
7.988259792,0.1991253,0.0927949,-0.1751105,-0.002437782,0.004799968,1.003342,29.33231,1.071366,-24.17825,1003.482
8.008075714,0.07665838,0.1533076,-0.1751105,0.0004703104,0.001874773,0.9955877,29.33231,1.071366,-24.17825,1003.481
8.030368805,0.1991253,-0.0282305,-0.1751105,-0.00193568,-7.496309E-05,0.999935,29.33806,0.7046709,-24.17177,1003.481
8.050184727,0.1378918,0.0927949,-0.2974354,-0.002917599,0.001868873,1.000433,29.33806,0.7046709,-24.17177,1003.478
8.070000649,0.1991253,0.274333,-0.05278558,-0.002438382,0.001377435,0.9975318,29.33806,0.7046709,-24.17177,1003.478
8.089817047,0.2603588,0.0322822,-0.113948,-0.00148697,0.005767132,0.9985145,30.06284,1.751606,-24.19291,1003.479
8.109632969,0.4440592,0.0322822,-0.236273,-0.004889082,0.006239954,0.9999836,30.06284,1.751606,-24.19291,1003.479
8.129448414,0.07665838,0.3348457,-0.236273,-0.0004958124,0.000407794,0.9951028,29.70285,1.075349,-24.17964,1003.478
8.149264336,0.2603588,0.0927949,-0.05278558,-0.004395708,0.002336529,0.9956167,29.70285,1.075349,-24.17964,1003.478
8.169080734,0.1991253,-0.0887432,0.008376881,-0.006803893,-0.0001036474,0.9985135,29.70285,1.075349,-24.17964,1003.477
8.188896656,0.3215923,0.0322822,-0.113948,-0.001940576,0.001388154,1.000908,28.96248,1.0746,-23.79685,1003.477
8.208712578,0.3215923,-0.0887432,-0.05278558,-0.004862894,0.003325438,1.002864,28.96248,1.0746,-23.79685,1003.477
8.228528976,0.2603588,-0.1492559,0.008376881,0.000953892,0.000897582,0.9931666,28.95673,1.441296,-23.80333,1003.477
8.248344898,0.2603588,-0.0282305,-0.1751105,-0.004362454,-0.003017297,0.9965544,28.95673,1.441296,-23.80333,1003.476
8.268160820,0.2603588,0.0927949,-0.05278558,-0.004873862,0.0008732384,0.9956118,28.95673,1.441296,-23.80333,1003.476
8.287976265,0.1991253,0.0322822,-0.05278558,0.0009555544,0.002365386,0.9960703,29.32656,1.438062,-24.18473,1003.475
8.310269833,0.2603588,0.0322822,-0.113948,0.002931447,0.0004418173,1.001842,29.32656,1.438062,-24.18473,1003.475
8.330085278,0.1378918,0.0322822,-0.05278558,-0.004859661,0.0003945162,0.998988,28.96177,1.067383,-24.17686,1003.48
8.349901676,0.2603588,0.2138203,-0.05278558,-0.00145584,0.004322764,1.005264,28.96177,1.067383,-24.17686,1003.48
8.369717598,0.1378918,0.0927949,-0.05278558,0.0009675173,-0.001537041,0.993154,28.96177,1.067383,-24.17686,1003.481
8.389533520,0.07665838,0.0322822,-0.1751105,-0.0009798796,0.005295614,1.003819,29.33877,0.7118878,-23.79176,1003.481
8.409349918,0.2603588,-0.0887432,-0.113948,-0.004889105,0.004773322,0.9975627,29.33877,0.7118878,-23.79176,1003.482
8.429165840,0.1378918,0.2138203,-0.05278558,-0.0004794165,0.0004195119,0.9999296,29.69639,1.434827,-24.56614,1003.482
8.448981762,0.3215923,-0.0282305,-0.1751105,-0.0009875689,0.002845759,0.9975314,29.69639,1.434827,-24.56614,1003.484
8.468798161,0.1991253,0.0927949,-0.1751105,-0.0005044967,0.004312564,0.9989843,29.69639,1.434827,-24.56614,1003.484
8.488614082,0.1991253,0.0322822,-0.236273,-0.001949328,0.0008930271,0.9975266,29.3316,1.064149,-24.55827,1003.485
8.508429527,0.1378918,-0.0887432,-0.113948,-0.003916446,0.004778355,0.9975574,29.3316,1.064149,-24.55827,1003.485
8.528245449,0.2603588,0.0322822,-0.113948,-0.002421455,0.000411788,1.000906,29.33231,1.071366,-24.17825,1003.484
8.548061848,0.1991253,-0.0282305,-0.113948,-0.005819226,-0.001067776,1.000434,29.33231,1.071366,-24.17825,1003.484
8.567877770,0.07665838,0.0927949,-0.113948,0.001469734,0.0009211913,1.001852,29.33231,1.071366,-24.17825,1003.486
8.590170860,0.07665838,-0.0282305,-0.113948,-0.003434458,0.006733257,0.9994954,28.59124,1.0634,-24.17548,1003.486
8.609986782,0.1991253,0.0927949,-0.05278558,-0.0009842899,0.002848102,0.9984968,28.59124,1.0634,-24.17548,1003.487
8.629803181,0.07665838,-0.0282305,-0.113948,-0.006302829,-0.001557217,1.000434,29.32727,1.445279,-23.80472,1003.487
8.649619103,0.1378918,0.0322822,-0.1751105,-0.004364579,0.0008921606,1.002367,29.32727,1.445279,-23.80472,1003.488
8.669435024,0.2603588,-0.0282305,-0.113948,0.002939622,-0.001018956,1.001834,29.32727,1.445279,-23.80472,1003.488
8.689250469,0.1378918,0.3348457,-0.1751105,-0.002917599,0.001868873,1.000433,29.32656,1.438062,-24.18473,1003.489
8.709067345,0.2603588,-0.1492559,0.008376881,-0.001480434,0.004305187,0.9980242,29.32656,1.438062,-24.18473,1003.489
8.728882790,0.3215923,-0.0282305,-0.1751105,-0.00193023,-0.001048812,0.99993,29.32656,1.438062,-24.18473,1003.487
8.748698712,0.07665838,0.0322822,-0.113948,-0.003892475,-9.323331E-05,0.9965668,28.95602,1.434079,-24.18335,1003.487
8.768515110,0.1378918,0.0322822,-0.1751105,-0.001475561,0.001375438,0.9946304,28.95602,1.434079,-24.18335,1003.488
8.788331032,0.1991253,0.0927949,-0.1751105,-0.003879335,0.001382773,1.002849,29.69639,1.434827,-24.56614,1003.488
8.808146954,0.2603588,0.1533076,-0.1751105,-0.002917045,0.002358141,1.001401,29.69639,1.434827,-24.56614,1003.487
8.827963352,0.1378918,-0.1492559,-0.236273,-0.001937851,0.0009012294,1.000905,29.69639,1.434827,-24.56614,1003.487
8.850256443,0.1991253,0.0927949,-0.113948,-0.0009646148,0.002862164,1.004289,29.69709,1.442044,-24.18612,1003.488
8.870072365,0.3215923,0.1533076,-0.05278558,-0.0009853526,0.004802831,1.001403,29.69709,1.442044,-24.18612,1003.488
8.889888287,0.1378918,0.1533076,0.008376881,-0.002430762,-0.0005726074,0.9965563,29.3316,1.064149,-24.55827,1003.487
8.909703732,0.1378918,-0.0282305,-0.113948,-0.001958589,0.002841897,0.9980193,29.3316,1.064149,-24.55827,1003.487
8.929520607,0.07665838,0.1533076,-0.05278558,-0.0004826961,0.000417168,0.9989641,29.3316,1.064149,-24.55827,1003.486
8.949336052,0.1378918,0.0927949,-0.113948,-0.006319134,0.004297595,1.005291,29.33877,0.7118878,-23.79176,1003.486
8.969151974,0.3215923,0.0927949,-0.1751105,-0.001476115,0.0008861695,0.9936626,29.33877,0.7118878,-23.79176,1003.483
8.988968372,0.1378918,0.0322822,-0.1751105,-0.0009799255,0.002362349,0.9989768,29.69639,1.434827,-24.56614,1003.483
9.008784294,0.1991253,0.2138203,-0.3585979,-0.0005110549,0.004307877,0.9970536,29.69639,1.434827,-24.56614,1003.482
9.028600216,0.1991253,0.1533076,-0.05278558,-0.006323522,0.003316715,1.00239,29.69639,1.434827,-24.56614,1003.482
9.048416615,0.1378918,0.2138203,0.06953934,-0.003417531,0.005767611,1.002869,29.33231,1.071366,-24.17825,1003.483
9.068232536,0.1378918,0.0322822,-0.113948,-0.002909424,0.0004080993,1.000425,29.33231,1.071366,-24.17825,1003.483
9.088047981,0.1991253,0.1533076,-0.05278558,-0.00292686,0.003817743,1.000926,29.33302,1.078583,-23.79824,1003.484
9.110341549,0.2603588,0.0322822,-0.1751105,-0.0009837358,0.00333737,0.9994646,29.33302,1.078583,-23.79824,1003.484
9.130157948,0.1378918,0.2138203,-0.1751105,0.001457771,0.004823618,1.004768,29.33302,1.078583,-23.79824,1003.484
9.149973393,0.1991253,-0.0282305,-0.113948,0.00146209,0.0014046,1.000407,29.70356,1.082566,-23.79963,1003.484
9.169789314,0.07665838,0.2138203,-0.113948,-0.003888573,0.004798276,1.005763,29.70356,1.082566,-23.79963,1003.483
9.189605713,0.2603588,0.274333,-0.05278558,-0.01119557,0.002796419,0.999035,29.69709,1.442044,-24.18612,1003.483
9.209421635,0.01542491,0.0927949,0.008376881,-0.005839963,0.000872892,0.9975479,29.69709,1.442044,-24.18612,1003.484
9.229237557,0.3215923,0.1533076,-0.113948,-0.00388975,-0.0005801579,0.9965643,29.69709,1.442044,-24.18612,1003.484
9.249053955,0.07665838,0.0322822,-0.05278558,-0.001449327,0.001394186,1.002353,28.95194,1.746875,-23.80873,1003.483
9.268869877,0.2603588,0.1533076,-0.236273,-0.00292522,0.003818914,1.001408,28.95194,1.746875,-23.80873,1003.483
9.288685799,0.07665838,0.1533076,-0.1751105,-0.002422564,-0.0005667484,0.9989697,29.70356,1.082566,-23.79963,1003.485
9.308502197,0.3215923,0.0927949,-0.113948,-0.0004712413,-0.001041261,0.999922,29.70356,1.082566,-23.79963,1003.485
9.328318119,0.1378918,0.0927949,-0.05278558,-0.002429099,0.0008951973,0.99946,29.70356,1.082566,-23.79963,1003.486
9.348133564,0.2603588,0.0927949,-0.2974354,-0.002932841,0.005768957,1.002384,29.32177,1.743641,-24.19013,1003.486
9.367950440,0.07665838,0.2138203,-0.05278558,-0.001454246,0.001390671,1.000905,29.32177,1.743641,-24.19013,1003.485
9.390243530,0.1991253,0.0322822,-0.1751105,-0.00147279,0.003821778,0.9994698,29.32177,1.743641,-24.19013,1003.485
9.410058975,0.07665838,0.1533076,-0.113948,-0.002889772,-0.001044472,1.003797,29.32177,1.743641,-24.19013,1003.488
9.429874897,0.1991253,0.2138203,-0.1751105,-0.004879844,0.002824452,0.9970699,29.32177,1.743641,-24.19013,1003.488
9.449691296,0.01542491,0.1533076,0.008376881,-0.002427459,0.0008963691,0.9999427,29.70356,1.082566,-23.79963,1003.487
9.469507218,0.2603588,0.274333,-0.05278558,0.00145119,0.003352298,1.000417,29.70356,1.082566,-23.79963,1003.487
9.489323139,0.3215923,0.274333,-0.113948,-0.006833891,0.00378589,0.9961202,29.3316,1.064149,-24.55827,1003.487
9.509139538,0.1378918,0.2138203,-0.05278558,-0.0009695792,-7.461663E-05,0.997999,29.3316,1.064149,-24.55827,1003.487
9.528955460,0.07665838,0.0322822,-0.113948,-0.001028513,0.005749729,0.9903064,29.3316,1.064149,-24.55827,1003.489
9.548771382,0.1991253,0.0927949,-0.1751105,0.001467563,0.001897384,1.002823,29.32656,1.438062,-24.18473,1003.489
9.568587780,0.1378918,0.0322822,-0.113948,-0.002920347,0.0008891649,0.9980146,29.32656,1.438062,-24.18473,1003.488
9.588403225,0.2603588,0.0927949,-0.113948,-0.001987524,0.004776705,0.99272,29.32177,1.743641,-24.19013,1003.488
9.608219147,0.3215923,0.0322822,0.008376881,-0.004847629,0.0008919871,1.003335,29.32177,1.743641,-24.19013,1003.488
9.628035545,0.01542491,0.1533076,-0.113948,-0.00101759,0.005268663,0.9927172,29.32177,1.743641,-24.19013,1003.488
9.647851467,0.2603588,0.0322822,-0.113948,0.001927682,0.003347785,0.9975181,28.95673,1.441296,-23.80333,1003.487
9.670144558,0.2603588,0.0927949,-0.05278558,0.002899764,0.001396918,0.994124,28.95673,1.441296,-23.80333,1003.487
9.689960480,0.2603588,-0.0282305,0.008376881,-0.002420878,0.002367689,1.004294,29.69639,1.434827,-24.56614,1003.49
9.709776879,0.1378918,-0.0282305,-0.05278558,-0.005344328,0.001859804,1.001894,29.69639,1.434827,-24.56614,1003.49
9.729592800,0.1991253,0.0927949,-0.05278558,-0.009727851,0.001832465,0.9999875,29.69639,1.434827,-24.56614,1003.487
9.749409199,0.2603588,-0.0282305,-0.05278558,-0.002414389,-0.002027522,0.9989622,29.33736,0.697454,-24.55179,1003.487
9.769225121,0.3828257,-0.0282305,-0.05278558,0.0004856212,0.002374587,1.0009,29.33736,0.697454,-24.55179,1003.486
9.789041043,0.07665838,-0.0887432,-0.2974354,0.0009703108,0.002375932,1.000414,29.32585,1.430845,-24.56475,1003.486
9.808857441,0.1991253,-0.0282305,-0.1751105,-0.001473322,0.004799142,1.000923,29.32585,1.430845,-24.56475,1003.485
9.828673840,0.07665838,-0.2097686,-0.1751105,-0.001471151,0.00382295,0.9999525,29.32585,1.430845,-24.56475,1003.485
9.848488808,0.2603588,0.0322822,-0.2974354,-0.001442215,0.001888141,1.005252,29.69709,1.442044,-24.18612,1003.485
9.868305683,0.2603588,0.0322822,-0.1751105,0.0009811881,-0.001038398,0.9979833,29.69709,1.442044,-24.18612,1003.485
9.888121128,0.07665838,0.274333,-0.1751105,-0.002437251,0.003822603,1.001889,29.69709,1.442044,-24.18612,1003.484
9.907937050,0.3828257,0.0927949,-0.05278558,-0.002419239,0.00236886,1.004777,29.32727,1.445279,-23.80472,1003.484
9.930230141,0.1378918,0.0927949,-0.1751105,-0.001484268,0.003813575,0.9960911,29.32727,1.445279,-23.80472,1003.485
9.950046540,0.1991253,0.0322822,-0.236273,-1.771841E-07,0.001394706,0.9994493,29.32585,1.430845,-24.56475,1003.485
9.969862461,0.2603588,0.0322822,-0.05278558,1.785811E-05,0.001407596,1.004759,29.32585,1.430845,-24.56475,1003.486
9.989678383,0.07665838,0.1533076,-0.113948,-0.00340282,0.002844892,1.002371,29.32585,1.430845,-24.56475,1003.486
10.009494781,0.1378918,0.274333,-0.113948,-0.005347075,0.000880096,0.9994759,29.69709,1.442044,-24.18612,1003.482
10.029310703,0.1991253,-0.0282305,-0.236273,-0.002911618,-8.234056E-05,0.9989749,29.69709,1.442044,-24.18612,1003.482
10.049127102,0.1378918,0.0927949,-0.1751105,-0.001459651,0.005297785,1.005752,30.06763,1.446027,-24.18751,1003.483
10.068943024,0.1991253,0.1533076,-0.1751105,-0.002927414,0.003328475,0.9999579,30.06763,1.446027,-24.18751,1003.483
10.088758469,0.01542491,-0.1492559,-0.113948,0.0009446999,0.007246349,1.000922,30.06763,1.446027,-24.18751,1003.482
10.108575344,0.07665838,0.0927949,0.008376881,-0.00145099,-7.361802E-05,0.9994497,29.69709,1.442044,-24.18612,1003.482
10.128390789,0.1378918,-0.0282305,-0.1751105,-0.0009788398,0.001874253,0.9984918,29.69709,1.442044,-24.18612,1003.483
10.148207665,0.1378918,0.0927949,0.06953934,-0.005843774,0.001847913,0.9980355,30.06834,1.453244,-23.80749,1003.483
10.168023109,0.1378918,0.1533076,-0.05278558,-0.001959143,0.002352629,0.9970515,30.06834,1.453244,-23.80749,1003.482
10.187839031,0.01542491,0.1533076,-0.05278558,-0.001461336,0.002363348,1.000427,30.06834,1.453244,-23.80749,1003.482
10.210132122,0.3215923,0.0927949,-0.1751105,0.0009702879,0.0009092999,0.9979934,30.0741,1.086549,-23.80101,1003.483
10.229948521,0.07665838,-0.0282305,-0.05278558,-1.262408E-06,0.001882802,0.9999345,30.0741,1.086549,-23.80101,1003.483
10.249764443,0.1991253,0.1533076,-0.1751105,0.00290362,0.003355162,0.9984781,29.6916,1.740407,-24.57154,1003.483
10.269580364,0.1991253,0.2138203,-0.113948,-0.005336197,-0.002534235,0.9970449,29.6916,1.740407,-24.57154,1003.483
10.289396763,0.07665838,-0.0887432,-0.1751105,0.0004670995,0.006272327,1.001885,29.6916,1.740407,-24.57154,1003.478
10.309212685,0.1378918,-0.0282305,-0.1751105,0.0004681849,0.00578423,1.0014,29.69301,1.75484,-23.8115,1003.478
10.329029083,0.01542491,0.0927949,-0.05278558,-0.0009717273,0.002368208,1.00139,29.69301,1.75484,-23.8115,1003.479
10.348845005,0.1991253,-0.0282305,-0.05278558,-0.005371624,0.003795784,0.9970776,29.33806,0.7046709,-24.17177,1003.479
10.368660927,0.1991253,0.0322822,-0.113948,-1.929817E-05,0.001869913,0.994625,29.33806,0.7046709,-24.17177,1003.478
10.388477326,0.1378918,-0.0282305,-0.1751105,-0.003427946,0.003804679,0.9965843,29.33806,0.7046709,-24.17177,1003.478
10.408292770,0.1991253,0.0322822,-0.113948,-0.0009831588,0.005293271,1.002853,29.69851,1.456478,-23.42609,1003.477
10.428109646,0.1378918,-0.0887432,-0.113948,-0.000982096,0.003338542,0.9999474,29.69851,1.456478,-23.42609,1003.477
10.447925091,0.1378918,0.1533076,-0.05278558,-0.0005165278,0.003815094,0.9946377,29.32727,1.445279,-23.80472,1003.478
10.470218182,0.1378918,-0.0887432,-0.1751105,-0.004850354,0.001378912,1.003337,29.32727,1.445279,-23.80472,1003.478
10.490034104,0.07665838,-0.0887432,-0.113948,-0.003435035,0.004777357,0.9961067,29.32727,1.445279,-23.80472,1003.477
10.509850502,0.3215923,0.0322822,-0.05278558,0.0009424831,0.005289277,0.9970507,29.69709,1.442044,-24.18612,1003.477
10.529667378,0.1991253,0.2138203,-0.113948,0.002421078,0.0009109916,0.995572,29.69709,1.442044,-24.18612,1003.477
10.549482823,-0.04580855,0.0927949,-0.113948,0.001942992,0.003847599,1.00283,28.58548,1.430096,-24.18196,1003.477
10.569298744,0.1378918,0.1533076,-0.113948,-0.002439999,0.002842895,0.9994701,28.58548,1.430096,-24.18196,1003.478
10.589114666,0.2603588,0.0927949,-0.05278558,-0.002430161,0.002849926,1.002366,28.58548,1.430096,-24.18196,1003.478
10.608931065,0.1991253,-0.0282305,0.008376881,-0.003377209,-0.002025525,1.001864,28.95602,1.434079,-24.18335,1003.479
10.628746987,0.07665838,-0.0282305,-0.113948,-0.007284727,0.001853252,1.003353,28.95602,1.434079,-24.18335,1003.479
10.648563385,0.2603588,0.2138203,-0.2974354,-0.00632082,0.001363158,0.9999664,29.70356,1.082566,-23.79963,1003.48
10.668379307,0.2603588,-0.0282305,-0.113948,-0.004402244,0.003798474,0.996107,29.70356,1.082566,-23.79963,1003.48
10.688195229,0.1991253,0.2138203,0.008376881,-0.003897902,0.002347248,0.9989927,29.70356,1.082566,-23.79963,1003.48
10.708011627,0.1991253,0.0322822,0.008376881,-0.003398455,0.002359139,1.002851,29.32656,1.438062,-24.18473,1003.48
10.727827072,0.1991253,0.0322822,-0.05278558,0.003901912,-4.358892E-05,1.000386,29.32656,1.438062,-24.18473,1003.479
10.750120640,0.1991253,-0.0887432,-0.113948,-0.0004870375,0.002369554,1.000905,29.6978,1.449261,-23.8061,1003.479
10.769937039,0.2603588,0.2138203,-0.1751105,-0.003884254,0.001379258,1.001401,29.6978,1.449261,-23.8061,1003.478
10.789752484,0.01542491,-0.0887432,-0.113948,-0.003908225,0.006250847,1.002392,29.6978,1.449261,-23.8061,1003.478
10.809568405,0.1378918,0.2138203,0.008376881,0.002883436,0.005785097,0.9965599,28.96177,1.067383,-24.17686,1003.48
10.829384804,0.2603588,0.0322822,-0.05278558,-0.001428636,-0.003479746,1.000397,28.96177,1.067383,-24.17686,1003.48
10.849200726,0.2603588,-0.0887432,-0.113948,-0.002951985,0.00477753,0.9951387,29.69301,1.75484,-23.8115,1003.474
10.869017124,0.3215923,0.0322822,-0.1751105,-0.006827887,0.003301309,0.997083,29.69301,1.75484,-23.8115,1003.474
10.888833046,0.07665838,0.0322822,-0.05278558,-0.001006113,0.005276865,0.996096,29.69301,1.75484,-23.8115,1003.473
10.908649445,0.1991253,0.0927949,-0.113948,-0.002463439,0.006737119,0.9990074,28.96095,1.058963,-24.62022,1003.473
10.928465367,0.2603588,0.0927949,-0.236273,-0.002925774,0.003329646,1.00044,28.96095,1.058963,-24.62022,1003.475
10.948281288,0.2603588,0.274333,0.008376881,-0.002407807,-0.0005562021,1.003314,28.96248,1.0746,-23.79685,1003.475
10.968097687,0.1378918,0.1533076,-0.236273,-0.004370652,-0.003023156,0.9941411,28.96248,1.0746,-23.79685,1003.474
10.987913609,0.1991253,0.2138203,-0.1751105,0.0004910482,-6.58941E-05,0.9984738,28.96248,1.0746,-23.79685,1003.474
11.010206699,-0.04580855,-0.0282305,-0.113948,-0.003911482,0.007715135,1.003847,29.70202,1.066929,-24.623,1003.475
11.030023098,0.1991253,0.2138203,-0.05278558,-0.002924134,0.003330818,1.000923,29.70202,1.066929,-24.623,1003.475
11.049839020,0.07665838,0.0322822,-0.113948,-0.002932356,0.001858327,0.996089,29.32177,1.743641,-24.19013,1003.476
11.069655418,0.07665838,0.1533076,-0.2974354,-0.002933395,0.005279688,1.001416,29.32177,1.743641,-24.19013,1003.476
11.089471340,0.07665838,0.2138203,-0.05278558,-0.00195203,0.002846584,0.9999501,29.32177,1.743641,-24.19013,1003.477
11.109286785,0.1378918,0.0927949,-0.05278558,0.001436988,0.003831021,0.9970405,29.69709,1.442044,-24.18612,1003.477
11.129103661,0.1378918,-0.0282305,-0.05278558,-0.0004979379,0.004317251,1.000915,29.69709,1.442044,-24.18612,1003.475
11.148919106,0.1378918,0.0322822,-0.05278558,-0.003399541,0.002847236,1.003337,29.69709,1.442044,-24.18612,1003.475
11.168735981,0.1991253,0.0927949,-0.1751105,-0.002438914,0.002354799,0.9989848,30.06763,1.446027,-24.18751,1003.472
11.188551426,0.1991253,-0.0282305,-0.236273,-0.001458057,0.002365691,1.001393,30.06763,1.446027,-24.18751,1003.472
11.208367825,0.07665838,0.0927949,-0.1751105,-0.005848116,0.003800298,0.9999763,28.96095,1.058963,-24.62022,1003.473
11.228183746,0.2603588,0.0322822,0.008376881,-0.003393005,0.00138529,1.002846,28.96095,1.058963,-24.62022,1003.473
11.247999668,0.3215923,0.2138203,-0.236273,-0.001935126,0.0004143047,1.000903,28.96095,1.058963,-24.62022,1003.475
11.270292759,0.3215923,0.0322822,-0.113948,-0.004858529,0.002839685,1.003345,29.70356,1.082566,-23.79963,1003.475
11.290109158,0.1378918,0.2138203,-0.2974354,-0.002415474,-0.001539425,0.9994474,29.70356,1.082566,-23.79963,1003.477
11.309925079,0.07665838,0.0927949,0.008376881,-0.002410532,-6.927736E-05,1.003316,28.96753,0.7006884,-24.17039,1003.477
11.329741478,0.07665838,0.1533076,-0.113948,-0.0004968527,0.003829155,1.00043,28.96753,0.7006884,-24.17039,1003.476
11.349557400,0.2603588,-0.0282305,-0.113948,-0.0004826277,0.004817066,1.006227,28.96753,0.7006884,-24.17039,1003.476
11.369373798,0.1991253,0.2138203,-0.113948,-0.002451476,0.002834693,0.9960914,28.95673,1.441296,-23.80333,1003.476
11.389189720,0.1378918,0.0927949,-0.1751105,-0.001471173,0.002356317,0.9975316,28.95673,1.441296,-23.80333,1003.476
11.409006119,0.07665838,0.1533076,-0.236273,-0.002923626,0.0008868214,0.9970492,29.32656,1.438062,-24.18473,1003.476
11.428822041,0.1991253,0.0927949,-0.113948,-0.002910532,-0.0005704367,0.9984898,29.32656,1.438062,-24.18473,1003.476
11.448637962,-0.04580855,0.2138203,-0.113948,0.0004982061,0.003361326,1.006214,29.32656,1.438062,-24.18473,1003.475
11.468454361,0.3215923,0.2138203,-0.236273,-0.00535361,0.002342041,0.9999661,28.95602,1.434079,-24.18335,1003.475
11.488270283,0.1378918,0.1533076,-0.1751105,-0.003913766,0.001358166,0.992713,28.95602,1.434079,-24.18335,1003.474
11.508086681,0.2603588,0.0927949,-0.2974354,-0.005815392,-0.0005761636,1.002367,30.06763,1.446027,-24.18751,1003.474
11.527902126,0.1378918,0.0927949,-0.113948,-1.324853E-05,0.004318596,1.00043,30.06763,1.446027,-24.18751,1003.475
11.550195694,0.1378918,0.0927949,-0.113948,-0.0009619354,-0.0005580257,0.9994445,30.06763,1.446027,-24.18751,1003.475
11.570012093,0.4440592,0.274333,-0.05278558,-0.006841535,0.004269299,0.9946746,28.96177,1.067383,-24.17686,1003.476
11.589827538,0.1991253,0.1533076,-0.236273,-0.006328464,0.001846567,0.9985209,28.96177,1.067383,-24.17686,1003.476
11.609644413,0.1991253,0.2138203,0.008376881,-0.000508884,0.003331685,0.9960833,29.6978,1.449261,-23.8061,1003.477
11.629459858,0.1991253,0.2138203,0.008376881,-0.005367259,0.003310031,0.9975578,29.6978,1.449261,-23.8061,1003.477
11.649276734,0.3828257,0.2138203,-0.113948,-0.0048613,0.0003933446,0.9985054,29.6978,1.449261,-23.8061,1003.474
11.669092179,0.1378918,0.3348457,0.008376881,-0.005361232,0.004292083,1.000942,29.6923,1.747623,-24.19152,1003.474
11.688908100,0.1991253,0.1533076,-0.1751105,-0.003414343,-9.657489E-05,0.9941509,29.6923,1.747623,-24.19152,1003.474
11.708724499,0.1378918,0.0322822,-0.236273,-0.0009624665,0.0004193385,1.000898,28.96248,1.0746,-23.79685,1003.474
11.728540421,0.3828257,0.0927949,-0.05278558,-0.002449305,0.0018585,0.9951209,28.96248,1.0746,-23.79685,1003.475
11.748356819,0.1991253,0.0322822,-0.1751105,-0.005360746,0.0003814534,0.9946465,28.96248,1.0746,-23.79685,1003.475
11.768172741,0.01542491,0.1533076,-0.236273,-0.001948174,0.004804828,1.004304,29.32177,1.743641,-24.19013,1003.476
11.787989140,0.01542491,0.2138203,0.008376881,-0.002422564,-0.0005667484,0.9989697,29.32177,1.743641,-24.19013,1003.476
11.810282231,0.1378918,0.1533076,-0.113948,-0.001446625,-0.0005593707,0.9999298,30.45543,0.3499246,-24.16946,1003.478
11.830098152,0.1991253,0.1533076,-0.113948,-0.005831211,0.001368019,1.000929,30.45543,0.3499246,-24.16946,1003.478
11.849914551,0.1991253,0.2138203,-0.05278558,-0.006337725,0.003795437,0.9990135,30.45543,0.3499246,-24.16946,1003.477
11.869730473,0.2603588,0.0927949,-0.113948,-0.002930116,0.005282031,1.002381,29.69709,1.442044,-24.18612,1003.477
11.889546871,0.07665838,0.2138203,-0.1751105,-0.002455287,0.003809713,0.996579,29.69709,1.442044,-24.18612,1003.476
11.909362793,0.1378918,0.0927949,0.008376881,-0.005345413,0.0023479,1.00238,29.69301,1.75484,-23.8115,1003.476
11.929179192,0.1378918,0.0322822,-0.05278558,-0.009259511,0.004755357,0.9995172,29.69301,1.75484,-23.8115,1003.475
11.948995114,0.1378918,0.2138203,0.008376881,-0.002911086,-0.001059705,0.9975219,29.69301,1.75484,-23.8115,1003.475
11.968811512,0.1991253,0.3348457,-0.05278558,-0.001956926,0.004309701,1.000923,29.70285,1.075349,-24.17964,1003.474
11.988627434,0.1991253,0.2138203,-0.113948,-0.003914829,0.003312895,0.9956191,29.70285,1.075349,-24.17964,1003.474
12.008443832,0.1991253,0.1533076,-0.05278558,-0.0009995096,0.008214818,1.002868,29.6923,1.747623,-24.19152,1003.473
12.028259754,0.1991253,0.0927949,-0.113948,-0.002939954,0.005275001,0.9994853,29.6923,1.747623,-24.19152,1003.473
12.048076153,0.1991253,0.2138203,-0.05278558,-0.00293231,0.004791592,1.000931,29.6923,1.747623,-24.19152,1003.474
12.067892075,0.1991253,0.1533076,-0.1751105,-0.009238819,-0.0001185751,0.9975614,28.95041,1.731238,-24.6321,1003.474
12.090185165,0.1991253,0.0322822,-0.1751105,-0.005852526,0.001352786,0.9946542,28.95041,1.731238,-24.6321,1003.473
12.110001564,0.3828257,0.0322822,-0.05278558,-0.002948152,0.005269142,0.9970719,29.32318,1.758075,-23.4301,1003.473
12.129817486,0.2603588,0.1533076,-0.1751105,-0.0009657228,0.001883628,1.002353,29.32318,1.758075,-23.4301,1003.474
12.149632931,0.07665838,0.0927949,-0.05278558,-0.006321374,0.0008738901,0.9989984,29.32318,1.758075,-23.4301,1003.474
12.169449806,0.1378918,0.0322822,-0.113948,-0.006338301,0.001839537,0.9956248,29.68655,2.114319,-24.198,1003.473
12.189266205,0.01542491,0.0927949,0.008376881,-0.005327423,-0.0005724751,1.002847,29.68655,2.114319,-24.198,1003.473
12.209082127,0.07665838,0.0322822,-0.05278558,-0.003898433,0.003324613,1.000446,29.69709,1.442044,-24.18612,1003.472
12.228897572,0.01542491,-0.0282305,-0.05278558,-0.009227319,0.00135626,1.003361,29.69709,1.442044,-24.18612,1003.472
12.248713970,0.1378918,0.2138203,-0.113948,-0.004390767,0.003806677,0.9994857,29.69709,1.442044,-24.18612,1003.471
12.268529892,0.1378918,0.1533076,-0.1751105,-0.004843287,-0.001060398,1.001394,28.95602,1.434079,-24.18335,1003.471
12.288346291,0.01542491,0.0322822,-0.05278558,-0.08770262,0.08833317,1.095946,28.95602,1.434079,-24.18335,1003.47
12.308162212,0.3215923,0.0927949,-0.113948,-0.007299438,0.00477597,1.003851,28.95602,1.434079,-24.18335,1003.47
12.327978611,0.07665838,0.1533076,-0.1751105,-0.005330148,-8.555059E-05,1.00285,28.95602,1.434079,-24.18335,1003.472
12.350271702,0.1378918,0.0927949,0.008376881,-0.006826779,0.004279844,0.9990187,28.95602,1.434079,-24.18335,1003.472
12.370087624,0.2603588,0.274333,-0.1751105,-0.004376587,0.001861322,1.000441,29.69301,1.75484,-23.8115,1003.473
12.389904022,0.1991253,0.0927949,-0.113948,-0.003451431,0.004765639,0.9912799,29.69301,1.75484,-23.8115,1003.473
12.409719944,0.1991253,-0.0282305,-0.05278558,-0.004868367,0.002832654,1.000449,29.69301,1.75484,-23.8115,1003.474
12.429536343,0.2603588,0.0927949,-0.1751105,-0.00194113,0.000898886,0.99994,28.96177,1.067383,-24.17686,1003.474
12.449352265,0.1378918,0.274333,-0.236273,-0.005356358,0.001362333,0.9975477,28.96177,1.067383,-24.17686,1003.474
12.469168663,0.1378918,-0.0282305,-0.113948,-0.0009755378,0.003343229,1.001878,30.06834,1.453244,-23.80749,1003.474
12.488984585,0.1991253,-0.0887432,-0.1751105,-0.00488802,0.004285225,0.9970775,30.06834,1.453244,-23.80749,1003.475
12.508800984,0.1991253,0.0927949,-0.113948,0.001425533,0.00528945,0.9960827,30.06834,1.453244,-23.80749,1003.475
12.528616905,0.1378918,0.2138203,-0.113948,-0.002436189,0.001867874,0.9989823,29.70202,1.066929,-24.623,1003.476
12.548433304,0.07665838,0.1533076,0.008376881,-0.004391852,0.004294773,0.9999709,29.70202,1.066929,-24.623,1003.476
12.568249703,0.2603588,0.0322822,-0.113948,-0.005852989,0.006730048,1.00337,28.95744,1.448513,-23.42331,1003.476
12.588065624,0.1991253,0.0927949,-0.113948,-0.008265029,0.002331627,1.001913,28.95744,1.448513,-23.42331,1003.476
12.607882023,0.1991253,0.0927949,-0.05278558,-0.006347008,0.004277674,0.9970854,28.95744,1.448513,-23.42331,1003.476
12.630175114,0.1378918,0.0927949,0.06953934,-0.003387001,0.0009007095,1.003809,28.95673,1.441296,-23.80333,1003.476
12.649991036,0.1991253,-0.0282305,-0.236273,-0.004866727,0.002833826,1.000931,28.95673,1.441296,-23.80333,1003.478
12.669807434,0.3215923,-0.0282305,-0.236273,-0.005855205,0.004772975,0.9994987,29.32727,1.445279,-23.80472,1003.478
12.689623356,0.3215923,0.0322822,-0.113948,-0.001460782,0.002852616,1.001395,29.32727,1.445279,-23.80472,1003.477
12.709439755,0.1378918,0.1533076,0.008376881,-0.003904415,0.005275826,1.001904,29.32727,1.445279,-23.80472,1003.477
12.729255676,0.1378918,-0.0282305,-0.113948,-0.004890145,0.008194683,1.00289,28.95744,1.448513,-23.42331,1003.479
12.749072075,0.1378918,-0.0887432,-0.236273,-0.004859684,-0.001072116,0.9965671,28.95744,1.448513,-23.42331,1003.479
12.768887997,0.2603588,0.0322822,-0.236273,-0.005350885,0.001855117,0.9999636,28.9552,1.425659,-24.6267,1003.48
12.788704395,0.07665838,0.1533076,-0.113948,-0.003398455,0.002359139,1.002851,28.9552,1.425659,-24.6267,1003.48
12.808520317,0.07665838,0.0927949,0.008376881,-0.001946049,0.0008953705,0.998492,28.9552,1.425659,-24.6267,1003.481
12.828336716,0.07665838,0.0927949,-0.113948,-0.004392407,0.003805505,0.9990029,29.6923,1.747623,-24.19152,1003.481
12.848152638,0.1991253,-0.0887432,-0.113948,-0.007779254,0.001844876,1.000942,29.6923,1.747623,-24.19152,1003.483
12.867969036,0.1378918,0.2138203,-0.236273,-0.003407208,0.001864012,0.9994703,29.6978,1.449261,-23.8061,1003.483
12.890262127,0.1991253,0.0322822,-0.113948,-0.00680768,0.002338006,1.001422,29.6978,1.449261,-23.8061,1003.484
12.910078049,0.2603588,0.0927949,-0.05278558,-0.0009755834,0.0004099642,0.9970361,29.6978,1.449261,-23.8061,1003.484
12.929894448,0.1991253,0.1533076,-0.113948,-0.002425797,0.002364173,1.002846,29.70285,1.075349,-24.17964,1003.48
12.949710369,0.1991253,0.0927949,-0.113948,-0.007309852,0.002813039,0.9975659,29.70285,1.075349,-24.17964,1003.48
12.969526768,0.1378918,0.0322822,-0.05278558,-0.007798329,0.005253347,1.00096,28.95602,1.434079,-24.18335,1003.481
12.989342690,0.3828257,0.0322822,-0.1751105,-0.005842134,0.001849084,0.9985182,28.95602,1.434079,-24.18335,1003.481
13.009159088,0.1991253,0.0927949,-0.113948,-0.007308698,0.00672484,1.004343,28.95602,1.434079,-24.18335,1003.478
13.028975487,0.1991253,0.0322822,-0.113948,-0.008751336,0.003795743,1.004336,29.33231,1.071366,-24.17825,1003.478
13.048791409,0.01542491,0.0322822,-0.05278558,-0.0043946,0.003315065,0.9975525,29.33231,1.071366,-24.17825,1003.479
13.068607807,0.01542491,-0.0887432,-0.113948,-0.006312136,-0.002541612,0.9960849,29.32177,1.743641,-24.19013,1003.479
13.088423729,0.01542491,-0.0887432,-0.113948,-0.004906032,0.005738968,0.994189,29.32177,1.743641,-24.19013,1003.48
13.108240128,0.3215923,0.0322822,-0.1751105,-0.002930139,0.003815399,0.9999605,29.32177,1.743641,-24.19013,1003.48
13.128056049,0.1378918,0.0322822,-0.05278558,-0.006327333,0.004291736,1.002877,29.68726,2.121536,-23.81799,1003.479
13.147872448,0.3215923,-0.0887432,-0.1751105,-0.004856381,0.0003968601,0.9999534,29.68726,2.121536,-23.81799,1003.479
13.170165539,0.1378918,0.0322822,0.008376881,0.0019326,0.0033513,0.998966,30.0741,1.086549,-23.80101,1003.479
13.189981461,0.2603588,-0.0282305,-0.05278558,-0.001944941,0.001873906,1.000428,30.0741,1.086549,-23.80101,1003.479
13.209797859,0.2603588,-0.0282305,-0.1751105,-0.007795096,0.002322426,0.9970832,30.0741,1.086549,-23.80101,1003.48
13.229613304,0.07665838,0.2138203,-0.1751105,-0.002463993,0.006247851,0.9980396,29.32573,1.429642,-24.62809,1003.48
13.249430180,0.1378918,0.0927949,-0.05278558,-0.008293387,0.006222336,1.000002,29.32573,1.429642,-24.62809,1003.481
13.269246578,0.1378918,0.0927949,-0.1751105,-0.005351394,0.004299114,1.003838,29.32727,1.445279,-23.80472,1003.481
