Time (s),Gyroscope X (deg/s),Gyroscope Y (deg/s),Gyroscope Z (deg/s),Accelerometer X (g),Accelerometer Y (g),Accelerometer Z (g),Magnetometer X (uT),Magnetometer Y (uT),Magnetometer Z (uT),Barometer (hPa)
0.000000000,0.2589334,-1.027724,-0.5878899,0.01992455,2.071983E-05,0.9925756,24.09266,6.873089,-34.46311,1008.57
0.002477646,0.6263342,-0.4831098,-0.5267274,0.01847865,-0.001444089,0.9940242,24.09266,6.873089,-34.46311,1008.57
0.004954338,0.7488011,-0.05952091,-0.5878899,0.01798253,0.001479628,0.9959725,24.09266,6.873089,-34.46311,1008.57
0.007431507,0.9325016,0.364068,-0.5267274,0.01749239,0.002452132,0.9964628,24.09336,6.880306,-34.08309,1008.57
0.009908199,1.422369,0.8481696,-0.465565,0.01845849,0.002452479,0.9945268,24.09336,6.880306,-34.08309,1008.57
0.012384892,1.544836,0.9691951,-0.3432401,0.01261928,0.003886565,0.9960142,24.09336,6.880306,-34.08309,1008.57
0.014862061,1.728537,1.332271,-0.4044026,0.009728095,0.00437948,1.004721,24.09336,6.880306,-34.08309,1008.57
0.027246475,1.78977,2.179449,-0.3432401,0.006301989,0.008257259,1.004759,24.09336,6.880306,-34.08309,1008.57
0.029723167,1.728537,2.058424,-0.4044026,0.002403157,0.008231265,1.002367,24.09336,6.880306,-34.08309,1008.57
0.032200813,1.60607,1.876886,-0.5267274,0.00243865,0.006301143,1.009597,24.09336,6.880306,-34.08309,1008.57
0.034677029,1.299902,1.997911,-0.5267274,-0.003862385,0.00188376,1.008644,24.09336,6.880306,-34.08309,1008.57
0.037154675,1.054968,1.695347,-0.5878899,-0.001433904,0.009227162,1.01977,24.09336,6.880306,-34.08309,1008.57
0.039631367,0.8100346,1.634835,-0.7102148,-0.003415269,0.01065795,1.011582,24.09336,6.880306,-34.08309,1008.57
0.042108059,0.5038673,1.574322,-0.8937021,-0.008740898,0.007225306,1.013042,24.09336,6.880306,-34.08309,1008.571
0.044585228,0.1976999,1.453297,-1.383002,-0.003418548,0.0106556,1.010617,24.09336,6.880306,-34.08309,1008.571
0.047061920,-0.04723396,1.392784,-1.321839,-0.005355113,0.01114067,1.014009,24.09336,6.880306,-34.08309,1008.571
0.049539089,-0.3534013,1.453297,-1.566489,-0.005322413,0.00529757,1.013979,24.09336,6.880306,-34.08309,1008.571
0.052015781,-0.5983351,1.816373,-2.116951,-0.007289486,0.01211616,1.018851,24.09336,6.880306,-34.08309,1008.571
0.054492950,-0.7208021,1.816373,-2.361601,-0.005376959,0.0121028,1.009187,24.09336,6.880306,-34.08309,1008.571
0.056969643,-0.7820356,1.392784,-2.483926,-0.004893355,0.01259224,1.009187,24.09336,6.880306,-34.08309,1008.571
0.059446335,-1.271903,1.513809,-2.667413,-0.005410814,0.01403409,1.00244,23.40747,7.231278,-34.53038,1008.571
0.061923504,-1.271903,1.634835,-2.973226,-0.004905941,0.0116055,1.003873,23.40747,7.231278,-34.53038,1008.571
0.064400196,-1.516837,1.513809,-3.095551,-0.001521311,0.01160906,0.998062,23.40747,7.231278,-34.53038,1008.571
0.066877365,-1.455604,1.271759,-3.401363,0.00676264,0.008730294,0.9980019,23.40747,7.231278,-34.53038,1008.571
0.069354057,-1.39437,0.7271442,-3.462525,0.004797692,0.01163943,0.9970622,23.40747,7.231278,-34.53038,1008.571
0.071831703,-1.333137,0.5456061,-3.462525,0.004774693,0.008689761,0.985463,23.40747,7.231278,-34.53038,1008.571
0.074308395,-1.39437,0.0615045,-3.401363,0.007199804,0.01016429,0.98594,23.40747,7.231278,-34.53038,1008.571
0.076784611,-1.271903,-0.6041352,-3.279038,0.01449747,0.009715119,0.9858977,23.40747,7.231278,-34.53038,1008.571
0.079262257,-0.965736,-1.027724,-2.973226,0.01935746,0.008271312,0.9824848,23.40747,7.231278,-34.53038,1008.571
0.081738949,-0.7208021,-1.3908,-2.912063,0.02277648,0.005366211,0.9819686,23.40747,7.231278,-34.53038,1008.573
0.084216118,-0.1084674,-1.753877,-2.728576,0.02569556,0.006359849,0.9838883,23.40747,7.231278,-34.53038,1008.573
0.086692810,0.1976999,-1.874902,-2.422764,0.02278798,0.006841046,0.9877682,23.40747,7.231278,-34.53038,1008.573
0.089169979,0.4426338,-1.995928,-2.055789,0.03154791,0.006401769,0.9886833,23.40747,7.231278,-34.53038,1008.573
0.091646671,0.6875677,-2.419516,-1.688814,0.04124286,0.01034047,0.9857545,23.40747,7.231278,-34.53038,1008.573
0.094123364,1.116202,-2.359004,-1.383002,0.03686049,0.01422493,0.9906251,23.40747,7.231278,-34.53038,1008.573
0.096600533,1.422369,-2.419516,-1.016027,0.04027191,0.01473651,0.9935052,23.40747,7.231278,-34.53038,1008.573
0.099077225,1.667303,-2.177466,-0.7713773,0.03836481,0.01230939,1.000743,23.40747,7.231278,-34.53038,1008.573
0.101554394,1.78977,-2.05644,-0.3432401,0.03983851,0.009394226,1.000238,23.40747,7.231278,-34.53038,1008.573
0.104031086,1.912237,-1.693364,-0.2820776,0.03544683,0.01229429,1.000759,23.40747,7.231278,-34.53038,1008.573
0.106508732,2.157171,-1.3908,-0.03742781,0.03834465,0.01620596,1.001246,23.40747,7.231278,-34.53038,1008.573
0.108985424,2.279638,-0.7856733,0.3907094,0.03935442,0.01281541,1.006533,23.7658,7.961436,-34.92474,1008.573
0.111461639,2.463338,-0.3015717,0.5130343,0.03353918,0.009377912,1.00703,23.7658,7.961436,-34.92474,1008.573
0.113939285,2.708272,0.1825299,0.5130343,0.0325638,0.009859802,1.007037,23.7658,7.961436,-34.92474,1008.573
0.116415978,2.830739,0.7876569,0.5741968,0.02915407,0.01228267,1.009482,23.7658,7.961436,-34.92474,1008.573
0.118893147,2.769506,1.271759,0.6965217,0.02819291,0.01375247,1.015287,23.7658,7.961436,-34.92474,1008.573
0.121369839,2.708272,1.513809,0.6353592,0.02719182,0.01323824,1.006119,23.7658,7.961436,-34.92474,1008.576
0.123846531,2.524572,1.816373,0.8188466,0.02621154,0.01518325,1.007099,23.7658,7.961436,-34.92474,1008.576
0.126323700,2.647039,2.179449,0.6965217,0.02039854,0.01516945,1.013889,23.7658,7.961436,-34.92474,1008.576
0.128800392,2.769506,2.4215,0.4518718,0.01307522,0.01755578,1.009597,23.7658,7.961436,-34.92474,1008.576
0.131277561,2.463338,2.542525,0.3907094,0.01112332,0.01607439,1.005256,23.7658,7.961436,-34.92474,1008.576
0.133754253,2.340871,2.663551,0.2683845,0.008227768,0.01705306,1.013482,23.7658,7.961436,-34.92474,1008.576
0.136231422,2.095937,2.482013,0.08489711,0.004305473,0.01945466,1.008207,23.7658,7.961436,-34.92474,1008.576
0.138708115,1.973471,2.360987,-0.09859026,0.006251344,0.01995399,1.009164,23.7658,7.961436,-34.92474,1008.576
0.141184807,1.544836,1.876886,-0.2209152,0.004809838,0.01947006,1.013513,23.7658,7.961436,-34.92474,1008.576
0.143661976,1.299902,1.634835,-0.465565,0.001866205,0.02139211,1.009195,23.7658,7.961436,-34.92474,1008.576
0.146138668,0.8712681,1.332271,-0.5267274,0.006280766,0.01410855,1.008168,23.7658,7.961436,-34.92474,1008.576
0.148616314,0.9325016,1.09022,-0.465565,0.006755064,0.0136136,1.003819,23.7658,7.961436,-34.92474,1008.576
0.151093006,0.5651007,0.6666315,-0.5878899,0.003363898,0.01507199,1.01012,23.7658,7.961436,-34.92474,1008.576
0.153570175,0.1364664,0.364068,-0.7713773,0.007731116,0.02095414,1.016884,23.7658,7.961436,-34.92474,1008.576
0.156046867,-0.1084674,0.0615045,-0.8937021,0.00626938,0.01996688,1.014473,23.7658,7.961436,-34.92474,1008.576
0.158523560,-0.4758682,-0.241059,-0.8325397,0.008227238,0.01803042,1.014935,23.77308,7.610377,-34.09489,1008.576
0.161000729,-0.6595686,-0.1805463,-0.9548646,0.01259386,0.02049004,1.01589,23.77308,7.610377,-34.09489,1008.576
0.163477421,-0.5371017,-0.1805463,-0.8937021,0.01208898,0.02291863,1.014457,23.77308,7.610377,-34.09489,1008.573
0.165954590,-0.7820356,-0.3015717,-0.9548646,0.01456372,0.01758442,1.018277,23.77308,7.610377,-34.09489,1008.573
0.168431282,-0.7208021,-0.3015717,-0.9548646,0.01014309,0.02095266,1.011078,23.77308,7.610377,-34.09489,1008.573
0.170908451,-0.5371017,0.0009917939,-1.016027,0.01405499,0.01805477,1.01249,23.77308,7.610377,-34.09489,1008.573
0.173385143,-0.4146348,0.1220172,-1.016027,0.01648442,0.01611028,1.008605,23.77308,7.610377,-34.09489,1008.573
0.175861836,-0.2921678,0.0009917939,-0.9548646,0.01840247,0.01952296,1.006199,23.77308,7.610377,-34.09489,1008.573
0.178339005,-0.2309344,-0.3015717,-0.8937021,0.01793519,0.01464534,1.003763,23.77308,7.610377,-34.09489,1008.573
0.180815697,-0.1084674,-0.4225971,-0.6490523,0.01794882,0.01221072,1.003751,23.77308,7.610377,-34.09489,1008.573
0.183293343,0.07523298,-0.6041352,-0.2820776,0.02424059,0.01857697,1.005197,23.77308,7.610377,-34.09489,1008.573
0.185769558,0.2589334,-1.088237,-0.2820776,0.02133407,0.01710344,1.006171,23.77308,7.610377,-34.09489,1008.573
0.188247204,0.1976999,-1.3908,0.08489711,0.02230345,0.01710613,1.0052,23.77308,7.610377,-34.09489,1008.573
0.190723896,0.3201669,-1.451313,0.3295469,0.02137499,0.01273283,1.010975,23.77308,7.610377,-34.09489,1008.573
0.193200588,0.3201669,-1.632851,0.5130343,0.01648278,0.01610911,1.008123,23.77308,7.610377,-34.09489,1008.573
0.195677757,0.2589334,-1.814389,0.5130343,0.02379028,0.01566697,1.010977,23.77308,7.610377,-34.09489,1008.573
0.198154450,0.1976999,-1.693364,0.8188466,0.02183026,0.01857962,1.011485,23.77308,7.610377,-34.09489,1008.573
0.200631619,0.07523298,-1.693364,0.8188466,0.023805,0.01274425,1.010479,23.77308,7.610377,-34.09489,1008.573
0.203108311,0.1976999,-1.632851,0.8800091,0.01991441,0.01565738,1.015342,23.77308,7.610377,-34.09489,1008.576
0.205585480,0.3814003,-1.451313,1.246984,0.01941226,0.01759904,1.013907,23.77308,7.610377,-34.09489,1008.576
0.208062172,0.07523298,-1.027724,1.369309,0.01893415,0.01906902,1.018744,23.77308,7.610377,-34.09489,1008.576
0.210538864,-0.2921678,-0.6646479,1.491634,0.01504515,0.01905005,1.019247,24.45733,7.242564,-34.53431,1008.576
0.213016033,-0.2309344,0.1220172,1.430471,0.01311404,0.01856126,1.022634,24.45733,7.242564,-34.53431,1008.576
0.215492725,-0.3534013,0.7271442,1.124659,0.01406866,0.01855341,1.01732,24.45733,7.242564,-34.53431,1008.576
0.217970371,-0.3534013,1.150733,1.063496,0.009187911,0.02047125,1.015425,24.45733,7.242564,-34.53431,1008.576
0.220446587,-0.3534013,1.453297,0.9411715,0.005815197,0.013632,1.013478,24.45733,7.242564,-34.53431,1008.576
0.222924233,-0.5371017,1.937398,0.6965217,0.007750745,0.01803494,1.017834,24.45733,7.242564,-34.53431,1008.576
0.227877617,-0.3534013,1.75586,0.9411715,0.01213189,0.005838777,0.9989229,24.45733,7.242564,-34.53431,1008.576
0.230354786,-0.4146348,1.574322,0.9411715,0.008226592,0.01167463,1.004284,24.45733,7.242564,-34.53431,1008.576
0.232831478,-0.4146348,1.150733,1.002334,0.005327183,0.01069505,1.008156,24.45733,7.242564,-34.53431,1008.576
0.235308647,-0.3534013,0.7271442,0.9411715,0.003837574,0.009687871,0.9975402,24.45733,7.242564,-34.53431,1008.576
0.237785339,-0.3534013,0.0615045,0.9411715,0.00141521,0.009193049,0.9994816,24.45733,7.242564,-34.53431,1008.576
0.240262508,-0.4146348,-0.05952091,1.063496,0.0008880275,0.01796103,1.001943,24.45733,7.242564,-34.53431,1008.576
0.242739201,-0.4758682,-0.4831098,1.002334,0.004287946,0.01699777,0.9990232,24.45733,7.242564,-34.53431,1008.575
0.245215893,-0.2921678,-1.027724,0.8800091,0.004799332,0.0116406,0.9975449,24.45733,7.242564,-34.53431,1008.575
0.247693062,-0.3534013,-1.3908,0.9411715,0.0003994359,0.01306818,0.9932321,24.45733,7.242564,-34.53431,1008.575
0.250169754,-0.5371017,-1.753877,0.8800091,0.004783999,0.009674156,0.989812,24.45733,7.242564,-34.53431,1008.575
0.252646923,-0.4758682,-2.237978,0.8188466,0.007704192,0.01164633,0.9936676,24.45733,7.242564,-34.53431,1008.575
0.255123615,-0.3534013,-2.661567,1.002334,0.005744695,0.01358162,0.9927229,24.45733,7.242564,-34.53431,1008.575
0.257601261,-0.4146348,-2.72208,1.185821,0.01061833,0.01116982,0.9917185,24.45733,7.242564,-34.53431,1008.575
0.260077953,-0.2921678,-2.903618,1.185821,0.01061944,0.01214836,0.9936543,24.09254,6.871886,-34.52644,1008.575
0.262554169,-0.4758682,-2.964131,1.002334,0.01208331,0.009226156,0.9902525,24.09254,6.871886,-34.52644,1008.575
0.265031815,-0.4758682,-3.145669,1.063496,0.01359629,0.001939214,0.9940683,24.09254,6.871886,-34.52644,1008.575
0.267508507,-0.3534013,-3.145669,1.124659,0.01505689,0.0004813034,0.992122,24.09254,6.871886,-34.52644,1008.575
0.269985676,-0.04723396,-2.903618,0.9411715,0.0203918,0.003431708,0.9925906,24.09254,6.871886,-34.52644,1008.575
0.272462368,0.2589334,-2.601054,0.9411715,0.02236278,0.001504624,0.996914,24.09254,6.871886,-34.52644,1008.575
0.274939537,0.5038673,-2.419516,0.8188466,0.02381033,0.004437237,0.9983692,24.09254,6.871886,-34.52644,1008.575
0.277416229,0.5651007,-1.874902,0.7576842,0.02087984,0.007835293,1.000333,24.09254,6.871886,-34.52644,1008.575
0.279892922,0.5651007,-1.572338,0.8188466,0.01945249,0.003939378,1.003217,24.09254,6.871886,-34.52644,1008.575
0.282370091,0.5038673,-1.088237,0.6965217,0.01945635,0.005897623,1.007571,24.09254,6.871886,-34.52644,1008.578
0.284846783,0.5651007,-0.3620844,0.5130343,0.02138912,0.007854216,1.007088,24.09254,6.871886,-34.52644,1008.578
0.287323952,0.6263342,0.1825299,0.2683845,0.01504714,0.006340803,0.9989095,24.09254,6.871886,-34.52644,1008.578
0.289800644,0.4426338,0.7876569,0.2683845,0.01359744,0.005851015,1.000846,24.09254,6.871886,-34.52644,1008.578
0.292278290,0.2589334,0.9691951,0.207222,0.01991804,0.002949297,0.9954867,24.09254,6.871886,-34.52644,1008.578
0.294754982,0.4426338,1.271759,-0.09859026,0.0126297,0.005849496,1.002299,24.09254,6.871886,-34.52644,1008.578
0.297231197,0.3814003,1.574322,-0.09859026,0.01798586,0.004415236,1.00178,24.09254,6.871886,-34.52644,1008.578
0.299708843,0.4426338,1.513809,-0.09859026,0.02186497,0.001493904,0.993538,24.09254,6.871886,-34.52644,1008.578
0.302185536,0.3814003,1.513809,-0.1597527,0.01505308,0.001456324,0.9926097,24.09254,6.871886,-34.52644,1008.578
0.304662705,0.3814003,1.453297,0.02373465,0.01800325,-0.001927672,0.9964375,24.09254,6.871886,-34.52644,1008.578
0.307139397,0.2589334,1.453297,0.08489711,0.02092674,0.001513478,1.003679,24.09254,6.871886,-34.52644,1008.578
0.309616566,0.5038673,1.09022,0.02373465,0.01846616,0.003435702,0.9983934,23.77308,7.610377,-34.09489,1008.578
0.312093258,0.3201669,1.029708,0.02373465,0.01702846,0.001976752,1.002255,23.77308,7.610377,-34.09489,1008.578
0.314569950,0.4426338,1.09022,0.02373465,0.01847057,0.005883214,1.003715,23.77308,7.610377,-34.09489,1008.578
0.317047119,0.3201669,1.150733,0.08489711,0.01457557,0.006348832,1.003256,23.77308,7.610377,-34.09489,1008.578
0.319523811,0.2589334,1.150733,0.08489711,0.01408053,0.008784452,1.00472,23.77308,7.610377,-34.09489,1008.578
0.322000980,0.1364664,1.513809,0.02373465,0.01215711,0.01074552,1.014394,23.77308,7.610377,-34.09489,1008.576
0.324477673,0.07523298,1.634835,-0.03742781,0.01603957,0.01222643,1.01438,23.77308,7.610377,-34.09489,1008.576
0.326955319,0.07523298,1.513809,-0.03742781,0.009205278,0.01266171,1.007662,23.77308,7.610377,-34.09489,1008.576
0.329431534,0.3201669,1.816373,-0.03742781,0.007768113,0.0102254,1.010071,23.77308,7.610377,-34.09489,1008.576
0.331908226,0.2589334,1.876886,-0.09859026,0.006316723,0.006801172,1.006683,23.77308,7.610377,-34.09489,1008.576
0.334385872,0.1364664,1.816373,-0.2820776,0.006280188,0.01215265,1.00478,23.77308,7.610377,-34.09489,1008.576
0.336862564,0.1364664,1.75586,-0.4044026,0.009697034,0.01022375,1.005234,23.77308,7.610377,-34.09489,1008.576
0.339339733,0.3814003,1.574322,-0.4044026,0.01117022,0.009752574,1.008602,23.77308,7.610377,-34.09489,1008.576
0.341816425,0.5038673,1.513809,-0.2820776,0.01017787,0.008266848,1.000394,23.77308,7.610377,-34.09489,1008.576
0.344293594,0.7488011,1.392784,-0.2209152,0.008737979,0.006317458,1.002805,23.77308,7.610377,-34.09489,1008.576
0.346770287,0.8712681,0.9691951,-0.03742781,0.01067242,0.009741855,1.005226,23.77308,7.610377,-34.09489,1008.576
0.349246979,0.9325016,1.029708,0.08489711,0.01068768,0.007308404,1.005696,23.77308,7.610377,-34.09489,1008.576
0.351724148,1.116202,0.9086823,0.02373465,0.008714006,0.01118905,1.003796,23.77308,7.610377,-34.09489,1008.576
0.354200840,1.238669,0.5456061,0.02373465,0.00630476,0.0107036,1.009599,23.77308,7.610377,-34.09489,1008.576
0.356678009,1.422369,0.4245807,0.207222,0.01115607,0.01316456,1.010068,23.77308,7.610377,-34.09489,1008.576
0.359154701,1.544836,0.0009917939,0.3295469,0.009215692,0.01462464,1.013947,23.77308,7.610377,-34.09489,1008.576
0.361631394,1.60607,0.0009917939,0.2683845,0.004831638,0.01557467,1.013493,23.78376,6.868567,-34.52529,1008.581
0.364108563,1.483603,-0.1805463,0.3295469,0.008239246,0.01706126,1.016861,23.78376,6.868567,-34.52529,1008.581
0.366585255,1.299902,-0.5436226,0.4518718,0.009690058,0.01852959,1.016861,23.78376,6.868567,-34.52529,1008.581
0.369062901,1.177435,-0.4225971,0.4518718,0.004801109,0.02044157,1.012553,23.78376,6.868567,-34.52529,1008.581
0.371539593,1.054968,-0.3620844,0.3295469,0.003838795,0.01799957,1.01158,23.78376,6.868567,-34.52529,1008.581
0.374016762,0.9325016,-0.4831098,0.2683845,0.003858471,0.01801363,1.017373,23.78376,6.868567,-34.52529,1008.581
0.376493454,0.7488011,-0.6041352,0.3907094,0.004835517,0.01899954,1.020268,23.78376,6.868567,-34.52529,1008.581
0.378970623,0.3814003,-0.4225971,0.08489711,-8.701812E-06,0.0155659,1.020277,23.78376,6.868567,-34.52529,1008.581
0.381447315,0.2589334,-0.3015717,-0.1597527,0.005827805,0.01608538,1.021213,23.78376,6.868567,-34.52529,1008.581
0.383924008,0.07523298,-0.5436226,-0.2209152,0.004810437,0.0228926,1.019323,23.78376,6.868567,-34.52529,1008.581
0.386401177,-0.4146348,-0.7251607,-0.2820776,0.003389046,0.01557883,1.018328,23.78376,6.868567,-34.52529,1008.581
0.388877869,-0.7820356,-0.7856733,-0.6490523,0.003363435,0.02044925,1.018836,23.78376,6.868567,-34.52529,1008.581
0.391355038,-1.088203,-0.7856733,-0.6490523,-0.001012421,0.02140514,1.020795,23.78376,6.868567,-34.52529,1008.581
0.393831730,-1.333137,-0.7251607,-0.8325397,-0.001494477,0.01505034,1.011595,23.78376,6.868567,-34.52529,1008.581
0.396308899,-1.761771,-0.7856733,-0.9548646,0.0004410483,0.01798664,1.01353,23.78376,6.868567,-34.52529,1008.581
0.398785591,-2.251639,-0.9066988,-0.9548646,0.001897334,0.01994774,1.015945,23.78376,6.868567,-34.52529,1008.581
0.401262283,-2.741507,-0.9672114,-1.07719,-7.366296E-05,0.0204082,1.009201,23.78376,6.868567,-34.52529,1008.581
0.403739929,-3.170141,-1.088237,-1.444164,0.004786329,0.01896439,1.005788,23.78376,6.868567,-34.52529,1008.581
0.406216145,-3.598775,-0.7856733,-1.505327,0.005758434,0.01848016,1.004815,23.78376,6.868567,-34.52529,1008.581
0.408693791,-3.966176,-0.9672114,-1.627652,0.01012884,0.01849812,1.00286,23.78376,6.868567,-34.52529,1008.581
0.411170483,-4.02741,-1.209262,-1.811139,0.007208116,0.01750331,1.000458,23.40172,7.597973,-34.53686,1008.581
0.413647175,-4.39481,-1.209262,-1.688814,0.01256749,0.0116715,0.9936411,23.40172,7.597973,-34.53686,1008.581
0.416124344,-4.578511,-1.3908,-1.933464,0.0130489,0.0116705,0.9921904,23.40172,7.597973,-34.53686,1008.581
0.418601036,-4.456044,-1.632851,-1.811139,0.01645045,0.01070841,0.9897535,23.40172,7.597973,-34.53686,1008.581
0.421078205,-4.578511,-1.693364,-1.811139,0.01542373,0.01359797,0.9786724,23.40172,7.597973,-34.53686,1008.581
0.423554897,-4.39481,-2.05644,-1.688814,0.02222355,0.01020482,0.9704122,23.40172,7.597973,-34.53686,1008.581
0.426032066,-4.21111,-2.540542,-1.444164,0.02806659,0.009262342,0.970858,23.40172,7.597973,-34.53686,1008.581
0.428508759,-4.333577,-2.782593,-1.138352,0.02462792,0.01362001,0.9680032,23.40172,7.597973,-34.53686,1008.581
0.430985928,-4.21111,-3.206182,-0.8325397,0.02999113,0.008279812,0.9631196,23.40172,7.597973,-34.53686,1008.581
0.433462620,-4.149877,-3.024643,-0.8325397,0.02855886,0.00438038,0.9645555,23.40172,7.597973,-34.53686,1008.581
0.435939312,-3.598775,-2.964131,-0.4044026,0.03298055,-0.0009425911,0.968848,23.40172,7.597973,-34.53686,1008.581
0.438416958,-3.108907,-2.903618,-0.1597527,0.03687989,-0.003360594,0.9673662,23.40172,7.597973,-34.53686,1008.581
0.440893173,-2.496573,-2.540542,0.02373465,0.03882738,-0.004326719,0.9663852,23.40172,7.597973,-34.53686,1008.581
0.443370819,-1.700538,-2.116953,0.08489711,0.0393023,6.749295E-05,0.9702666,23.40172,7.597973,-34.53686,1008.584
0.445847511,-1.271903,-1.572338,0.3295469,0.03396251,4.683761E-05,0.9731918,23.40172,7.597973,-34.53686,1008.584
0.448324680,-0.6595686,-1.209262,0.5130343,0.04076568,0.001055923,0.9731597,23.40172,7.597973,-34.53686,1008.584
0.450801373,-0.4146348,-0.7251607,0.6965217,0.03591054,-0.001896652,0.9707577,23.40172,7.597973,-34.53686,1008.584
0.453278065,0.0139995,-0.241059,1.124659,0.03690121,-0.003345361,0.973641,23.40172,7.597973,-34.53686,1008.584
0.455755234,0.3814003,0.3035553,1.430471,0.03689469,-0.0004167832,0.9765521,23.40172,7.597973,-34.53686,1008.584
0.458231926,0.7488011,0.9691951,1.491634,0.03349748,-0.001407079,0.9770483,23.40172,7.597973,-34.53686,1008.584
0.460709095,1.177435,1.453297,1.613959,0.03010195,0.0005370628,0.982869,23.40172,7.597973,-34.53686,1008.584
0.463185787,1.422369,2.118936,1.797446,0.02477087,-0.00192173,0.9843336,24.08679,7.238581,-34.53292,1008.584
0.465662956,1.728537,2.724063,1.675121,0.02334082,-0.003864089,0.9896409,24.08679,7.238581,-34.53292,1008.584
0.468139649,2.095937,3.08714,1.308146,0.02139767,-0.004850349,0.9886811,24.08679,7.238581,-34.53292,1008.584
0.470616341,2.524572,3.752779,1.369309,0.01943162,-0.002919749,0.9858058,24.08679,7.238581,-34.53292,1008.584
0.473093510,2.891973,3.99483,1.613959,0.01698741,-0.00245244,0.9829255,24.08679,7.238581,-34.53292,1008.584
0.475570202,3.136906,4.055343,1.430471,0.01308425,0.0009405838,0.9848949,24.08679,7.238581,-34.53292,1008.584
0.478047848,3.19814,4.115856,1.552796,0.01015863,0.001408892,0.9834654,24.08679,7.238581,-34.53292,1008.584
0.480524540,3.38184,3.99483,1.369309,0.009231238,-0.00491913,0.986334,24.08679,7.238581,-34.53292,1008.584
0.483001709,3.259373,3.934317,1.491634,0.007730797,0.0004212863,0.9829909,24.08679,7.238581,-34.53292,1008.585
0.485478401,3.136906,3.692266,1.491634,0.007714424,0.001876201,0.980585,24.08679,7.238581,-34.53292,1008.585
0.487955093,3.136906,3.389703,1.308146,0.002397039,0.001382683,0.9892999,24.08679,7.238581,-34.53292,1008.585
0.490432263,2.953206,3.32919,1.124659,0.005830257,-0.00200114,0.9921597,24.08679,7.238581,-34.53292,1008.585
0.495386124,3.01444,3.08714,1.002334,0.008768462,-0.001482709,0.9989038,24.08679,7.238581,-34.53292,1008.585
0.497862816,2.953206,3.026627,0.8188466,0.008288206,0.00243009,1.007132,24.08679,7.238581,-34.53292,1008.585
0.500339985,2.953206,3.08714,0.6965217,0.005827669,0.00728558,1.006688,24.08679,7.238581,-34.53292,1008.585
0.502816677,2.647039,3.510728,0.5741968,0.003403157,0.009233583,1.012021,24.08679,7.238581,-34.53292,1008.585
0.505293369,2.218405,3.752779,0.3907094,0.003945719,0.005365311,1.022134,24.08679,7.238581,-34.53292,1008.585
0.507770538,2.034704,3.752779,0.08489711,-0.0004323318,0.005830755,1.022643,24.08679,7.238581,-34.53292,1008.585
0.510247231,1.78977,3.99483,-0.09859026,0.00294253,0.01022718,1.021199,24.08679,7.238581,-34.53292,1008.585
0.512724877,1.483603,4.055343,-0.09859026,0.008783378,0.008794264,1.020194,23.77308,7.610377,-34.09489,1008.585
0.515201092,1.238669,3.873805,-0.465565,0.004417868,0.007313183,1.021176,23.77308,7.610377,-34.09489,1008.585
0.517678738,0.8100346,3.934317,-0.6490523,0.001477537,0.01070421,1.020244,23.77308,7.610377,-34.09489,1008.585
0.520155430,0.5038673,4.055343,-0.6490523,0.005389487,0.01073958,1.026498,23.77308,7.610377,-34.09489,1008.585
0.522632122,0.1364664,4.055343,-0.5878899,0.004411333,0.008775128,1.021666,23.77308,7.610377,-34.09489,1008.589
0.525109291,-0.04723396,4.115856,-0.7102148,0.003393919,0.01264908,1.014934,23.77308,7.610377,-34.09489,1008.589
0.527585983,0.0139995,3.752779,-0.8325397,0.0009633573,0.0121484,1.014462,23.77308,7.610377,-34.09489,1008.589
0.530063152,-0.2309344,3.752779,-0.8325397,-0.002420233,0.008723486,1.014946,23.77308,7.610377,-34.09489,1008.589
0.532539845,-0.4146348,3.692266,-0.8325397,-0.003904369,0.008209091,1.006746,23.77308,7.610377,-34.09489,1008.589
0.535017014,-0.4146348,3.450216,-0.9548646,-0.0004738527,0.006778825,1.012029,23.77308,7.610377,-34.09489,1008.589
0.537493706,-0.3534013,3.389703,-1.260677,-0.003394532,0.008717281,1.014469,23.77308,7.610377,-34.09489,1008.589
0.539970398,-0.3534013,3.32919,-1.321839,-0.004359547,0.008228838,1.015919,23.77308,7.610377,-34.09489,1008.589
0.542447567,-0.1697009,3.32919,-1.321839,-0.003400604,0.004801964,1.006243,23.77308,7.610377,-34.09489,1008.589
0.544924259,-0.1084674,3.026627,-1.199515,-0.001479789,0.01066098,1.008676,23.77308,7.610377,-34.09489,1008.589
0.547401905,0.1364664,2.966114,-1.383002,0.001444723,0.00921414,1.00817,23.77308,7.610377,-34.09489,1008.589
0.549878121,0.1364664,2.300474,-1.505327,0.0004643972,0.008225884,1.004309,23.77308,7.610377,-34.09489,1008.589
0.552355766,0.1976999,1.937398,-1.505327,-0.001014752,0.0121149,1.004819,23.77308,7.610377,-34.09489,1008.589
0.554832459,0.3814003,1.876886,-1.383002,0.002404864,0.01263233,1.010113,23.77308,7.610377,-34.09489,1008.589
0.557309151,0.1976999,1.695347,-1.199515,0.002904333,0.01411086,1.016392,23.77308,7.610377,-34.09489,1008.589
0.559786320,0.1364664,1.09022,-1.07719,0.003389554,0.01313484,1.014454,23.77308,7.610377,-34.09489,1008.589
0.562263012,0.3201669,0.9086823,-1.07719,0.001428417,0.01506895,1.013027,24.46308,6.875868,-34.52783,1008.587
0.564740181,0.2589334,0.6061188,-1.138352,0.001402784,0.01847274,1.011114,24.46308,6.875868,-34.52783,1008.587
0.567216873,0.3201669,0.4245807,-1.260677,0.005827714,0.01021884,1.01153,24.46308,6.875868,-34.52783,1008.587
0.569694042,0.07523298,0.3035553,-1.383002,0.008241925,0.01364107,1.012017,24.46308,6.875868,-34.52783,1008.587
0.572170735,0.0139995,0.0615045,-1.199515,0.004844178,0.01362814,1.013966,24.46308,6.875868,-34.52783,1008.587
0.574647427,0.3814003,0.1825299,-1.260677,0.006292243,0.01411676,1.011547,24.46308,6.875868,-34.52783,1008.587
0.577124596,0.6875677,0.4245807,-1.383002,0.006806931,0.01022856,1.013455,24.46308,6.875868,-34.52783,1008.587
0.579601288,0.8712681,0.4850934,-1.321839,0.01021994,0.007808045,1.011976,24.46308,6.875868,-34.52783,1008.587
0.582078457,0.993735,0.4850934,-1.383002,0.007758321,0.01315163,1.012017,24.46308,6.875868,-34.52783,1008.587
0.584555149,1.238669,0.5456061,-1.260677,0.007274162,0.01217292,1.011049,24.46308,6.875868,-34.52783,1008.587
0.587032795,1.544836,0.7271442,-1.138352,0.007748506,0.01461123,1.011542,24.46308,6.875868,-34.52783,1008.587
0.589509487,1.361136,0.6666315,-1.321839,0.008729408,0.01755539,1.018792,24.46308,6.875868,-34.52783,1008.587
0.591985703,1.238669,0.6666315,-1.321839,0.006795499,0.01315363,1.014918,24.46308,6.875868,-34.52783,1008.587
0.594463349,1.054968,0.7271442,-1.383002,0.009210796,0.01608776,1.01492,24.46308,6.875868,-34.52783,1008.587
0.596940041,0.9325016,0.7271442,-1.383002,0.01113757,0.01852893,1.013474,24.46308,6.875868,-34.52783,1008.587
0.599417210,0.5651007,0.7876569,-1.383002,0.01260044,0.02196136,1.020241,24.46308,6.875868,-34.52783,1008.587
0.601893902,0.2589334,0.9691951,-1.383002,0.01310473,0.01757687,1.018285,24.46308,6.875868,-34.52783,1008.585
0.604371071,-0.04723396,0.8481696,-1.383002,0.009645858,0.02289785,1.011091,24.46308,6.875868,-34.52783,1008.585
0.606847763,-0.2921678,0.7876569,-1.383002,0.01211847,0.02147309,1.020724,24.46308,6.875868,-34.52783,1008.585
0.609324455,-0.4146348,1.029708,-1.260677,0.01404792,0.02049408,1.014434,24.46308,6.875868,-34.52783,1008.585
0.611801624,-0.5371017,0.8481696,-1.260677,0.01699371,0.0161292,1.01536,24.46308,6.875868,-34.52783,1008.585
0.614278317,-0.7208021,0.8481696,-1.138352,0.02236354,0.01519358,1.01967,23.77226,7.601958,-34.53825,1008.585
0.616755486,-0.6595686,0.6061188,-1.138352,0.0232647,0.02150286,1.009079,23.77226,7.601958,-34.53825,1008.585
0.619232178,-0.6595686,0.7271442,-0.9548646,0.01697729,0.01465085,1.008113,23.77226,7.601958,-34.53825,1008.585
0.621709824,-0.5983351,0.364068,-0.8937021,0.0208543,0.01710561,1.008104,23.77226,7.601958,-34.53825,1008.585
0.624186516,-0.4758682,0.1825299,-0.8325397,0.02035259,0.01220338,0.9955319,23.77226,7.601958,-34.53825,1008.585
0.626662731,-0.2921678,-0.1200336,-0.7713773,0.01742591,0.01462642,0.9970084,23.77226,7.601958,-34.53825,1008.585
0.629140377,-0.04723396,-0.1805463,-0.465565,0.01695759,0.01317016,0.9998996,23.77226,7.601958,-34.53825,1008.585
0.631617069,0.1364664,-0.3620844,-0.4044026,0.01838986,0.01706959,0.9984638,23.77226,7.601958,-34.53825,1008.585
0.634094238,0.4426338,-0.6646479,-0.2820776,0.01888055,0.01658635,0.9989412,23.77226,7.601958,-34.53825,1008.585
0.636570931,0.5651007,-0.7856733,-0.09859026,0.01840348,0.01463496,0.9984512,23.77226,7.601958,-34.53825,1008.585
0.639048100,0.6875677,-0.846186,-0.09859026,0.01742159,0.01804543,1.00137,23.77226,7.601958,-34.53825,1008.585
0.641524792,0.9325016,-0.6041352,0.08489711,0.01355441,0.01559771,1.004275,23.77226,7.601958,-34.53825,1008.584
0.644001961,1.054968,-0.4831098,-0.09859026,0.01695542,0.01414635,1.00087,23.77226,7.601958,-34.53825,1008.584
0.646478653,1.177435,-0.1805463,0.207222,0.0150292,0.01219444,1.003284,23.77226,7.601958,-34.53825,1008.584
0.648955345,1.177435,0.0615045,0.3295469,0.01741722,0.01853119,1.00089,23.77226,7.601958,-34.53825,1008.584
0.651432514,1.483603,0.1220172,0.3295469,0.01308825,0.01169862,1.003775,23.77226,7.601958,-34.53825,1008.584
0.653909207,1.422369,0.1825299,0.3907094,0.01886912,0.01951141,1.000404,23.77226,7.601958,-34.53825,1008.584
0.656386852,1.361136,-0.05952091,0.3295469,0.01696643,0.01953181,1.012964,23.77226,7.601958,-34.53825,1008.584
0.658863068,1.299902,0.0615045,0.08489711,0.01647953,0.0175734,1.009578,23.77226,7.601958,-34.53825,1008.584
0.661340714,1.177435,-0.1200336,0.207222,0.01450259,0.02291833,1.009134,23.77226,7.601958,-34.53825,1008.584
0.663817406,1.054968,0.0615045,0.3907094,0.01210418,0.01608528,1.007664,23.76804,7.98429,-33.72136,1008.584
0.666294098,0.8100346,0.1220172,0.1460596,0.01115286,0.01756212,1.016365,23.76804,7.98429,-33.72136,1008.584
0.668771267,0.6263342,0.1825299,0.02373465,0.008216846,0.01753412,1.011071,23.76804,7.98429,-33.72136,1008.584
0.671247959,0.5651007,0.3035553,0.02373465,0.01063048,0.01900045,1.00817,23.76804,7.98429,-33.72136,1008.584
0.673725128,0.4426338,0.364068,0.02373465,0.01306922,0.01804036,1.008634,23.76804,7.98429,-33.72136,1008.584
0.676201821,0.1364664,0.364068,-0.03742781,0.006241506,0.01994696,1.006268,23.76804,7.98429,-33.72136,1008.584
0.678678990,-0.1697009,0.364068,-0.03742781,0.001391352,0.0213978,1.012577,23.76804,7.98429,-33.72136,1008.584
0.681155682,-0.2309344,0.3035553,-0.09859026,0.005762844,0.02092767,1.010137,23.76804,7.98429,-33.72136,1008.584
0.683632374,-0.2921678,0.364068,-0.2209152,0.007192388,0.02531402,1.008704,23.76804,7.98429,-33.72136,1008.585
0.686109543,-0.5371017,0.3035553,-0.3432401,0.003778222,0.02382274,1.003405,23.76804,7.98429,-33.72136,1008.585
0.688586235,-0.7820356,0.2430426,-0.3432401,0.007201626,0.02189852,1.00579,23.76804,7.98429,-33.72136,1008.585
0.691063881,-1.02697,0.0009917939,-0.4044026,0.008656758,0.01994783,1.001428,23.76804,7.98429,-33.72136,1008.585
0.693540096,-1.39437,-0.3620844,-0.2820776,0.009146898,0.01897532,1.000938,23.76804,7.98429,-33.72136,1008.585
0.696017742,-1.639304,-0.4831098,-0.4044026,0.008161122,0.01896092,0.9970814,23.76804,7.98429,-33.72136,1008.585
0.698494435,-2.067938,-0.7251607,-0.4044026,0.01397144,0.0223949,0.9951366,23.76804,7.98429,-33.72136,1008.585
0.700971127,-2.067938,-0.9672114,-0.2820776,0.008644172,0.01896109,0.9961134,23.76804,7.98429,-33.72136,1008.585
0.703448296,-2.067938,-1.330288,-0.1597527,0.01350747,0.01898626,0.996087,23.76804,7.98429,-33.72136,1008.585
0.705924988,-2.251639,-1.451313,0.207222,0.01444627,0.02092258,0.9893343,23.76804,7.98429,-33.72136,1008.585
0.708402157,-2.251639,-1.511826,0.207222,0.01496692,0.01361655,0.9873631,23.76804,7.98429,-33.72136,1008.585
0.710878849,-2.129172,-1.451313,0.1460596,0.018857,0.01314741,0.9863741,23.76804,7.98429,-33.72136,1008.585
0.713356018,-1.823005,-1.572338,0.3907094,0.01646516,0.007785691,0.9892557,24.08749,7.245798,-34.1529,1008.585
0.715832710,-1.639304,-1.753877,0.7576842,0.0212995,0.008279036,0.9815089,24.08749,7.245798,-34.1529,1008.585
0.718309403,-1.39437,-1.693364,0.6965217,0.0256721,0.00878744,0.981005,24.08749,7.245798,-34.1529,1008.585
0.720786572,-1.149436,-1.814389,0.6353592,0.02568356,0.00732901,0.9819627,24.08749,7.245798,-34.1529,1008.585
0.723263264,-1.02697,-1.995928,0.8800091,0.02468251,0.009748053,0.9776366,24.08749,7.245798,-34.1529,1008.585
0.725740433,-0.7820356,-1.995928,1.185821,0.0247011,0.01025021,0.9839138,24.08749,7.245798,-34.1529,1008.585
0.728217125,-0.7208021,-1.814389,1.308146,0.02714367,0.009781729,0.9863114,24.08749,7.245798,-34.1529,1008.585
0.730694771,-0.4146348,-1.632851,1.491634,0.02961897,0.004936787,0.9910998,24.08749,7.245798,-34.1529,1008.585
0.733171463,-0.3534013,-1.269775,1.736283,0.02424041,0.00684391,0.9858297,24.08749,7.245798,-34.1529,1008.585
0.735647679,-0.1084674,-0.846186,1.736283,0.02477366,0.001991243,0.9915939,24.08749,7.245798,-34.1529,1008.585
0.738125324,0.07523298,-0.6041352,1.736283,0.02431024,-0.000928134,0.9935122,24.08749,7.245798,-34.1529,1008.585
0.740602017,0.2589334,-0.1805463,1.980933,0.02574362,0.003949834,0.9940121,24.08749,7.245798,-34.1529,1008.585
0.743079186,0.5038673,0.3035553,2.042096,0.02722388,0.001039353,0.995437,24.08749,7.245798,-34.1529,1008.585
0.745555878,0.6263342,0.7876569,1.980933,0.01893771,0.001961041,0.9916257,24.08749,7.245798,-34.1529,1008.585
0.748033047,0.993735,1.392784,2.164421,0.01505197,0.0004777879,0.9906739,24.08749,7.245798,-34.1529,1008.585
0.750509739,1.177435,2.058424,2.225583,0.01747757,-0.001958312,0.9848559,24.08749,7.245798,-34.1529,1008.585
0.752986431,1.238669,2.482013,2.286746,0.01799558,-0.002910895,0.9925712,24.08749,7.245798,-34.1529,1008.585
0.755463600,1.544836,2.966114,2.286746,0.01462894,-0.005834827,0.9988493,24.08749,7.245798,-34.1529,1008.585
0.757940293,1.667303,3.510728,2.225583,0.01071489,-0.0004941053,1.000829,24.08749,7.245798,-34.1529,1008.585
0.760417462,1.851004,4.115856,2.225583,0.009752644,0.001463792,1.007119,24.08749,7.245798,-34.1529,1008.585
0.765371800,2.034704,4.842008,1.919771,-0.0004553769,-5.217921E-05,1.006202,23.77801,7.235262,-34.53176,1008.583
0.767848492,2.157171,5.326109,1.858608,-0.001919793,0.002380752,1.008636,23.77801,7.235262,-34.53176,1008.583
0.770325661,2.157171,5.205084,1.797446,-0.006272741,0.0004197757,1.012511,23.77801,7.235262,-34.53176,1008.583
0.772802353,2.095937,5.689186,1.491634,-0.01211629,0.003806247,1.015939,23.77801,7.235262,-34.53176,1008.583
0.775279045,2.157171,5.870724,1.246984,-0.01700143,0.00474321,1.011144,23.77801,7.235262,-34.53176,1008.583
0.777756214,2.034704,5.870724,0.9411715,-0.0204237,0.009112599,1.013116,23.77801,7.235262,-34.53176,1008.583
0.780232907,1.851004,5.749699,0.6965217,-0.02284718,0.00763924,1.013121,23.77801,7.235262,-34.53176,1008.583
0.782710076,1.851004,5.749699,0.4518718,-0.02770448,0.005662859,1.01169,23.77801,7.235262,-34.53176,1008.583
0.785186768,1.78977,5.265597,0.207222,-0.02575644,0.005186002,1.011677,23.77801,7.235262,-34.53176,1008.583
0.787663937,1.544836,4.478932,-0.03742781,-0.02919408,0.006122313,1.003495,23.77801,7.235262,-34.53176,1008.583
0.790140629,1.361136,4.236881,-0.4044026,-0.02966352,0.002220884,1.002029,23.77801,7.235262,-34.53176,1008.583
0.792617321,1.238669,3.389703,-0.465565,-0.02624716,0.004202605,1.008778,23.77801,7.235262,-34.53176,1008.583
0.795094490,1.054968,2.360987,-0.4044026,-0.02626462,0.006145617,1.006858,23.77801,7.235262,-34.53176,1008.583
0.797571182,0.8100346,1.634835,-0.7713773,-0.02821758,0.006618958,1.005423,23.77801,7.235262,-34.53176,1008.583
0.800048828,0.6875677,0.7876569,-0.9548646,-0.0282301,0.01003212,1.007371,23.77801,7.235262,-34.53176,1008.583
0.802525044,0.5651007,0.0009917939,-1.199515,-0.02580118,0.01053162,1.00736,23.77801,7.235262,-34.53176,1008.582
0.805002690,0.1976999,-0.7251607,-1.260677,-0.01804878,0.0169066,1.009281,23.77801,7.235262,-34.53176,1008.582
0.807479382,-0.1697009,-1.753877,-1.383002,-0.02194214,0.01737339,1.009305,23.77801,7.235262,-34.53176,1008.582
0.809956074,-0.4146348,-2.237978,-1.566489,-0.02047934,0.01640592,1.008809,23.77801,7.235262,-34.53176,1008.582
0.812433243,-0.7208021,-2.72208,-1.811139,-0.01320347,0.01985214,1.008787,23.77801,7.235262,-34.53176,1008.582
0.814909935,-0.965736,-3.024643,-1.933464,-0.01267571,0.01304006,1.009715,23.39668,7.971886,-34.16332,1008.582
0.817387104,-1.271903,-3.38772,-1.994627,-0.01364945,0.01352313,1.010205,23.39668,7.971886,-34.16332,1008.582
0.819863796,-1.516837,-3.871821,-2.055789,-0.008361536,0.01692882,0.9976441,23.39668,7.971886,-34.16332,1008.582
0.822340965,-1.823005,-4.113872,-2.055789,-0.003491662,0.0184253,1.001969,23.39668,7.971886,-34.16332,1008.582
0.824817658,-1.761771,-4.355923,-2.178114,-6.883498E-05,0.01454518,1.000965,23.39668,7.971886,-34.16332,1008.582
0.827294350,-1.945472,-4.476948,-2.116951,0.005795985,0.00824068,0.9989699,23.39668,7.971886,-34.16332,1008.582
0.829771519,-2.067938,-4.174385,-2.055789,0.007751694,0.008747046,1.002823,23.39668,7.971886,-34.16332,1008.582
0.832248211,-2.006705,-4.174385,-1.933464,0.009170869,0.01410374,0.9999471,23.39668,7.971886,-34.16332,1008.582
0.834725857,-1.945472,-4.113872,-1.688814,0.01403636,0.01461934,1.001371,23.39668,7.971886,-34.16332,1008.582
0.837202072,-1.761771,-3.811309,-1.627652,0.01649415,0.008784148,0.9993969,23.39668,7.971886,-34.16332,1008.582
0.839679718,-1.578071,-3.266694,-1.566489,0.0159838,0.01071995,0.9955482,23.39668,7.971886,-34.16332,1008.582
0.842156410,-1.578071,-2.72208,-1.321839,0.02279622,0.009780169,0.9950235,23.39668,7.971886,-34.16332,1008.583
0.844633103,-1.639304,-2.298491,-1.260677,0.02083289,0.01122385,0.9921455,23.39668,7.971886,-34.16332,1008.583
0.847110272,-1.516837,-1.693364,-1.138352,0.02231643,0.008315708,0.9945358,23.39668,7.971886,-34.16332,1008.583
0.849586964,-1.333137,-1.088237,-0.8937021,0.02472514,0.009778519,0.9901862,23.39668,7.971886,-34.16332,1008.583
0.852064133,-1.271903,-0.7856733,-0.7102148,0.02519184,0.01270024,0.9892333,23.39668,7.971886,-34.16332,1008.583
0.854540825,-1.02697,-0.3620844,-0.465565,0.02520605,0.01222152,0.9926094,23.39668,7.971886,-34.16332,1008.583
0.857017994,-1.02697,-0.1200336,-0.3432401,0.02764859,0.0102864,0.9925861,23.39668,7.971886,-34.16332,1008.583
0.859494686,-0.7820356,0.3035553,-0.2820776,0.02811529,0.01320812,0.9916332,23.39668,7.971886,-34.16332,1008.583
0.861971855,-0.6595686,0.6061188,-0.03742781,0.02666279,0.008805364,0.9863091,23.39668,7.971886,-34.16332,1008.583
0.864448548,-0.6595686,1.029708,0.1460596,0.02860975,0.008816604,0.9867812,24.08749,7.245798,-34.1529,1008.583
0.866925240,-0.4758682,1.392784,0.2683845,0.02615847,0.01172322,0.9858442,24.08749,7.245798,-34.1529,1008.583
0.869402409,-0.3534013,1.574322,0.207222,0.02422791,0.0117237,0.9901989,24.08749,7.245798,-34.1529,1008.583
0.871879101,-0.2309344,1.937398,0.3295469,0.01938587,0.007313868,0.9892374,24.08749,7.245798,-34.1529,1008.583
0.874356747,-0.2309344,2.179449,0.3907094,0.01791593,0.00632075,0.9844134,24.08749,7.245798,-34.1529,1008.583
0.876833439,-0.1697009,2.542525,0.4518718,0.01791981,0.009745627,0.9911885,24.08749,7.245798,-34.1529,1008.583
0.879310608,-0.1697009,2.542525,0.4518718,0.02083557,0.007803655,0.9873011,24.08749,7.245798,-34.1529,1008.583
0.881787300,-0.2921678,2.663551,0.5741968,0.01892734,0.002931374,0.9901827,24.08749,7.245798,-34.1529,1008.582
0.884263993,-0.2921678,3.026627,0.3295469,0.01791272,0.0107183,0.9907108,24.08749,7.245798,-34.1529,1008.582
0.886741162,-0.1697009,3.08714,0.4518718,0.01207508,0.007753665,0.9854181,24.08749,7.245798,-34.1529,1008.582
0.889217854,-0.1084674,3.32919,0.3907094,0.01064175,0.005808963,0.9897601,24.08749,7.245798,-34.1529,1008.582
0.891695023,-0.1697009,3.510728,0.3295469,0.01207841,0.01068927,0.9912254,24.08749,7.245798,-34.1529,1008.582
0.894171715,-0.1084674,3.631754,0.207222,0.01160734,0.008253306,0.9916981,24.08749,7.245798,-34.1529,1008.582
0.896648884,0.1364664,3.510728,0.1460596,0.01356735,0.003874022,0.9887688,24.08749,7.245798,-34.1529,1008.582
0.899125576,0.2589334,3.631754,0.1460596,0.01404497,0.006314677,0.9902268,24.08749,7.245798,-34.1529,1008.582
0.911510468,0.0139995,3.208165,0.08489711,0.0121248,0.006811454,0.9984454,24.08749,7.245798,-34.1529,1008.582
0.911510468,0.0139995,3.208165,0.08489711,0.0121248,0.006811454,0.9984454,24.08749,7.245798,-34.1529,1008.582
0.913987637,0.1364664,2.966114,0.02373465,0.007744073,0.01069709,1.003799,24.08749,7.245798,-34.1529,1008.582
0.916464329,0.1364664,2.905602,0.08489711,0.004883877,0.00094584,1.00473,24.08175,7.612493,-34.15939,1008.582
0.918941498,0.07523298,3.147652,-0.09859026,0.005371315,0.001926893,1.006663,24.08175,7.612493,-34.15939,1008.582
0.921418190,0.1976999,2.905602,-0.03742781,0.006797579,0.006310905,1.004264,24.08175,7.612493,-34.15939,1008.582
0.923894882,0.1976999,2.905602,-0.03742781,0.003404174,0.004345589,1.004273,24.08175,7.612493,-34.15939,1008.582
0.926372051,0.5038673,3.08714,-0.2820776,0.002912926,0.004339557,1.002827,24.08175,7.612493,-34.15939,1008.582
0.928848744,0.6263342,2.905602,-0.2820776,0.0004747435,0.005788918,1.003331,24.08175,7.612493,-34.15939,1008.582
0.931325913,0.5038673,3.08714,-0.4044026,0.006301458,0.009234623,1.006212,24.08175,7.612493,-34.15939,1008.582
0.933802605,0.5651007,3.026627,-0.5267274,0.001422323,0.009687004,1.00238,24.08175,7.612493,-34.15939,1008.582
0.936279774,0.4426338,3.08714,-0.465565,-0.0005180992,0.00821382,1.001418,24.08175,7.612493,-34.15939,1008.582
0.938756466,0.3201669,2.845089,-0.5267274,0.00821948,0.01118067,1.001385,24.08175,7.612493,-34.15939,1008.582
0.941233158,0.4426338,2.542525,-0.465565,0.0009299889,0.01016907,1.00142,24.08175,7.612493,-34.15939,1008.582
0.943710804,0.2589334,2.542525,-0.465565,0.005805291,0.009225075,1.003319,24.08175,7.612493,-34.15939,1008.582
0.946187020,0.3814003,2.300474,-0.6490523,0.007765897,0.008268325,1.006199,24.08175,7.612493,-34.15939,1008.582
0.948664665,0.3814003,2.179449,-0.5267274,0.00677086,0.01020279,1.002836,24.08175,7.612493,-34.15939,1008.582
0.951141358,0.1976999,2.118936,-0.4044026,0.001943615,0.008736764,1.011061,24.08175,7.612493,-34.15939,1008.582
0.953618527,0.2589334,1.876886,-0.465565,0.001951835,0.01020925,1.015895,24.08175,7.612493,-34.15939,1008.582
0.956095219,0.3814003,1.816373,-0.3432401,0.006802544,0.009247685,1.010554,24.08175,7.612493,-34.15939,1008.582
0.958571911,0.3201669,1.876886,-0.4044026,0.008262663,0.0117004,1.014903,24.08175,7.612493,-34.15939,1008.582
0.961049080,0.1976999,1.876886,-0.2820776,0.002938719,0.0112022,1.021687,24.08175,7.612493,-34.15939,1008.582
0.963525772,0.1976999,2.058424,-0.465565,0.001953452,0.008743795,1.013957,24.08175,7.612493,-34.15939,1008.581
0.966002941,0.2589334,1.876886,-0.4044026,0.003915629,0.003388318,1.010057,23.78025,7.258115,-33.32838,1008.581
0.968479634,0.3201669,1.997911,-0.4044026,0.001951236,0.006786723,1.010085,23.78025,7.258115,-33.32838,1008.581
0.970956803,0.2589334,1.937398,-0.3432401,0.001440889,0.00872253,1.006236,23.78025,7.258115,-33.32838,1008.581
0.973433495,0.3201669,1.997911,-0.3432401,0.005820025,0.007768989,1.005242,23.78025,7.258115,-33.32838,1008.581
0.975910187,0.1976999,1.937398,-0.4044026,0.001427773,0.008713155,1.002375,23.78025,7.258115,-33.32838,1008.581
0.978387833,0.1364664,1.937398,-0.3432401,0.001954515,0.006789066,1.011051,23.78025,7.258115,-33.32838,1008.581
0.980864048,0.2589334,2.058424,-0.5878899,-0.001947066,0.005783364,1.00624,23.78025,7.258115,-33.32838,1008.581
0.983341694,0.3814003,2.058424,-0.7102148,-0.0005240806,0.01016503,1.002876,23.78025,7.258115,-33.32838,1008.581
0.985818386,0.2589334,1.876886,-0.7102148,0.002883504,0.01018499,1.003823,23.78025,7.258115,-33.32838,1008.581
0.988295555,0.3814003,1.75586,-0.8325397,0.001950128,0.005808187,1.00815,23.78025,7.258115,-33.32838,1008.581
0.990772247,0.5651007,1.937398,-0.7102148,-0.0009842217,0.007247999,1.00576,23.78025,7.258115,-33.32838,1008.581
0.993249416,0.6263342,1.816373,-0.7102148,-0.001490158,0.01163132,1.007233,23.78025,7.258115,-33.32838,1008.581
0.995726109,0.6875677,1.695347,-0.6490523,0.0004742118,0.006766282,1.004784,23.78025,7.258115,-33.32838,1008.581
0.998202801,0.993735,1.453297,-0.6490523,0.0004731494,0.008721011,1.00769,23.78025,7.258115,-33.32838,1008.581
1.000679970,0.8100346,1.271759,-0.8937021,-3.82599E-05,0.01261155,1.006747,23.78025,7.258115,-33.32838,1008.581
1.003156662,0.9325016,1.029708,-1.016027,-0.002474848,0.01112881,1.002892,23.78025,7.258115,-33.32838,1008.586
1.005633831,0.993735,1.150733,-1.016027,-0.001980298,0.01260382,1.007723,23.78025,7.258115,-33.32838,1008.586
1.008110523,0.9325016,0.7271442,-1.016027,-0.001048006,0.01746873,1.003882,23.78025,7.258115,-33.32838,1008.586
1.010588169,0.6875677,0.7271442,-1.07719,0.0009098735,0.0169989,1.006765,23.78025,7.258115,-33.32838,1008.586
1.013064384,0.8712681,0.6666315,-1.07719,-0.002450255,0.01114639,1.010132,23.78025,7.258115,-33.32838,1008.586
1.015541077,1.054968,0.364068,-1.016027,0.001913062,0.01213703,1.007699,23.78025,7.258115,-33.32838,1008.586
1.018018723,0.8712681,0.364068,-1.016027,-0.0005234808,0.01358757,1.008686,24.08175,7.612493,-34.15939,1008.586
1.020495415,0.9325016,0.4245807,-0.9548646,0.004332724,0.01458541,1.008182,24.08175,7.612493,-34.15939,1008.586
1.022972584,1.054968,0.3035553,-0.8937021,0.005303211,0.01556664,1.009147,24.08175,7.612493,-34.15939,1008.586
1.027926445,1.238669,0.364068,-0.7713773,0.005769357,0.01799909,1.007226,24.08175,7.612493,-34.15939,1008.586
1.027926445,1.238669,0.364068,-0.7713773,0.005769357,0.01799909,1.007226,24.08175,7.612493,-34.15939,1008.586
1.030403137,1.116202,0.2430426,-0.5878899,0.009177496,0.01850832,1.00914,24.08175,7.612493,-34.15939,1008.586
1.035356998,1.361136,0.364068,-0.4044026,0.009197171,0.01852238,1.014933,24.08175,7.612493,-34.15939,1008.586
1.037833691,1.177435,0.364068,-0.3432401,0.01161956,0.02048383,1.015412,24.08175,7.612493,-34.15939,1008.586
1.040310860,0.8712681,0.5456061,-0.2820776,0.009680267,0.02145582,1.018806,24.08175,7.612493,-34.15939,1008.586
1.042787552,0.7488011,0.5456061,-0.2820776,0.0121157,0.01902675,1.015885,24.08175,7.612493,-34.15939,1008.587
1.045265198,0.6875677,0.6061188,-0.09859026,0.01015073,0.02046925,1.012524,24.08175,7.612493,-34.15939,1008.587
1.047741413,0.5651007,0.6666315,0.02373465,0.008672668,0.02387018,1.01255,24.08175,7.612493,-34.15939,1008.587
1.050219059,0.5038673,0.6666315,-0.03742781,0.008210287,0.01752944,1.009141,24.08175,7.612493,-34.15939,1008.587
1.052695751,0.4426338,0.6666315,0.08489711,0.009187865,0.01753798,1.010584,24.08175,7.612493,-34.15939,1008.587
1.055171967,0.3201669,0.7271442,0.207222,0.007721302,0.02241374,1.016409,24.08175,7.612493,-34.15939,1008.587
1.057649612,0.1364664,0.7271442,0.3295469,0.01158358,0.02632459,1.014477,24.08175,7.612493,-34.15939,1008.587
1.060126305,0.2589334,0.7876569,0.2683845,0.009662208,0.0199763,1.011076,24.08175,7.612493,-34.15939,1008.587
1.062603474,0.3201669,0.7271442,0.3907094,0.0106163,0.02094581,1.007214,24.08175,7.612493,-34.15939,1008.587
1.065080166,0.1976999,0.5456061,0.6353592,0.009180775,0.01851066,1.010106,24.08175,7.612493,-34.15939,1008.587
1.067557335,0.07523298,0.4245807,0.8188466,0.008708671,0.01949606,1.015906,24.08679,7.238581,-34.53292,1008.587
1.070034027,-0.04723396,0.3035553,0.9411715,0.008691766,0.02192833,1.014953,24.08679,7.238581,-34.53292,1008.587
1.072510719,-0.1084674,0.1220172,1.063496,0.006265546,0.01947527,1.01254,24.08679,7.238581,-34.53292,1008.587
1.074987888,-0.3534013,0.1825299,1.063496,0.008199964,0.02143304,1.01254,24.08679,7.238581,-34.53292,1008.587
1.077464581,-0.4758682,0.1220172,1.063496,0.00723167,0.02094225,1.013025,24.08679,7.238581,-34.53292,1008.587
1.079941750,-0.965736,0.0615045,1.063496,0.004347502,0.01606259,1.014947,24.08679,7.238581,-34.53292,1008.587
1.082418442,-1.149436,0.0615045,1.063496,0.002373226,0.0165207,1.007237,24.08679,7.238581,-34.53292,1008.582
1.084896088,-1.088203,0.0615045,0.8800091,-0.002497688,0.01844557,1.008239,24.08679,7.238581,-34.53292,1008.582
1.087372780,-1.333137,0.2430426,0.7576842,-0.001997157,0.01796937,1.011612,24.08679,7.238581,-34.53292,1008.582
1.089848995,-1.271903,0.3035553,0.6353592,-0.002969307,0.01552034,1.007744,24.08679,7.238581,-34.53292,1008.582
1.092326641,-1.39437,0.4245807,0.5130343,-0.005902017,0.01696132,1.005836,24.08679,7.238581,-34.53292,1008.582
1.094803333,-1.639304,0.4850934,0.3295469,-0.006401531,0.01254953,0.9947147,24.08679,7.238581,-34.53292,1008.582
1.097280502,-1.516837,0.2430426,0.2683845,0.001374266,0.01209702,0.9922565,24.08679,7.238581,-34.53292,1008.582
1.099757195,-1.39437,-0.1200336,0.2683845,-0.001107055,0.01595991,0.9840844,24.08679,7.238581,-34.53292,1008.582
1.102234364,-1.39437,-0.3620844,0.2683845,-0.003478196,0.005724255,0.9850101,24.08679,7.238581,-34.53292,1008.582
1.104711056,-1.455604,-0.5436226,0.2683845,-8.151145E-05,0.007691914,0.9859672,24.08679,7.238581,-34.53292,1008.582
1.107188225,-1.39437,-1.3908,0.2683845,0.005750077,0.008207871,0.9854551,24.08679,7.238581,-34.53292,1008.582
1.109664917,-1.088203,-1.753877,0.2683845,0.004764855,0.00868273,0.9825668,24.08679,7.238581,-34.53292,1008.582
1.112141609,-1.02697,-1.995928,0.4518718,0.006244604,0.008216246,0.9878659,24.08679,7.238581,-34.53292,1008.582
1.114618778,-1.088203,-2.419516,0.5741968,0.002369302,0.01016256,0.9956198,24.08679,7.238581,-34.53292,1008.582
1.117095470,-0.965736,-2.601054,0.6965217,0.0135652,0.006316847,0.9921601,24.08257,7.620913,-33.71603,1008.582
1.119573116,-1.02697,-2.480029,0.9411715,0.01499747,0.01021628,0.9907242,24.08257,7.620913,-33.71603,1008.582
1.122049332,-0.965736,-2.540542,1.185821,0.01310453,0.004377178,0.9964967,24.08257,7.620913,-33.71603,1008.581
1.124526978,-0.7208021,-2.480029,1.246984,0.01599849,0.006330604,0.9926295,24.08257,7.620913,-33.71603,1008.581
1.127003670,-0.7208021,-2.237978,1.308146,0.01260293,0.006808112,0.9960294,24.08257,7.620913,-33.71603,1008.581
1.129480362,-0.5371017,-1.632851,1.491634,0.01649412,0.007317515,0.996976,24.08257,7.620913,-33.71603,1008.581
1.131957531,-0.2921678,-1.088237,1.797446,0.01554878,0.006843134,1.004219,24.08257,7.620913,-33.71603,1008.581
1.134434223,-0.04723396,-0.4831098,1.797446,0.01362693,0.004405474,1.007113,24.08257,7.620913,-33.71603,1008.581
1.136911392,0.1976999,0.1220172,1.919771,0.01313845,0.006845783,1.010507,24.08257,7.620913,-33.71603,1008.581
1.139388084,0.2589334,0.8481696,1.919771,0.01217886,0.003916858,1.009532,24.08257,7.620913,-33.71603,1008.581
1.141865253,0.3201669,1.513809,1.980933,0.01070027,0.008295144,1.01101,24.08257,7.620913,-33.71603,1008.581
1.144341946,0.5038673,2.239962,1.980933,0.005850646,0.008768617,1.015866,24.08257,7.620913,-33.71603,1008.581
1.146819115,0.4426338,2.966114,1.980933,0.006331502,0.008278351,1.013448,24.08257,7.620913,-33.71603,1008.581
1.149295807,0.5651007,3.32919,1.919771,0.004393229,0.004362341,1.009094,24.08257,7.620913,-33.71603,1008.581
1.151772499,0.5651007,3.389703,1.919771,0.001455091,0.008243808,1.009613,24.08257,7.620913,-33.71603,1008.581
1.154250145,0.4426338,3.510728,1.980933,-1.807604E-05,0.01018161,1.008665,24.08257,7.620913,-33.71603,1008.581
1.156726360,0.2589334,3.510728,1.980933,-0.005854606,0.008195508,1.005308,24.08257,7.620913,-33.71603,1008.581
1.159204006,0.1976999,3.389703,1.797446,-0.009252376,0.006715945,1.004837,24.08257,7.620913,-33.71603,1008.581
1.161680698,0.1976999,3.268678,1.797446,-0.01121021,0.01011904,1.006796,24.08257,7.620913,-33.71603,1008.58
1.164157867,0.1364664,2.905602,1.675121,-0.01556865,0.006198645,1.005834,24.08257,7.620913,-33.71603,1008.58
1.166634560,0.07523298,2.603038,1.736283,-0.01656588,0.007642665,1.00102,24.08257,7.620913,-33.71603,1008.58
1.169111252,0.0139995,2.542525,1.491634,-0.01706309,0.01105448,1.003454,24.08832,7.254218,-33.70955,1008.58
1.171588421,0.0139995,1.997911,1.491634,-0.01850081,0.008128898,1.004894,24.08832,7.254218,-33.70955,1008.58
1.174065113,0.0139995,1.332271,1.430471,-0.0204876,0.01200016,0.9991331,24.08832,7.254218,-33.70955,1008.58
1.176542282,-0.04723396,1.09022,1.063496,-0.01659923,0.007129962,0.9903988,24.08832,7.254218,-33.70955,1008.58
1.179018974,-0.2309344,0.4245807,0.8800091,-0.0165954,0.007621573,0.9923319,24.08832,7.254218,-33.70955,1008.58
1.181496143,-0.2921678,-0.3620844,0.9411715,-0.00928951,0.008644894,0.9971239,24.08832,7.254218,-33.70955,1008.58
1.183972836,-0.1697009,-1.088237,1.063496,-0.008817382,0.009126132,0.9937451,24.08832,7.254218,-33.70955,1008.58
1.186450481,-0.4758682,-1.632851,1.063496,-0.007344724,0.009632326,0.9985664,24.08832,7.254218,-33.70955,1008.58
1.188926697,-0.7820356,-2.05644,1.002334,-0.007324472,0.01160229,1.007747,24.08832,7.254218,-33.70955,1008.58
1.191403389,-1.088203,-2.359004,1.002334,-0.009278518,0.01256373,1.006798,24.08832,7.254218,-33.70955,1008.58
1.193881035,-1.271903,-2.782593,1.185821,-0.0009798345,0.008228879,1.008661,24.08832,7.254218,-33.70955,1008.58
1.196357727,-1.516837,-2.661567,0.8800091,-0.001497225,0.01407063,1.009176,24.08832,7.254218,-33.70955,1008.58
1.198834896,-1.578071,-2.480029,0.6353592,-0.001472677,0.01115494,1.011574,24.08832,7.254218,-33.70955,1008.58
1.201311588,-1.639304,-2.116953,0.5741968,-0.0005130891,0.01408387,1.01255,24.08832,7.254218,-33.70955,1008.579
1.203788757,-1.578071,-1.572338,0.3907094,0.001908189,0.01506678,1.011093,24.08832,7.254218,-33.70955,1008.579
1.206265450,-1.516837,-1.3908,0.3295469,-0.003439795,0.01504027,1.011605,24.08832,7.254218,-33.70955,1008.579
1.208742142,-1.639304,-0.6646479,0.2683845,0.004358911,0.01167089,1.011063,24.08832,7.254218,-33.70955,1008.579
1.211219311,-1.639304,0.0009917939,0.207222,0.007258898,0.01460637,1.010579,24.08832,7.254218,-33.70955,1008.579
1.213696003,-1.761771,0.2430426,0.1460596,0.007765919,0.009734957,1.008621,24.08832,7.254218,-33.70955,1008.579
1.216173172,-1.700538,0.364068,0.207222,0.005802544,0.008245368,1.000901,24.08832,7.254218,-33.70955,1008.579
1.218649864,-1.761771,0.6666315,0.2683845,0.006738069,0.01017935,0.9931826,23.77296,7.609174,-34.15823,1008.579
1.221127510,-1.700538,0.7876569,0.08489711,0.005763261,0.01261714,0.9965792,23.77296,7.609174,-34.15823,1008.579
1.223603725,-1.578071,0.7271442,0.207222,0.01160792,0.01020921,0.9950869,23.77296,7.609174,-34.15823,1008.579
1.226081371,-1.455604,0.8481696,0.3295469,0.008682277,0.009210881,0.9912363,23.77296,7.609174,-34.15823,1008.579
1.228558064,-1.39437,0.7876569,0.5130343,0.01113247,0.006792359,0.9926586,23.77296,7.609174,-34.15823,1008.579
1.231034756,-1.271903,0.6061188,0.7576842,0.01356084,0.0068026,0.99168,23.77296,7.609174,-34.15823,1008.579
1.233511925,-1.21067,0.4850934,0.9411715,0.009659832,0.007752798,0.9902582,23.77296,7.609174,-34.15823,1008.579
1.235988617,-0.965736,0.4850934,0.9411715,0.00580684,0.003359717,0.9941182,23.77296,7.609174,-34.15823,1008.579
1.238465786,-0.7820356,0.4850934,1.063496,0.008696456,0.007265527,0.9921916,23.77296,7.609174,-34.15823,1008.579
1.240942478,-0.4758682,0.5456061,1.124659,0.01019092,0.003876324,0.9969928,23.77296,7.609174,-34.15823,1008.579
1.243419647,-0.6595686,0.6061188,1.185821,0.009208443,0.005330892,0.996523,23.77296,7.609174,-34.15823,1008.58
1.245896339,-0.4146348,0.6061188,1.185821,0.01262693,0.003403156,0.9974598,23.77296,7.609174,-34.15823,1008.58
1.248373032,-0.4146348,0.6061188,1.246984,0.008709551,0.005808269,0.9936321,23.77296,7.609174,-34.15823,1008.58
1.250850201,-0.3534013,0.4245807,1.308146,0.00770902,0.005783315,0.985432,23.77296,7.609174,-34.15823,1008.58
1.253326893,-0.2309344,0.4245807,1.369309,0.009671241,0.003361103,0.9863741,23.77296,7.609174,-34.15823,1008.58
1.255804062,-0.3534013,0.2430426,1.491634,0.01067773,-3.178837E-05,0.9906952,23.77296,7.609174,-34.15823,1008.58
1.258280754,-0.4758682,0.1825299,1.613959,0.011163,0.001925457,0.9935988,23.77296,7.609174,-34.15823,1008.58
1.260758400,-0.5983351,-0.1200336,1.919771,0.00970348,0.002895271,0.9950598,23.77296,7.609174,-34.15823,1008.58
1.263235092,-0.4758682,-0.1805463,1.858608,0.006771877,0.005314793,0.9950882,23.77296,7.609174,-34.15823,1008.58
1.265712261,-0.5371017,-0.05952091,1.797446,0.007758716,0.003374472,0.9960383,23.77296,7.609174,-34.15823,1008.58
1.268188953,-0.5983351,0.0615045,1.797446,0.008263612,0.002412514,0.999892,24.08679,7.238581,-34.53292,1008.58
1.270665646,-0.2921678,0.1220172,1.797446,0.007294741,-3.417302E-05,0.9969886,24.08679,7.238581,-34.53292,1008.58
1.273142815,-0.4146348,0.3035553,1.736283,0.003405723,-0.001519769,0.9950716,24.08679,7.238581,-34.53292,1008.58
1.275619507,-0.4146348,0.4850934,1.797446,0.009234563,-0.001983522,0.9921412,24.08679,7.238581,-34.53292,1008.58
1.278096676,-0.2921678,0.7271442,1.491634,0.00584663,-0.003456054,0.9945655,24.08679,7.238581,-34.53292,1008.58
1.280573368,-0.04723396,1.211246,1.369309,0.004901799,-0.006374433,0.9979345,24.08679,7.238581,-34.53292,1008.58
1.283050537,0.0139995,1.392784,1.246984,-0.0004429282,-0.007865235,0.9969907,24.08679,7.238581,-34.53292,1008.581
1.285527229,-0.04723396,1.75586,1.063496,0.0004986923,-0.0005493031,0.9999193,24.08679,7.238581,-34.53292,1008.581
1.288003922,0.0139995,1.75586,0.8800091,0.006774693,0.0106944,1.004769,24.08679,7.238581,-34.53292,1008.581
1.290481091,-0.3534013,2.179449,0.5741968,0.002366023,0.01016021,0.9946545,24.08679,7.238581,-34.53292,1008.581
1.292957783,-0.5371017,2.300474,0.4518718,0.0009991552,-0.005425406,0.99603,24.08679,7.238581,-34.53292,1008.581
1.295435429,-0.5983351,2.300474,0.3907094,0.006382519,-0.01466218,0.9906436,24.08679,7.238581,-34.53292,1008.581
1.300389290,0.5651007,2.360987,0.3907094,-0.0003824683,-0.02102157,0.9930614,24.08679,7.238581,-34.53292,1008.581
1.302865982,1.361136,2.179449,0.5130343,-0.00676149,-0.01473951,0.9868538,24.08679,7.238581,-34.53292,1008.581
1.305343151,1.78977,2.179449,0.3295469,-0.006302343,-0.005467846,0.9941391,24.08679,7.238581,-34.53292,1008.581
1.307819843,2.034704,2.058424,0.08489711,-0.0024221,-0.005944009,0.990254,24.08679,7.238581,-34.53292,1008.581
1.310296536,1.912237,1.997911,-0.03742781,-0.008231819,-0.005955463,0.9980085,24.08679,7.238581,-34.53292,1008.581
1.312773705,1.667303,1.997911,-0.3432401,-0.007759092,-0.002051692,1.000439,24.08679,7.238581,-34.53292,1008.581
1.315250397,1.361136,1.997911,-0.465565,-0.004324212,-0.003967711,1.006203,24.08679,7.238581,-34.53292,1008.581
1.317727566,1.116202,1.937398,-0.6490523,-0.009183717,-0.006434533,1.003321,24.08679,7.238581,-34.53292,1008.581
1.320204258,1.054968,1.997911,-0.6490523,-0.01257052,-0.005461896,1.010102,24.08175,7.612493,-34.15939,1008.581
1.322681427,0.8100346,2.118936,-0.8325397,-0.01061756,-0.005935238,1.011537,24.08175,7.612493,-34.15939,1008.577
1.325158119,0.8100346,2.058424,-1.138352,-0.008210481,-0.004473598,1.006704,24.08175,7.612493,-34.15939,1008.577
1.327634811,0.7488011,2.058424,-1.383002,-0.007186511,-0.008342868,1.015367,24.08175,7.612493,-34.15939,1008.577
1.330112457,0.6875677,2.300474,-1.444164,-0.01059682,-0.007875906,1.014423,24.08175,7.612493,-34.15939,1008.577
1.332588673,0.7488011,2.300474,-1.749977,-0.009198428,-0.003511813,1.003819,24.08175,7.612493,-34.15939,1008.577
1.335066319,0.6263342,2.118936,-1.994627,-0.008214269,-0.002031945,1.009613,24.08175,7.612493,-34.15939,1008.577
1.337543011,0.6263342,2.179449,-2.178114,-0.0077154,-0.003975954,1.010083,24.08175,7.612493,-34.15939,1008.577
1.340020180,0.6875677,1.816373,-2.361601,-0.008695194,-0.005941576,1.004769,24.08175,7.612493,-34.15939,1008.577
1.342496872,0.6263342,1.574322,-2.483926,-0.01021254,0.00183112,1.000473,24.08175,7.612493,-34.15939,1008.577
1.344973564,0.5651007,1.211246,-2.545089,-0.007267845,-0.00204566,1.001885,24.08175,7.612493,-34.15939,1008.577
1.347450733,0.5038673,0.7876569,-2.422764,-0.004342801,-0.004469868,0.9999256,24.08175,7.612493,-34.15939,1008.577
1.349927425,0.6263342,0.4245807,-2.361601,-0.004352616,-0.003010266,0.9994504,24.08175,7.612493,-34.15939,1008.577
1.352404595,0.5651007,-0.1200336,-2.483926,0.001965833,-0.003469158,0.9974828,24.08175,7.612493,-34.15939,1008.577
1.354881287,0.5651007,-0.7856733,-2.483926,-0.0005154875,0.0003937327,0.9893107,24.08175,7.612493,-34.15939,1008.577
1.357358456,0.5651007,-1.088237,-2.178114,-2.585631E-05,0.001865226,0.9926943,24.08175,7.612493,-34.15939,1008.577
1.359835148,0.6263342,-1.451313,-2.239276,-0.0009973838,0.00430536,0.9970562,24.08175,7.612493,-34.15939,1008.577
1.362312794,0.7488011,-1.3908,-2.300439,0.002435326,0.003365535,1.00379,24.08175,7.612493,-34.15939,1008.578
1.364789486,0.7488011,-1.3908,-2.116951,0.004861522,0.004351968,1.003782,24.08175,7.612493,-34.15939,1008.578
1.367265701,0.7488011,-1.632851,-2.116951,0.006864712,0.0004924187,1.01437,24.08175,7.612493,-34.15939,1008.578
1.369743347,0.7488011,-1.3908,-2.239276,0.007803516,0.002428746,1.007617,24.45733,7.242564,-34.53431,1008.578
1.372220039,0.7488011,-0.9066988,-2.055789,0.01125038,-0.001923068,1.012886,24.45733,7.242564,-34.53431,1008.578
1.374697208,0.7488011,-0.7251607,-1.994627,0.01023412,0.005862691,1.012931,24.45733,7.242564,-34.53431,1008.578
1.377173901,0.7488011,-0.3015717,-1.872301,0.01460619,0.00734846,1.01388,24.45733,7.242564,-34.53431,1008.578
1.379651070,0.8100346,0.1220172,-1.872301,0.01705971,0.007865545,1.02111,24.45733,7.242564,-34.53431,1008.578
1.382127762,0.9325016,0.4245807,-1.749977,0.01218274,0.007341735,1.016307,24.45733,7.242564,-34.53431,1008.578
1.384604454,1.054968,1.029708,-1.811139,0.009749433,0.005861346,1.013417,24.45733,7.242564,-34.53431,1008.578
1.387081623,1.116202,1.695347,-1.994627,0.009250542,0.006338723,1.010526,24.45733,7.242564,-34.53431,1008.578
1.389558315,1.238669,2.118936,-1.872301,0.008310651,0.004890492,1.017763,24.45733,7.242564,-34.53431,1008.578
1.392035484,1.361136,2.4215,-1.566489,0.005365379,0.006811371,1.012963,24.45733,7.242564,-34.53431,1008.578
1.394512177,1.483603,2.784576,-1.811139,0.0005009996,0.007274299,1.013474,24.45733,7.242564,-34.53431,1008.578
1.396989822,1.60607,2.966114,-1.872301,0.004901404,0.003402727,1.013913,24.45733,7.242564,-34.53431,1008.578
1.399466038,1.728537,2.905602,-1.811139,-0.0009487499,0.003851246,1.010569,24.45733,7.242564,-34.53431,1008.578
1.401943684,1.851004,2.845089,-1.933464,-0.001000572,0.01016955,1.005775,24.45733,7.242564,-34.53431,1008.58
1.404420376,1.851004,2.724063,-1.872301,-0.001479835,0.00772772,1.003834,24.45733,7.242564,-34.53431,1008.58
1.406897068,1.78977,2.482013,-1.872301,-0.001973763,0.01114188,1.007233,24.45733,7.242564,-34.53431,1008.58
1.409374237,1.544836,2.118936,-1.811139,-0.003410927,0.008705563,1.009642,24.45733,7.242564,-34.53431,1008.58
1.411850929,1.054968,1.75586,-1.872301,-0.005855646,0.01161687,1.010635,24.45733,7.242564,-34.53431,1008.58
1.414328098,0.8712681,1.513809,-1.872301,-0.01024353,0.01207528,1.008248,24.45733,7.242564,-34.53431,1008.58
1.416804791,0.6263342,1.150733,-1.811139,-0.006335993,0.009663139,1.00918,24.45733,7.242564,-34.53431,1008.58
1.419281960,0.3201669,1.029708,-1.811139,-0.006841975,0.01111319,1.005812,23.77801,7.235262,-34.53176,1008.58
1.421758652,0.2589334,0.8481696,-1.872301,-0.005894419,0.01354465,1.00244,23.77801,7.235262,-34.53176,1008.58
1.424235344,0.07523298,0.2430426,-1.749977,-0.00587315,0.01062661,1.003873,23.77801,7.235262,-34.53176,1008.58
1.426712513,-0.04723396,0.1220172,-1.749977,-0.008348973,0.01644892,1.000538,23.77801,7.235262,-34.53176,1008.58
1.429189205,-0.04723396,0.1825299,-1.872301,-0.008818953,0.01352486,1.000525,23.77801,7.235262,-34.53176,1008.58
1.431666851,-0.04723396,-0.1805463,-1.933464,-0.009292189,0.01206508,1.001968,23.77801,7.235262,-34.53176,1008.58
1.434143067,-0.04723396,-0.5436226,-1.872301,-0.004469772,0.01939412,1.00198,23.77801,7.235262,-34.53176,1008.58
1.436620712,-0.2921678,-0.5436226,-1.811139,-0.002002099,0.01649922,1.007743,23.77801,7.235262,-34.53176,1008.58
1.439097405,-0.3534013,-0.4225971,-2.055789,0.0004328047,0.01504751,1.006274,23.77801,7.235262,-34.53176,1008.58
1.441574574,-0.4758682,-0.3620844,-1.933464,0.004325565,0.01115819,1.000441,23.77801,7.235262,-34.53176,1008.579
1.444051266,-0.4758682,-0.3015717,-1.811139,0.002416804,0.007263274,1.004776,23.77801,7.235262,-34.53176,1008.579
1.446527958,-0.4758682,-0.05952091,-1.811139,0.005312449,0.01215114,1.006233,23.77801,7.235262,-34.53176,1008.579
1.449005127,-0.2309344,0.0009917939,-1.627652,0.008250609,0.009736301,1.008135,23.77801,7.235262,-34.53176,1008.579
1.451481819,-0.1084674,0.1825299,-1.627652,0.001917427,0.01165128,1.00818,23.77801,7.235262,-34.53176,1008.579
1.453958988,-0.1697009,0.2430426,-1.749977,0.0004562675,0.01261992,1.009158,23.77801,7.235262,-34.53176,1008.579
1.456435680,0.0139995,0.6666315,-1.688814,0.008674771,0.01849408,1.004316,23.77801,7.235262,-34.53176,1008.579
1.458912850,0.0139995,1.150733,-1.566489,0.003834408,0.01701869,1.008679,23.77801,7.235262,-34.53176,1008.579
1.461389542,0.07523298,1.029708,-1.566489,0.001397265,0.01504669,1.003856,23.77801,7.235262,-34.53176,1008.579
1.463867188,-0.04723396,1.332271,-1.444164,-0.001056159,0.02039613,1.00631,23.77801,7.235262,-34.53176,1008.579
1.466343403,0.2589334,1.332271,-1.444164,-0.001034404,0.01356747,1.001448,23.77801,7.235262,-34.53176,1008.579
1.468820095,0.3814003,1.271759,-1.383002,0.0004268005,0.0155321,1.005312,23.77801,7.235262,-34.53176,1008.579
1.471297741,0.5651007,1.513809,-1.505327,-0.002015238,0.01502321,1.001461,24.08679,7.238581,-34.53292,1008.579
1.473774433,0.5038673,1.453297,-1.260677,-0.005431021,0.01499739,0.9981008,24.08679,7.238581,-34.53292,1008.579
1.476251602,0.5651007,1.271759,-1.260677,-0.002496117,0.01404685,1.001459,24.08679,7.238581,-34.53292,1008.579
1.478728294,0.6875677,1.271759,-1.138352,-0.004915778,0.01159847,1.000977,24.08679,7.238581,-34.53292,1008.579
1.481205464,0.7488011,0.8481696,-1.138352,-0.00301577,0.01499826,0.9932607,24.08679,7.238581,-34.53292,1008.579
1.483682156,0.993735,0.3035553,-1.138352,-0.00397642,0.01402406,0.9951918,24.08679,7.238581,-34.53292,1008.579
1.486158848,0.9325016,0.1825299,-1.138352,-0.001539346,0.01159617,0.9927526,24.08679,7.238581,-34.53292,1008.579
1.488636017,0.8100346,-0.1200336,-1.199515,-0.002992838,0.01354803,0.9975974,24.08679,7.238581,-34.53292,1008.579
1.491112709,0.7488011,-0.6646479,-1.016027,-0.004461088,0.01548935,0.998098,24.08679,7.238581,-34.53292,1008.579
1.493589878,0.9325016,-0.846186,-1.07719,-0.004968708,0.01693823,0.9942469,24.08679,7.238581,-34.53292,1008.579
1.496066570,0.8712681,-1.088237,-1.199515,-0.004476907,0.01743353,0.9966601,24.08679,7.238581,-34.53292,1008.579
1.498544216,0.8100346,-1.14875,-0.9548646,0.001377082,0.01747662,1.001938,24.08679,7.238581,-34.53292,1008.579
1.501020432,0.7488011,-1.209262,-1.016027,-5.791197E-05,0.01406412,1.003376,24.08679,7.238581,-34.53292,1008.579
1.503498078,0.5651007,-1.209262,-1.016027,0.004308175,0.0175011,1.005783,24.08679,7.238581,-34.53292,1008.579
1.505974770,0.3201669,-1.209262,-0.8937021,0.003336579,0.01554134,1.002882,24.08679,7.238581,-34.53292,1008.579
1.508451462,0.1976999,-0.846186,-1.07719,0.004779217,0.01847043,1.00289,24.08679,7.238581,-34.53292,1008.579
1.510928631,-0.04723396,-0.7251607,-1.138352,0.006716358,0.01994127,1.002886,24.08679,7.238581,-34.53292,1008.579
1.513405323,-0.2309344,-0.5436226,-0.9548646,0.006230052,0.02140539,1.00531,24.08679,7.238581,-34.53292,1008.579
1.515882492,-0.4758682,-0.05952091,-0.9548646,0.01307956,0.01560339,1.007656,24.08679,7.238581,-34.53292,1008.579
1.518359184,-0.4758682,0.4850934,-0.9548646,0.01455162,0.01268705,1.006668,24.08679,7.238581,-34.53292,1008.579
1.520836353,-0.4758682,0.9086823,-0.8325397,0.00775338,0.01168148,1.008148,24.08257,7.620913,-33.71603,1008.579
1.523313046,-0.4758682,1.332271,-0.9548646,0.003823485,0.01749975,1.006269,24.08257,7.620913,-33.71603,1008.58
1.525789738,-0.4146348,1.392784,-1.016027,0.007714629,0.01507589,1.002373,24.08257,7.620913,-33.71603,1008.58
1.528266907,-0.4758682,1.75586,-0.8325397,0.00576437,0.01359568,0.9985151,24.08257,7.620913,-33.71603,1008.58
1.530743599,-0.2309344,1.75586,-0.7713773,0.01015713,0.01020751,0.9975082,24.08257,7.620913,-33.71603,1008.58
1.533220768,-0.1697009,2.179449,-0.6490523,0.009191561,0.009229803,0.9979911,24.08257,7.620913,-33.71603,1008.58
1.535697460,0.0139995,2.239962,-0.465565,0.009669184,0.01167046,0.9994491,24.08257,7.620913,-33.71603,1008.58
1.538175106,0.07523298,2.118936,-0.3432401,0.007713475,0.01116409,0.9955958,24.08257,7.620913,-33.71603,1008.58
1.540651798,-0.1084674,2.179449,-0.1597527,0.004314065,0.009683357,0.9946414,24.08257,7.620913,-33.71603,1008.58
1.543128967,-0.1697009,2.239962,-0.03742781,0.004792751,0.01016928,0.9931932,24.08257,7.620913,-33.71603,1008.58
1.545605660,-0.4146348,2.300474,0.207222,0.002370388,0.009674461,0.9951347,24.08257,7.620913,-33.71603,1008.58
1.548082829,-0.4758682,2.603038,0.2683845,-0.001973231,0.01016451,1.00578,24.08257,7.620913,-33.71603,1008.58
1.550559521,-0.4146348,2.966114,0.2683845,-0.003928363,0.01161405,1.005315,24.08257,7.620913,-33.71603,1008.58
1.553036213,-0.1697009,3.389703,-0.03742781,-0.004975267,0.01693354,0.9923161,24.08257,7.620913,-33.71603,1008.58
1.555513382,-0.3534013,3.934317,-0.09859026,-0.01123106,0.004726541,0.9918051,24.08257,7.620913,-33.71603,1008.58
1.557990074,-0.04723396,4.236881,-0.5267274,-0.009757848,0.005722002,0.9975942,24.08257,7.620913,-33.71603,1008.58
1.560467243,0.2589334,4.357906,-0.465565,-0.006359616,0.001824304,0.9893501,24.08257,7.620913,-33.71603,1008.58
1.562943936,0.2589334,4.539444,-0.5878899,-0.005379912,-0.002076605,0.9849805,24.08257,7.620913,-33.71603,1008.578
1.565420628,0.5651007,4.478932,-0.5267274,-0.007315902,0.0003643553,0.9917612,24.08257,7.620913,-33.71603,1008.578
1.570374489,0.8712681,3.873805,-0.2820776,-0.007806065,-0.0001297733,0.9898306,24.45229,7.616476,-34.16077,1008.578
1.572852135,1.054968,3.510728,-0.2209152,-0.008750319,-0.001092251,0.9965883,24.45229,7.616476,-34.16077,1008.578
1.575328827,1.116202,3.08714,-0.2820776,-0.0111994,0.002304808,0.9971018,24.45229,7.616476,-34.16077,1008.578
1.577805996,1.299902,3.08714,-0.3432401,-0.01122067,0.005222839,0.9956689,24.45229,7.616476,-34.16077,1008.578
1.580282688,1.361136,3.026627,-0.465565,-0.01025018,0.006204066,0.9966339,24.45229,7.616476,-34.16077,1008.578
1.582759857,1.299902,2.724063,-0.5267274,-0.01022887,0.0062193,1.002909,24.45229,7.616476,-34.16077,1008.578
1.585236550,1.422369,2.784576,-0.4044026,-0.01702162,0.007173145,1.009226,24.45229,7.616476,-34.16077,1008.578
1.587713719,1.60607,2.724063,-0.3432401,-0.0131555,0.0115756,1.009227,24.45229,7.616476,-34.16077,1008.578
1.590190411,1.973471,2.905602,-0.7102148,-0.01554355,0.003772224,1.0092,24.45229,7.616476,-34.16077,1008.578
1.592667103,1.973471,2.905602,-0.7102148,-0.01994232,0.007644968,1.009244,24.45229,7.616476,-34.16077,1008.578
1.595144272,1.851004,2.966114,-0.8325397,-0.01214029,0.007211203,1.014509,24.45229,7.616476,-34.16077,1008.578
1.597620964,2.034704,2.905602,-0.9548646,-0.01602166,0.005242199,1.014037,24.45229,7.616476,-34.16077,1008.578
1.600098133,2.095937,2.784576,-0.8937021,-0.01651944,0.006698111,1.013082,24.45229,7.616476,-34.16077,1008.578
1.602574825,1.912237,2.482013,-1.016027,-0.01753078,0.01448739,1.014575,24.45229,7.616476,-34.16077,1008.581
1.605052471,1.78977,2.179449,-1.260677,-0.02189357,0.01251938,1.015555,24.45229,7.616476,-34.16077,1008.581
1.607529164,1.728537,1.876886,-1.199515,-0.01460461,0.01450835,1.016973,24.45229,7.616476,-34.16077,1008.581
1.610005379,1.728537,1.513809,-1.016027,-0.02000448,0.01640023,1.005428,24.45229,7.616476,-34.16077,1008.581
1.612483025,1.299902,1.271759,-1.138352,-0.02339953,0.01443375,1.004954,24.45229,7.616476,-34.16077,1008.581
1.614959717,0.993735,0.7271442,-1.260677,-0.02536171,0.01978922,1.008853,24.45229,7.616476,-34.16077,1008.581
1.617436886,0.6875677,0.4245807,-1.444164,-0.0233968,0.01394682,1.004951,24.45229,7.616476,-34.16077,1008.581
1.619913578,0.6263342,-0.05952091,-1.566489,-0.02532797,0.01052477,1.003496,24.45229,7.616476,-34.16077,1008.581
1.622390747,0.8100346,-0.1805463,-1.749977,-0.02924308,0.01782022,1.008382,24.45803,7.24978,-34.15429,1008.581
1.624867439,0.7488011,-0.4225971,-1.933464,-0.02629677,0.01247798,1.007856,24.45803,7.24978,-34.15429,1008.581
1.627344608,0.5651007,-0.9066988,-1.933464,-0.02290726,0.009551786,0.9986512,24.45803,7.24978,-34.15429,1008.581
1.629821301,0.4426338,-1.209262,-2.116951,-0.02344539,0.0173342,0.9962807,24.45803,7.24978,-34.15429,1008.581
1.632297993,0.2589334,-1.572338,-2.178114,-0.02538415,0.01732882,0.998222,24.45803,7.24978,-34.15429,1008.581
1.634775162,0.1364664,-1.874902,-2.239276,-0.01614112,0.01982298,1.003011,24.45803,7.24978,-34.15429,1008.581
1.637251854,0.0139995,-1.874902,-2.422764,-0.01514662,0.01886589,1.007827,24.45803,7.24978,-34.15429,1008.581
1.639729500,0.0139995,-2.177466,-2.667413,-0.01124783,0.01595861,1.005378,24.45803,7.24978,-34.15429,1008.581
1.642206192,-0.1084674,-2.419516,-2.422764,-0.00934505,0.02180474,1.002501,24.45803,7.24978,-34.15429,1008.582
1.644683361,-0.3534013,-2.419516,-2.545089,0.0003777493,0.02429673,1.005357,24.45803,7.24978,-34.15429,1008.582
1.647160053,-0.4758682,-2.661567,-2.483926,0.001855213,0.01747328,0.9995217,24.45803,7.24978,-34.15429,1008.582
1.649636746,-0.6595686,-3.206182,-2.361601,0.004790671,0.01701201,1.003847,24.45803,7.24978,-34.15429,1008.582
1.652113915,-1.02697,-3.145669,-2.178114,0.008667126,0.01897749,1.002871,24.45803,7.24978,-34.15429,1008.582
1.654590607,-1.149436,-3.206182,-1.994627,0.01642985,0.02144887,1.001393,24.45803,7.24978,-34.15429,1008.582
1.657067776,-1.149436,-3.085156,-1.749977,0.01352333,0.01997534,1.002367,24.45803,7.24978,-34.15429,1008.582
1.659544468,-1.271903,-3.024643,-1.444164,0.01451338,0.01363747,0.9970193,24.45803,7.24978,-34.15429,1008.582
1.662021637,-1.21067,-2.964131,-1.199515,0.01889087,0.01268275,0.9955423,24.45803,7.24978,-34.15429,1008.582
1.664498329,-1.21067,-2.843105,-1.07719,0.02421703,0.01513803,0.9926298,24.45803,7.24978,-34.15429,1008.582
1.666975498,-1.088203,-2.601054,-0.7102148,0.02667598,0.01321464,0.9974332,24.45803,7.24978,-34.15429,1008.582
1.669452191,-0.7820356,-2.419516,-0.2209152,0.02617868,0.01075992,0.9901832,24.45803,7.24978,-34.15429,1008.582
1.671928883,-0.5371017,-1.995928,-0.09859026,0.02859994,0.0102762,0.986306,24.44653,7.983171,-34.16726,1008.582
1.674406529,-0.2309344,-1.693364,0.1460596,0.02763982,0.008324645,0.9867839,24.44653,7.983171,-34.16726,1008.582
1.676882744,0.0139995,-1.269775,0.3907094,0.02910754,0.00736069,0.9877363,24.44653,7.983171,-34.16726,1008.582
1.679360390,0.3201669,-1.027724,0.6965217,0.02958567,0.007357348,0.9853203,24.44653,7.983171,-34.16726,1008.582
1.681837082,0.5651007,-0.4831098,1.246984,0.03204687,0.01032429,0.9988369,24.44653,7.983171,-34.16726,1008.586
1.684314251,0.4426338,0.364068,1.613959,0.02960924,0.01226292,1.000308,24.44653,7.983171,-34.16726,1008.586
1.686790943,0.7488011,1.09022,1.858608,0.01941162,0.01124325,1.003255,24.44653,7.983171,-34.16726,1008.586
1.689268112,1.116202,2.058424,1.858608,0.01403848,0.01070989,0.9955588,24.44653,7.983171,-34.16726,1008.586
1.691744805,1.238669,2.966114,1.613959,0.01547514,0.0155902,0.9970241,24.44653,7.983171,-34.16726,1008.586
1.694221497,1.299902,3.692266,1.675121,0.007229385,0.01458528,1.001891,24.44653,7.983171,-34.16726,1008.586
1.696698666,1.544836,4.599957,1.491634,0.001908697,0.01262278,1.007219,24.44653,7.983171,-34.16726,1008.586
1.699175358,1.973471,5.507648,1.246984,0.001382509,0.01503614,0.9995117,24.44653,7.983171,-34.16726,1008.586
1.701652527,1.973471,5.991749,1.063496,0.0009075888,0.01064193,0.9956303,24.44653,7.983171,-34.16726,1008.586
1.704129219,2.218405,6.173287,1.002334,0.0008791615,0.01013274,0.986457,24.44653,7.983171,-34.16726,1008.586
1.706606865,2.218405,6.354825,1.063496,-0.002926351,0.001373746,0.9970518,24.44653,7.983171,-34.16726,1008.586
1.709083557,2.157171,6.052262,1.063496,-0.01218462,0.002779668,0.9942137,24.44653,7.983171,-34.16726,1008.586
1.711560726,2.218405,5.810211,1.063496,-0.01026335,0.003261427,0.9879308,24.44653,7.983171,-34.16726,1008.586
1.714037419,2.279638,5.265597,1.185821,-0.01124416,0.006183799,0.9903646,24.44653,7.983171,-34.16726,1008.586
1.716514111,2.218405,4.720983,1.308146,-0.0126889,0.008630792,0.9985906,24.44653,7.983171,-34.16726,1008.586
1.718991280,1.912237,4.297394,1.124659,-0.01704397,0.01057927,1.008278,24.44653,7.983171,-34.16726,1008.586
1.721467972,1.728537,3.934317,1.002334,-0.01755815,0.01202347,1.002496,24.44653,7.983171,-34.16726,1008.586
1.723945141,1.238669,3.32919,0.7576842,-0.01948758,0.01446912,1.011207,24.08175,7.612493,-34.15939,1008.586
1.726421833,0.8712681,2.905602,0.5741968,-0.01948813,0.01397985,1.010239,24.08175,7.612493,-34.15939,1008.586
1.728899002,0.3201669,2.724063,0.5741968,-0.01801929,0.01546106,1.015548,24.08175,7.612493,-34.15939,1008.586
1.731375694,-0.2309344,2.300474,0.2683845,-0.02240121,0.01250163,1.009282,24.08175,7.612493,-34.15939,1008.586
1.733852387,-0.5983351,1.937398,0.1460596,-0.0190133,0.01250753,1.004437,24.08175,7.612493,-34.15939,1008.586
1.736329556,-1.088203,1.634835,0.207222,-0.0151014,0.009609632,1.005849,24.08175,7.612493,-34.15939,1008.586
1.738806248,-1.21067,1.332271,0.2683845,-0.01119333,0.006220125,1.005327,24.08175,7.612493,-34.15939,1008.586
1.741283894,-1.333137,0.9086823,0.1460596,-0.008275951,0.002812693,0.9995018,24.08175,7.612493,-34.15939,1008.586
1.743760109,-1.39437,0.364068,0.207222,-0.008276529,0.0008567921,0.9961131,24.08175,7.612493,-34.15939,1008.586
1.746237755,-1.149436,-0.1805463,0.207222,-0.006367814,0.001818445,0.9869367,24.08175,7.612493,-34.15939,1008.586
1.748714447,-1.088203,-0.4225971,0.3295469,-0.008338188,0.007168062,0.9884229,24.08175,7.612493,-34.15939,1008.586
1.751191616,-0.8432691,-0.846186,0.6353592,-0.009751913,0.0008375235,0.9912943,24.08175,7.612493,-34.15939,1008.586
1.753668308,-0.5371017,-0.9066988,0.5130343,-0.009249764,-0.001104142,0.9927295,24.08175,7.612493,-34.15939,1008.586
1.756145001,-0.4758682,-0.9672114,0.6965217,-0.008316918,0.00425003,0.9898559,24.08175,7.612493,-34.15939,1008.586
1.758622170,-0.1697009,-0.7856733,0.7576842,-0.007819622,0.006704747,0.9971059,24.08175,7.612493,-34.15939,1008.586
1.761098862,-0.1084674,-0.3620844,0.7576842,-0.01073212,0.007182429,0.9995377,24.08175,7.612493,-34.15939,1008.587
1.763576031,0.3201669,0.4850934,0.6353592,-0.008770987,0.005248314,1.000965,24.08175,7.612493,-34.15939,1008.587
1.766052723,0.7488011,0.7876569,0.5741968,-0.006801654,0.003320057,1.004806,24.08175,7.612493,-34.15939,1008.587
1.768529892,0.8100346,1.271759,0.5741968,-0.01360426,0.00280024,1.005806,24.08175,7.612493,-34.15939,1008.587
1.771006584,1.238669,1.937398,0.2683845,-0.01022614,0.005732375,1.002906,24.08175,7.612493,-34.15939,1008.587
1.773484230,1.544836,2.360987,0.2683845,-0.01214525,0.004274423,1.008219,24.46461,6.891506,-33.70446,1008.587
1.775960922,1.851004,2.724063,0.2683845,-0.008726764,0.002346687,1.009156,24.46461,6.891506,-33.70446,1008.587
1.778437138,1.912237,3.208165,0.207222,-0.006305509,0.001862973,1.005278,24.46461,6.891506,-33.70446,1008.587
1.780914784,2.095937,3.389703,-0.03742781,-0.01214084,0.006721935,1.013541,24.46461,6.891506,-33.70446,1008.587
1.783391476,2.034704,3.32919,0.08489711,-0.01312985,0.009638448,1.013561,24.46461,6.891506,-33.70446,1008.587
1.785868645,1.851004,3.510728,0.02373465,-0.01750684,0.008149165,1.011164,24.46461,6.891506,-33.70446,1008.587
1.788345337,2.034704,3.510728,-0.3432401,-0.01992977,0.005698442,1.009717,24.46461,6.891506,-33.70446,1008.587
1.790822506,1.973471,3.510728,-0.465565,-0.02435036,0.01199995,1.00736,24.46461,6.891506,-33.70446,1008.587
1.793299198,1.60607,3.208165,-0.5267274,-0.02236085,0.007641758,1.013119,24.46461,6.891506,-33.70446,1008.587
1.795775891,1.60607,2.663551,-0.465565,-0.01993908,0.004714047,1.005368,24.46461,6.891506,-33.70446,1008.587
1.798253060,1.177435,2.360987,-0.465565,-0.0238908,0.01296108,1.001088,24.46461,6.891506,-33.70446,1008.587
1.800729752,0.7488011,1.876886,-0.6490523,-0.01900838,0.01251104,1.005885,24.46461,6.891506,-33.70446,1008.587
1.803206921,0.3201669,1.211246,-0.7713773,-0.02142749,0.01055193,1.006371,24.46461,6.891506,-33.70446,1008.588
1.805683613,0.07523298,0.7876569,-0.6490523,-0.02633335,0.0148962,1.001111,24.46461,6.891506,-33.70446,1008.588
1.808161259,-0.04723396,0.3035553,-0.7713773,-0.02000619,0.01199917,0.9976826,24.46461,6.891506,-33.70446,1008.588
1.810637474,-0.1697009,-0.4225971,-0.9548646,-0.01902099,0.01005767,0.9981498,24.46461,6.891506,-33.70446,1008.588
1.813115120,-0.5983351,-0.9672114,-1.138352,-0.01658059,0.01056538,1.001518,24.46461,6.891506,-33.70446,1008.588
1.815591812,-0.6595686,-1.330288,-0.8937021,-0.01267686,0.009128261,1.002937,24.46461,6.891506,-33.70446,1008.588
1.820545674,-0.7208021,-1.995928,-0.7102148,-0.0112321,0.008147903,0.997132,24.46461,6.891506,-33.70446,1008.588
1.820545674,-0.7208021,-1.995928,-0.7102148,-0.0112321,0.008147903,0.997132,24.46461,6.891506,-33.70446,1008.588
1.823022366,-0.7208021,-2.116953,-0.7713773,-0.004879799,0.005757717,1.001912,24.0882,7.253014,-33.77289,1008.588
1.825499535,-0.8432691,-2.116953,-0.7102148,-0.002474363,0.007218184,0.9965966,24.0882,7.253014,-33.77289,1008.588
1.827976227,-0.7208021,-2.177466,-0.6490523,-0.002474363,0.007218184,0.9965966,24.0882,7.253014,-33.77289,1008.588
1.830453396,-0.3534013,-1.935415,-0.7713773,0.001890062,0.009187363,0.9961002,24.0882,7.253014,-33.77289,1008.588
1.832930088,-0.1697009,-1.632851,-0.5267274,-0.002946489,0.006736946,0.9999756,24.0882,7.253014,-33.77289,1008.588
1.837883949,0.3201669,-0.7856733,-0.6490523,-0.0005126491,0.00723997,1.001413,24.0882,7.253014,-33.77289,1008.588
1.840360642,0.6875677,-0.241059,-0.5267274,0.002429299,0.002383483,1.000406,24.0882,7.253014,-33.77289,1008.588
1.842838288,0.8100346,0.2430426,-0.7102148,-6.135786E-06,0.004812552,1.003328,24.0882,7.253014,-33.77289,1008.585
1.845314503,1.299902,0.8481696,-0.6490523,0.005311272,0.006772703,0.9970344,24.0882,7.253014,-33.77289,1008.585
1.847792149,1.912237,1.392784,-0.465565,0.003893228,0.003861182,1.004267,24.0882,7.253014,-33.77289,1008.585
1.850268841,2.218405,1.876886,-0.3432401,0.00193969,0.002378623,0.9994437,24.0882,7.253014,-33.77289,1008.585
1.852746010,2.830739,2.058424,-0.4044026,0.002924912,0.001903763,1.002332,24.0882,7.253014,-33.77289,1008.585
1.855222702,3.259373,2.058424,-0.2209152,0.001464906,0.006784205,1.010088,24.0882,7.253014,-33.77289,1008.585
1.857699871,3.565541,2.118936,-0.09859026,-0.00343231,0.004290432,0.9961042,24.0882,7.253014,-33.77289,1008.585
1.860176563,3.810475,2.179449,0.08489711,-0.00198965,0.008686163,0.9985323,24.0882,7.253014,-33.77289,1008.585
1.862653256,4.116642,2.239962,-0.03742781,-0.003946376,0.01306779,1.002427,24.0882,7.253014,-33.77289,1008.585
1.865130425,4.177875,2.058424,0.02373465,-0.01222157,0.01644168,1.005868,24.0882,7.253014,-33.77289,1008.585
1.877514839,2.402105,2.239962,-0.7102148,-0.01076799,0.02035634,1.010707,24.453,7.623692,-33.78076,1008.585
1.879992485,2.095937,1.997911,-0.7102148,-0.009280044,0.01989571,1.01842,24.453,7.623692,-33.78076,1008.585
1.882469177,2.157171,1.75586,-0.6490523,-0.00880907,0.01646515,1.008263,24.453,7.623692,-33.78076,1008.587
1.884945870,1.78977,1.09022,-0.6490523,-0.009785008,0.01645778,1.007303,24.453,7.623692,-33.78076,1008.587
1.887423039,1.728537,0.6061188,-0.6490523,-0.009322673,0.01986525,1.00587,24.453,7.623692,-33.78076,1008.587
1.889899731,1.60607,0.3035553,-0.6490523,-0.004951135,0.02232838,1.008272,24.453,7.623692,-33.78076,1008.587
1.892376900,1.177435,-0.05952091,-0.5878899,-0.007378904,0.02574067,1.01506,24.453,7.623692,-33.78076,1008.587
1.894853592,0.8712681,-0.4831098,-0.6490523,-0.009801844,0.02328995,1.013613,24.453,7.623692,-33.78076,1008.587
1.897330761,0.5651007,-0.6646479,-0.7713773,-0.009315515,0.02329247,1.01361,24.453,7.623692,-33.78076,1008.587
1.899807453,0.5038673,-0.6041352,-0.5878899,-0.01030399,0.02523162,1.012178,24.453,7.623692,-33.78076,1008.587
1.902284146,0.1364664,-0.4831098,-0.7713773,-0.006888233,0.02379081,1.013117,24.453,7.623692,-33.78076,1008.587
1.904761315,-0.2921678,-0.3620844,-0.9548646,-0.004946217,0.0223319,1.00972,24.453,7.623692,-33.78076,1008.587
1.907238007,-0.3534013,-0.1200336,-0.9548646,-0.001542997,0.02283761,1.010187,24.453,7.623692,-33.78076,1008.587
1.909715653,-0.4146348,0.0615045,-0.8937021,-0.002066992,0.02574141,1.00393,24.453,7.623692,-33.78076,1008.587
1.912191868,-0.4758682,0.4850934,-0.8325397,-0.003012377,0.02233377,1.006331,24.453,7.623692,-33.78076,1008.587
1.914669514,-0.5371017,0.7271442,-0.7713773,0.00333607,0.01798533,1.006756,24.453,7.623692,-33.78076,1008.587
1.917146206,-0.5983351,0.6666315,-0.6490523,0.005280788,0.01457287,1.000936,24.453,7.623692,-33.78076,1008.587
1.919623375,-0.4146348,0.9086823,-0.6490523,0.005252961,0.01748621,0.9975725,24.453,7.623692,-33.78076,1008.587
1.922100067,-0.3534013,1.09022,-0.5267274,0.007715092,0.009698631,0.9936575,24.453,7.623692,-33.78076,1008.588
1.924576760,-0.2309344,0.9691951,-0.5878899,0.01307183,0.01022027,0.996527,24.453,7.623692,-33.78076,1008.588
1.927053929,-0.2309344,0.9086823,-0.2209152,0.01255931,0.01313227,0.9936486,24.453,7.623692,-33.78076,1008.588
1.929530621,-0.04723396,0.7876569,0.1460596,0.007716732,0.009699803,0.9941403,24.453,7.623692,-33.78076,1008.588
1.932007790,0.07523298,0.6061188,0.2683845,0.003841915,0.007735485,0.9955993,24.453,7.623692,-33.78076,1008.588
1.934484482,-0.04723396,0.7271442,0.5130343,0.001421191,0.007241835,0.9980235,24.453,7.623692,-33.78076,1008.588
1.936961651,0.07523298,0.6666315,0.7576842,0.007224375,0.008715235,0.990759,24.453,7.623692,-33.78076,1008.588
1.939438343,0.07523298,0.4850934,1.063496,0.002840367,0.01259852,0.9951472,24.453,7.623692,-33.78076,1008.588
1.941915989,0.0139995,0.5456061,1.185821,0.005285639,0.01017649,0.9951214,24.453,7.623692,-33.78076,1008.588
1.944392205,-0.04723396,0.8481696,1.246984,-0.002002699,0.01307669,1.001934,24.453,7.623692,-33.78076,1008.588
1.946868897,-0.1697009,0.7876569,1.369309,-0.004405987,0.009173392,1.003857,24.453,7.623692,-33.78076,1008.588
1.949346543,-0.1084674,1.09022,1.369309,0.002900431,0.009219348,1.007196,24.453,7.623692,-33.78076,1008.588
1.951823235,0.07523298,1.695347,1.185821,-0.005372663,0.007217145,1.002405,24.453,7.623692,-33.78076,1008.588
1.954300404,0.2589334,2.118936,1.246984,-0.004385294,0.00429946,1.001902,24.453,7.623692,-33.78076,1008.588
1.956777096,0.3201669,2.603038,1.185821,1.993729E-06,0.0004185133,0.9984789,24.453,7.623692,-33.78076,1008.588
1.959254265,0.6263342,2.966114,1.063496,-0.003920256,0.005753377,0.998045,24.453,7.623692,-33.78076,1008.588
1.961730957,0.9325016,3.389703,1.124659,-0.0112152,0.005715623,0.9980848,24.453,7.623692,-33.78076,1008.588
1.964208126,1.238669,3.510728,1.308146,-0.007294565,0.001846221,1.000457,24.453,7.623692,-33.78076,1008.588
1.966684818,1.544836,3.571241,1.124659,-0.009238773,0.00281469,1.002403,24.453,7.623692,-33.78076,1008.588
1.969161511,1.422369,3.631754,1.002334,-0.01072286,0.005233559,0.9990449,24.453,7.623692,-33.78076,1008.588
1.971638680,1.667303,3.692266,1.063496,-0.01265402,0.001811505,0.99759,24.453,7.623692,-33.78076,1008.588
1.974115372,2.034704,3.389703,1.124659,-0.01457204,-0.0001345428,1.002417,24.155,6.879767,-34.14666,1008.588
1.976592541,2.279638,3.268678,1.185821,-0.01650263,-0.001600697,1.004351,24.155,6.879767,-34.14666,1008.588
1.979069233,2.340871,3.510728,1.124659,-0.02039102,0.001802873,1.010665,24.155,6.879767,-34.14666,1008.588
1.981546879,2.402105,3.510728,0.9411715,-0.02286523,0.006159719,1.005391,24.155,6.879767,-34.14666,1008.588
1.984023571,2.402105,3.32919,0.8800091,-0.02629298,0.01003633,1.004947,24.155,6.879767,-34.14666,1008.588
1.986500740,2.463338,3.268678,0.8188466,-0.02625532,0.007130011,1.011207,24.155,6.879767,-34.14666,1008.588
1.988977432,2.524572,3.147652,0.6353592,-0.02527178,0.003720715,1.00877,24.155,6.879767,-34.14666,1008.588
1.991454124,2.218405,2.966114,0.4518718,-0.02967435,0.008568481,1.009302,24.155,6.879767,-34.14666,1008.588
1.993931293,2.218405,2.4215,0.3295469,-0.03598576,0.005121429,1.006906,24.155,6.879767,-34.14666,1008.588
1.996407986,2.279638,2.058424,0.2683845,-0.03257434,0.005633003,1.009786,24.155,6.879767,-34.14666,1008.588
1.998885155,2.034704,1.75586,0.08489711,-0.03548902,0.007086878,1.013188,24.155,6.879767,-34.14666,1008.588
2.001361847,1.912237,1.392784,0.08489711,-0.04087903,0.01045243,1.00696,24.155,6.879767,-34.14666,1008.589
2.003839016,1.78977,1.029708,-0.03742781,-0.03697309,0.01097238,1.01225,24.155,6.879767,-34.14666,1008.589
2.006315708,1.483603,0.9086823,-0.2209152,-0.03502284,0.01098596,1.013688,24.155,6.879767,-34.14666,1008.589
2.008793354,1.299902,0.8481696,-0.465565,-0.04036099,0.01096648,1.017096,24.155,6.879767,-34.14666,1008.589
2.011269569,0.993735,0.7271442,-0.5267274,-0.03940365,0.0104717,1.011778,24.155,6.879767,-34.14666,1008.589
2.013747215,0.5651007,0.6666315,-0.8937021,-0.03844897,0.01339711,1.011306,24.155,6.879767,-34.14666,1008.589
2.016223907,0.3201669,0.6061188,-1.199515,-0.03600149,0.01293214,1.015151,24.155,6.879767,-34.14666,1008.589
2.018700600,0.4426338,0.364068,-1.383002,-0.03356929,0.01343399,1.016106,24.155,6.879767,-34.14666,1008.589
2.021177769,0.3201669,0.3035553,-1.627652,-0.03454359,0.01342779,1.015628,24.155,6.879767,-34.14666,1008.589
2.023654461,0.07523298,0.1220172,-1.933464,-0.03160323,0.01150339,1.018981,24.155,6.879767,-34.14666,1008.589
2.026131630,-0.2309344,0.0009917939,-2.239276,-0.02777485,0.01441227,1.00546,24.45874,7.256997,-33.77428,1008.589
2.028608322,-0.4758682,-0.241059,-2.239276,-0.03217962,0.01876959,1.004541,24.45874,7.256997,-33.77428,1008.589
2.031085491,-0.7820356,-0.4831098,-2.239276,-0.02586335,0.01928689,1.003544,24.45874,7.256997,-33.77428,1008.589
2.033562183,-1.02697,-0.846186,-2.239276,-0.02049305,0.01297401,0.9991382,24.45874,7.256997,-33.77428,1008.589
2.036038876,-1.21067,-1.088237,-2.361601,-0.02195749,0.01394031,0.9991511,24.45874,7.256997,-33.77428,1008.589
2.038516045,-1.39437,-1.330288,-2.361601,-0.01806628,0.01591635,1.002519,24.45874,7.256997,-33.77428,1008.589
2.040992737,-1.578071,-1.995928,-2.239276,-0.01027413,0.01254229,1.000046,24.45874,7.256997,-33.77428,1008.587
2.043469906,-1.700538,-2.419516,-2.116951,-0.006898207,0.01498398,0.9956954,24.45874,7.256997,-33.77428,1008.587
2.045946598,-1.823005,-2.72208,-1.994627,-0.01128993,0.01495078,0.9913751,24.45874,7.256997,-33.77428,1008.587
2.048424244,-1.823005,-2.72208,-1.994627,-0.01224894,0.01397776,0.9937888,24.45874,7.256997,-33.77428,1008.587
2.050900936,-1.761771,-2.964131,-2.055789,-0.008362113,0.01497292,0.9942554,24.45874,7.256997,-33.77428,1008.587
2.053377152,-1.761771,-2.903618,-1.872301,-0.001094423,0.01987991,0.9942408,24.45874,7.256997,-33.77428,1008.587
2.055854797,-1.945472,-2.843105,-1.749977,-0.0006190399,0.01889686,0.9894063,24.45874,7.256997,-33.77428,1008.587
2.058331490,-1.945472,-2.964131,-1.627652,0.0008879818,0.01502777,0.997101,24.45874,7.256997,-33.77428,1008.587
2.060808659,-1.884238,-2.782593,-1.688814,-0.002037684,0.01256281,0.9908295,24.45874,7.256997,-33.77428,1008.587
2.063285351,-1.884238,-2.661567,-1.444164,0.003770464,0.01697299,0.9898551,24.45874,7.256997,-33.77428,1008.587
2.065762520,-1.823005,-2.419516,-1.07719,0.006197192,0.01698206,0.9883937,24.45874,7.256997,-33.77428,1008.587
2.068239212,-1.761771,-2.237978,-0.9548646,0.01011397,0.01115441,0.9864117,24.45874,7.256997,-33.77428,1008.587
2.070716381,-1.578071,-2.116953,-0.9548646,0.005754464,0.00918875,0.9883561,24.45874,7.256997,-33.77428,1008.587
2.073193073,-1.39437,-1.693364,-0.8937021,0.009172417,0.008238378,0.9907459,24.45874,7.256997,-33.77428,1008.587
2.075670719,-1.088203,-1.3908,-0.7102148,0.007222159,0.006758162,0.9868877,24.82928,7.26098,-33.77567,1008.587
2.078146935,-0.9045025,-1.088237,-0.3432401,0.009157661,0.008227832,0.9864019,24.82928,7.26098,-33.77567,1008.587
2.080623627,-0.7820356,-0.9672114,-0.3432401,0.009624338,0.009682919,0.9830281,24.82928,7.26098,-33.77567,1008.587
2.083101273,-0.6595686,-0.6646479,-0.03742781,0.006708002,0.009668989,0.9835267,24.82928,7.26098,-33.77567,1008.592
2.085577965,-0.4146348,-0.3620844,0.02373465,0.002332677,0.009647509,0.9840331,24.82928,7.26098,-33.77567,1008.592
2.088055134,-0.2921678,0.0009917939,0.207222,0.005246243,0.007215099,0.9786953,24.82928,7.26098,-33.77567,1008.592
2.090531826,0.1364664,0.4850934,0.207222,-0.0005880476,0.0086527,0.9816306,24.82928,7.26098,-33.77567,1008.592
2.093008995,0.3201669,1.09022,0.1460596,-0.0005558096,0.008186868,0.9903163,24.82928,7.26098,-33.77567,1008.592
2.095485687,0.6875677,1.513809,-0.2209152,-0.003476534,0.007192058,0.9879138,24.82928,7.26098,-33.77567,1008.592
2.100439549,0.9325016,2.663551,-0.1597527,-6.945734E-05,0.009656018,0.9927346,24.82928,7.26098,-33.77567,1008.592
2.100439549,0.9325016,2.663551,-0.1597527,-6.945734E-05,0.009656018,0.9927346,24.82928,7.26098,-33.77567,1008.592
2.102916241,1.054968,3.147652,-0.1597527,-0.00296561,0.007212153,0.9951513,24.82928,7.26098,-33.77567,1008.592
2.107870102,1.238669,3.692266,-0.3432401,-0.00978951,0.008143735,0.9922974,24.82928,7.26098,-33.77567,1008.592
2.110347271,1.422369,3.99483,-0.2820776,-0.006895482,0.01449706,0.9956928,24.82928,7.26098,-33.77567,1008.592
2.112823963,1.361136,4.418419,-0.2820776,-0.01269324,0.01058318,1.000531,24.82928,7.26098,-33.77567,1008.592
2.115301609,1.483603,4.599957,-0.2209152,-0.01072721,0.007185944,1.000986,24.82928,7.26098,-33.77567,1008.592
2.117778301,1.544836,4.781495,-0.2820776,-0.01610789,0.01300252,1.001528,24.82928,7.26098,-33.77567,1008.592
2.120255470,1.60607,4.781495,-0.4044026,-0.01656909,0.01204022,1.007317,24.82928,7.26098,-33.77567,1008.592
2.122732163,1.667303,4.781495,-0.6490523,-0.02049518,0.01688347,1.00495,24.82928,7.26098,-33.77567,1008.591
2.125208855,1.667303,4.963033,-0.5878899,-0.01707563,0.01300101,1.002981,25.19982,7.264963,-33.77705,1008.591
2.127686024,1.728537,4.842008,-0.5878899,-0.02097386,0.01639755,1.006399,25.19982,7.264963,-33.77705,1008.591
2.130162716,1.422369,4.66047,-0.8325397,-0.01998536,0.01592503,1.010252,25.19982,7.264963,-33.77705,1008.591
2.132639885,1.116202,4.478932,-0.7102148,-0.01610127,0.01740711,1.010721,25.19982,7.264963,-33.77705,1008.591
2.135116577,0.9325016,4.115856,-0.8325397,-0.02291595,0.01345656,1.002533,25.19982,7.264963,-33.77705,1008.591
2.137593746,0.6875677,3.813292,-0.8937021,-0.02487976,0.01881086,1.00595,25.19982,7.264963,-33.77705,1008.591
2.140070438,0.5038673,3.510728,-1.07719,-0.02681414,0.01978636,1.010792,25.19982,7.264963,-33.77705,1008.591
2.142547131,0.2589334,3.450216,-1.07719,-0.0268327,0.02075084,1.006936,25.19982,7.264963,-33.77705,1008.591
2.145024300,0.0139995,3.026627,-1.07719,-0.02925892,0.01829777,1.004523,25.19982,7.264963,-33.77705,1008.591
2.147500992,-0.2921678,2.663551,-1.321839,-0.02877421,0.01976575,1.006459,25.19982,7.264963,-33.77705,1008.591
2.149978638,-0.1697009,2.360987,-1.505327,-0.02439835,0.01880986,1.004499,25.19982,7.264963,-33.77705,1008.591
2.152455330,-0.3534013,1.937398,-1.444164,-0.02634702,0.01439755,0.9962816,25.19982,7.264963,-33.77705,1008.591
2.154932499,-0.4146348,1.513809,-1.321839,-0.02050069,0.01345742,0.9976928,25.19982,7.264963,-33.77705,1008.591
2.157409191,-0.2921678,0.8481696,-1.505327,-0.02147495,0.01638448,1.002057,25.19982,7.264963,-33.77705,1008.591
2.159886360,-0.5371017,0.1825299,-1.260677,-0.01904656,0.01786136,1.0035,25.19982,7.264963,-33.77705,1008.591
2.162363052,-0.9045025,-0.241059,-1.138352,-0.01320518,0.01545108,1.001042,25.19982,7.264963,-33.77705,1008.591
2.164840221,-1.02697,-0.9672114,-1.07719,-0.01321495,0.01984394,1.005408,25.19982,7.264963,-33.77705,1008.591
2.167316914,-1.21067,-1.14875,-0.8937021,-0.01418377,0.02033052,1.007347,25.19982,7.264963,-33.77705,1008.591
2.169793606,-1.578071,-1.511826,-0.8937021,-0.01075711,0.01694201,1.008276,25.19982,7.264963,-33.77705,1008.591
2.172270775,-1.700538,-1.753877,-1.016027,-0.01463846,0.01643964,1.010226,25.19982,7.264963,-33.77705,1008.591
2.174747467,-1.884238,-1.693364,-0.8325397,-0.01170031,0.01402481,1.012128,25.19982,7.264963,-33.77705,1008.591
2.177224636,-1.945472,-1.753877,-0.7713773,-0.0102785,0.01302804,0.9995652,24.45803,7.24978,-34.15429,1008.591
2.179701328,-1.945472,-1.753877,-0.7102148,-0.002969307,0.01552034,1.007744,24.45803,7.24978,-34.15429,1008.591
2.182178974,-1.455604,-1.572338,-0.6490523,-0.007853316,0.01890247,1.007305,24.45803,7.24978,-34.15429,1008.591
2.184655666,-1.455604,-1.269775,-0.465565,-0.006835971,0.01062861,1.006774,24.45803,7.24978,-34.15429,1008.591
2.187131882,-1.333137,-1.088237,-0.4044026,-0.01025067,0.01011469,1.002929,24.45803,7.24978,-34.15429,1008.591
2.189609528,-0.6595686,-0.6041352,-0.5878899,-0.01025776,0.01108737,1.002451,24.45803,7.24978,-34.15429,1008.591
2.192086220,-0.6595686,-0.3015717,-0.6490523,-0.00927801,0.01011973,1.002924,24.45803,7.24978,-34.15429,1008.591
2.194563389,-0.5983351,-0.1200336,-0.5267274,-0.01123152,0.0101038,1.000521,24.45803,7.24978,-34.15429,1008.591
2.197040081,-0.1697009,0.4245807,-0.4044026,-0.008310223,0.01305451,1.006312,24.45803,7.24978,-34.15429,1008.591
2.199517250,0.0139995,0.8481696,-0.7102148,-0.006351789,0.01307395,1.010163,24.45803,7.24978,-34.15429,1008.591
2.201993942,0.0139995,1.332271,-0.5267274,-0.007835903,0.01402619,1.004384,24.45803,7.24978,-34.15429,1008.59
2.204471111,0.3201669,1.876886,-0.4044026,-0.01025065,0.01158133,1.00535,24.45803,7.24978,-34.15429,1008.59
2.206947804,0.5651007,2.360987,-0.3432401,-0.01657071,0.01350568,1.009256,24.45803,7.24978,-34.15429,1008.59
2.209425449,0.8100346,3.026627,-0.4044026,-0.0180166,0.01204087,1.010704,24.45803,7.24978,-34.15429,1008.59
2.211901665,0.8712681,3.268678,-0.465565,-0.01559533,0.01302379,1.009248,24.45803,7.24978,-34.15429,1008.59
2.214378357,1.054968,3.571241,-0.6490523,-0.01803298,0.01349579,1.008298,24.45803,7.24978,-34.15429,1008.59
2.216856003,0.9325016,3.813292,-0.7713773,-0.01753628,0.01252797,1.009739,24.45803,7.24978,-34.15429,1008.59
2.219332695,0.9325016,3.934317,-0.7713773,-0.01366095,0.01204829,1.004405,24.45803,7.24978,-34.15429,1008.59
2.221809864,0.993735,3.813292,-0.7102148,-0.01855702,0.01346632,0.9971994,24.45803,7.24978,-34.15429,1008.59
2.224286556,1.054968,3.692266,-0.7713773,-0.0238908,0.01296108,1.001088,24.45803,7.24978,-34.15429,1008.59
2.226763725,1.116202,3.389703,-0.8937021,-0.02099626,0.01687041,1.000609,24.1428,7.60594,-34.53963,1008.59
2.229240418,1.177435,3.268678,-0.7713773,-0.01904714,0.01590545,1.000111,24.1428,7.60594,-34.53963,1008.59
2.231717587,1.054968,2.905602,-0.8325397,-0.01853404,0.01494936,1.006378,24.1428,7.60594,-34.53963,1008.59
2.234194279,0.993735,2.482013,-0.8937021,-0.02196287,0.01931406,1.006419,24.1428,7.60594,-34.53963,1008.59
2.236670971,1.116202,2.239962,-0.8937021,-0.01999684,0.01591683,1.006873,24.1428,7.60594,-34.53963,1008.59
2.239148140,0.993735,1.816373,-0.7713773,-0.02146298,0.01248205,0.9991409,24.1428,7.60594,-34.53963,1008.59
2.241624832,1.054968,1.392784,-0.7102148,-0.02097169,0.01542135,1.005428,24.1428,7.60594,-34.53963,1008.592
2.244102001,0.8100346,1.09022,-0.7102148,-0.02291756,0.01492202,1.004471,24.1428,7.60594,-34.53963,1008.592
2.246578693,0.8712681,0.8481696,-0.7102148,-0.0224541,0.02077466,1.007395,24.1428,7.60594,-34.53963,1008.592
2.249056339,0.993735,0.7876569,-1.016027,-0.02096673,0.01835813,1.011718,24.1428,7.60594,-34.53963,1008.592
2.251533032,1.054968,0.7271442,-1.138352,-0.02292027,0.01687557,1.006894,24.1428,7.60594,-34.53963,1008.592
2.254010201,0.9325016,0.6061188,-1.260677,-0.0219192,0.01592316,1.013642,24.1428,7.60594,-34.53963,1008.592
2.256486893,0.9325016,0.6061188,-1.321839,-0.02244202,0.02420539,1.016583,24.1428,7.60594,-34.53963,1008.592
2.258963585,0.7488011,0.4850934,-1.566489,-0.02387436,0.01590607,1.010756,24.1428,7.60594,-34.53963,1008.592
2.261440754,0.8100346,0.6061188,-1.627652,-0.02194426,0.02128285,1.015117,24.1428,7.60594,-34.53963,1008.592
2.263917446,0.6875677,0.4850934,-1.933464,-0.01563018,0.02130971,1.012669,24.1428,7.60594,-34.53963,1008.592
2.266394615,0.5651007,0.1825299,-2.055789,-0.01809127,0.02567593,1.011257,24.1428,7.60594,-34.53963,1008.592
2.268871307,0.4426338,0.1220172,-1.811139,-0.01860381,0.02712129,1.005958,24.1428,7.60594,-34.53963,1008.592
2.271348476,0.1364664,-0.1200336,-1.749977,-0.01662415,0.02128944,1.0064,24.1428,7.60594,-34.53963,1008.592
2.273825169,0.1976999,-0.3620844,-1.872301,-0.01176631,0.02228846,1.006378,24.1428,7.60594,-34.53963,1008.592
2.276302815,0.1364664,-0.7856733,-1.688814,-0.01033297,0.02423316,1.002037,24.1428,7.60594,-34.53963,1008.592
2.278779030,0.1364664,-1.3908,-1.627652,-0.008874008,0.02277408,0.9996076,24.8301,7.2694,-33.33231,1008.592
2.281255722,0.1976999,-1.693364,-1.383002,-0.006923195,0.02474356,1.004434,24.8301,7.2694,-33.33231,1008.593
2.283733368,0.07523298,-2.116953,-1.260677,-0.004968617,0.02280476,1.00393,24.8301,7.2694,-33.33231,1008.593
2.286210060,-0.04723396,-2.480029,-1.016027,-0.004467555,0.02135119,1.005851,24.8301,7.2694,-33.33231,1008.593
2.291163921,0.07523298,-2.843105,-0.8937021,-0.000579644,0.02185825,1.005832,24.8301,7.2694,-33.33231,1008.593
2.291163921,0.07523298,-2.843105,-0.8937021,-0.000579644,0.02185825,1.005832,24.8301,7.2694,-33.33231,1008.593
2.293641090,0.1976999,-2.964131,-0.6490523,0.002352003,0.022372,1.010646,24.8301,7.2694,-33.33231,1008.593
2.296117783,0.1976999,-3.024643,-0.3432401,0.001874357,0.01846471,1.006767,24.8301,7.2694,-33.33231,1008.593
2.298594952,0.2589334,-3.024643,-0.09859026,0.01010649,0.02190425,1.001913,24.8301,7.2694,-33.33231,1008.593
2.301071644,0.3814003,-2.843105,0.1460596,0.004332192,0.01556278,1.009634,24.8301,7.2694,-33.33231,1008.593
2.303548336,0.5651007,-2.782593,0.3907094,0.008221188,0.01558174,1.009131,24.8301,7.2694,-33.33231,1008.593
2.306025505,0.5038673,-2.419516,0.5741968,0.002843827,0.02433393,1.01548,24.8301,7.2694,-33.33231,1008.593
2.308502197,0.5038673,-2.116953,0.6353592,0.00140664,0.02043098,1.015468,24.8301,7.2694,-33.33231,1008.593
2.310979366,0.4426338,-1.814389,0.8188466,0.004355123,0.01411255,1.013971,24.8301,7.2694,-33.33231,1008.593
2.313456059,0.2589334,-1.269775,0.9411715,0.005831039,0.01315445,1.017337,24.8301,7.2694,-33.33231,1008.593
2.315933704,0.3814003,-0.6646479,1.063496,-0.001497734,0.01651463,1.01305,24.8301,7.2694,-33.33231,1008.593
2.318410397,0.4426338,-0.1200336,1.185821,-0.00442063,0.01649601,1.011618,24.8301,7.2694,-33.33231,1008.593
2.320887566,0.5651007,0.7271442,1.063496,-0.005392755,0.01551361,1.01017,24.8301,7.2694,-33.33231,1008.595
2.323364258,0.8100346,1.332271,0.7576842,-0.01413627,0.01743124,1.016503,24.8301,7.2694,-33.33231,1008.595
2.325840950,0.993735,1.695347,0.6965217,-0.01415267,0.01741952,1.011676,24.8301,7.2694,-33.33231,1008.595
2.328318119,0.8712681,2.118936,0.5741968,-0.01463359,0.01350989,1.006832,24.4645,6.890302,-33.7678,1008.595
2.330794811,0.993735,2.542525,0.3907094,-0.01608115,0.01057728,1.005377,24.4645,6.890302,-33.7678,1008.595
2.333271980,0.8100346,2.603038,0.2683845,-0.01707124,0.01398189,1.005882,24.4645,6.890302,-33.7678,1008.595
2.335748673,0.8100346,2.603038,-0.03742781,-0.01998818,0.01054542,1.000571,24.4645,6.890302,-33.7678,1008.595
2.338225842,0.6263342,2.360987,0.02373465,-0.01805595,0.01201275,0.9991199,24.4645,6.890302,-33.7678,1008.595
2.340702534,0.5651007,1.997911,0.1460596,-0.02387447,0.008572903,0.9986515,24.4645,6.890302,-33.7678,1008.595
2.343180180,0.5038673,1.75586,0.1460596,-0.02730718,0.009512728,0.9919176,24.4645,6.890302,-33.7678,1008.595
2.345656395,0.3201669,1.150733,0.08489711,-0.02586076,0.01000017,0.9890161,24.4645,6.890302,-33.7678,1008.595
2.348133087,0.1976999,0.5456061,-0.03742781,-0.02441869,0.01097337,0.9856344,24.4645,6.890302,-33.7678,1008.595
2.350610733,0.1976999,-0.05952091,-0.03742781,-0.02582859,0.005134443,0.990439,24.4645,6.890302,-33.7678,1008.595
2.353087425,0.4426338,-0.7856733,0.08489711,-0.0244007,0.008052995,0.9861021,24.4645,6.890302,-33.7678,1008.595
2.355564594,0.2589334,-1.330288,-0.03742781,-0.02291662,0.005634126,0.9894603,24.4645,6.890302,-33.7678,1008.595
2.358041287,0.1364664,-2.05644,0.08489711,-0.0180151,0.003242248,0.9966612,24.4645,6.890302,-33.7678,1008.595
2.360518456,0.07523298,-2.540542,0.2683845,-0.01511024,0.003247976,0.992784,24.4645,6.890302,-33.7678,1008.595
2.362995148,0.07523298,-2.964131,0.4518718,-0.01460754,0.001795578,0.9951872,24.4645,6.890302,-33.7678,1008.596
2.365472317,0.1976999,-3.327207,0.6353592,-0.01511292,0.006668165,0.9976284,24.4645,6.890302,-33.7678,1008.596
2.367949009,0.2589334,-3.38772,0.5741968,-0.01511015,0.009114506,1.002468,24.4645,6.890302,-33.7678,1008.596
2.370425701,0.1364664,-3.508745,0.6353592,-0.01409112,0.003775088,1.007261,24.4645,6.890302,-33.7678,1008.596
2.375379562,0.1976999,-2.540542,0.3295469,-0.01456817,0.003290334,1.009192,24.4645,6.890302,-33.7678,1008.596
2.377856732,0.1976999,-1.935415,0.3295469,-0.01551187,0.002817124,1.016918,24.45803,7.24978,-34.15429,1008.596
2.380333424,0.4426338,-1.330288,0.4518718,-0.01551076,0.00379566,1.018854,24.45803,7.24978,-34.15429,1008.596
2.382811070,0.5651007,-0.7856733,0.3295469,-0.01555614,0.002785485,1.003886,24.45803,7.24978,-34.15429,1008.596
2.385287762,0.6263342,-0.1805463,0.08489711,-0.01504306,0.0003627541,1.007732,24.45803,7.24978,-34.15429,1008.596
2.387764931,1.054968,0.3035553,0.02373465,-0.01310973,0.002808616,1.008217,24.45803,7.24978,-34.15429,1008.596
2.390241623,1.177435,0.6666315,-0.09859026,-0.01895986,0.004723768,1.007293,24.45803,7.24978,-34.15429,1008.596
2.392718315,1.361136,1.271759,-0.03742781,-0.02234563,0.002275043,1.008747,24.45803,7.24978,-34.15429,1008.596
2.395195484,1.054968,1.453297,-0.2209152,-0.02091119,0.005198281,1.006341,24.45803,7.24978,-34.15429,1008.596
2.397672176,1.238669,1.574322,-0.2820776,-0.02189419,0.007630213,1.007324,24.45803,7.24978,-34.15429,1008.596
2.400149345,1.361136,1.876886,-0.3432401,-0.02578487,0.004676814,1.002503,24.45803,7.24978,-34.15429,1008.596
2.402626038,1.238669,1.75586,-0.4044026,-0.02625755,0.003706307,1.004914,24.45803,7.24978,-34.15429,1008.599
2.405103207,1.116202,1.937398,-0.465565,-0.02672913,0.003714336,1.009261,24.45803,7.24978,-34.15429,1008.599
2.407579899,1.116202,1.75586,-0.4044026,-0.0243662,0.0124775,1.003501,24.45803,7.24978,-34.15429,1008.599
2.410057545,0.8712681,1.211246,-0.5267274,-0.0292077,0.008556935,1.003507,24.45803,7.24978,-34.15429,1008.599
2.412533760,0.8100346,1.029708,-0.5878899,-0.0306465,0.006119449,1.005433,24.45803,7.24978,-34.15429,1008.599
2.415010452,0.6263342,0.6666315,-0.5878899,-0.02772141,0.006628505,1.008316,24.45803,7.24978,-34.15429,1008.599
2.417488098,0.3814003,0.364068,-0.8325397,-0.02773945,0.006615615,1.003007,24.45803,7.24978,-34.15429,1008.599
2.419964790,0.1976999,0.0615045,-0.7102148,-0.02579956,0.009066164,1.005422,24.45803,7.24978,-34.15429,1008.599
2.422441959,0.0139995,-0.3015717,-0.7713773,-0.02824978,0.01001805,1.001579,24.45803,7.24978,-34.15429,1008.599
2.424918652,-0.04723396,-0.7251607,-0.9548646,-0.03409822,0.01486764,1.00598,24.45803,7.24978,-34.15429,1008.599
2.427395821,-0.1697009,-1.088237,-0.9548646,-0.03069172,0.0153757,1.007412,24.45803,7.24978,-34.15429,1008.599
2.429872513,-0.7208021,-1.330288,-1.138352,-0.02777977,0.01440875,1.004012,25.19911,7.257746,-34.15707,1008.599
2.432349682,-0.8432691,-1.511826,-1.138352,-0.02630988,0.0124686,1.003994,25.19911,7.257746,-34.15707,1008.599
2.434826374,-1.088203,-1.814389,-1.199515,-0.02436891,0.01443106,1.005924,25.19911,7.257746,-34.15707,1008.599
2.437303543,-1.149436,-1.935415,-1.321839,-0.02483561,0.01150934,1.006877,25.19911,7.257746,-34.15707,1008.599
2.439780235,-1.21067,-1.874902,-1.383002,-0.02535304,0.01441782,1.002551,25.19911,7.257746,-34.15707,1008.599
2.442256928,-1.271903,-1.935415,-1.505327,-0.02436727,0.01443223,1.006407,25.19911,7.257746,-34.15707,1008.599
2.444734097,-1.455604,-1.693364,-1.627652,-0.01855097,0.015915,1.003004,25.19911,7.257746,-34.15707,1008.599
2.447210789,-1.39437,-1.572338,-1.811139,-0.02050014,0.01394669,0.9986606,25.19911,7.257746,-34.15707,1008.599
2.449688435,-1.516837,-1.3908,-1.872301,-0.0205176,0.0158897,0.9967399,25.19911,7.257746,-34.15707,1008.599
2.452165127,-1.455604,-1.3908,-1.933464,-0.02244874,0.01393428,0.9977059,25.19911,7.257746,-34.15707,1008.599
2.454642296,-1.39437,-1.330288,-1.933464,-0.01467128,0.01494957,0.9981511,25.19911,7.257746,-34.15707,1008.599
2.457118988,-1.455604,-1.209262,-1.933464,-0.01418661,0.01348428,0.9952449,25.19911,7.257746,-34.15707,1008.599
2.459596157,-1.271903,-1.209262,-2.116951,-0.01273305,0.01593232,0.997663,25.19911,7.257746,-34.15707,1008.599
2.462072849,-1.088203,-1.027724,-2.116951,-0.01320735,0.01642727,1.002012,25.19911,7.257746,-34.15707,1008.599
2.464549542,-0.9045025,-1.027724,-1.933464,-0.01418929,0.01690447,1.000089,25.19911,7.257746,-34.15707,1008.599
2.467026711,-0.8432691,-1.088237,-1.872301,-0.01225381,0.01690751,0.9971826,25.19911,7.257746,-34.15707,1008.599
2.469503403,-0.7820356,-1.088237,-1.811139,-0.01325211,0.02030626,0.9952748,25.19911,7.257746,-34.15707,1008.599
2.471980572,-0.7208021,-1.14875,-1.811139,-0.01177728,0.01983626,0.9991257,25.19911,7.257746,-34.15707,1008.599
2.474457264,-0.8432691,-1.330288,-1.505327,-0.004977392,0.020843,0.9981284,25.19911,7.257746,-34.15707,1008.599
2.476934910,-0.8432691,-1.451313,-1.505327,-0.008866387,0.02082404,0.9986323,25.19911,7.257746,-34.15707,1008.599
2.479411125,-1.149436,-1.451313,-1.444164,-0.007904098,0.02179941,0.9971839,24.15078,7.262098,-33.32977,1008.599
2.481888771,-1.455604,-1.572338,-1.383002,-0.004012332,0.02426471,1.001519,24.15078,7.262098,-33.32977,1008.597
2.484365463,-1.455604,-1.753877,-1.321839,-0.007880612,0.02083845,1.002488,24.15078,7.262098,-33.32977,1008.597
2.486842156,-1.761771,-1.814389,-1.321839,-0.005933632,0.02231632,1.005381,24.15078,7.262098,-33.32977,1008.597
2.489319325,-1.945472,-1.632851,-1.138352,-0.001083455,0.02233211,1.001493,24.15078,7.262098,-33.32977,1008.597
2.491796017,-1.761771,-1.511826,-1.199515,-0.002042489,0.01989245,1.001486,24.15078,7.262098,-33.32977,1008.597
2.494273186,-1.884238,-1.632851,-1.07719,-0.002046876,0.01891158,0.9985851,24.15078,7.262098,-33.32977,1008.597
2.496749878,-2.006705,-1.693364,-1.07719,-0.004456723,0.0150036,0.9985783,24.15078,7.262098,-33.32977,1008.597
2.499227047,-2.006705,-1.693364,-0.9548646,-0.005463767,0.01790722,0.9932891,24.15078,7.262098,-33.32977,1008.597
2.501703739,-1.945472,-1.753877,-1.016027,0.002779838,0.02135496,0.9918138,24.15078,7.262098,-33.32977,1008.597
2.504180908,-2.006705,-1.874902,-0.7713773,-0.001103707,0.02036215,0.9923126,24.15078,7.262098,-33.32977,1008.597
2.506657601,-2.067938,-1.814389,-0.465565,-0.001545305,0.01501401,0.9966316,24.15078,7.262098,-33.32977,1008.597
2.509134293,-2.190405,-2.116953,-0.3432401,0.003753605,0.02233853,0.9937441,24.15078,7.262098,-33.32977,1008.597
2.511611462,-2.006705,-1.995928,-0.4044026,0.001837178,0.01746039,0.9942123,24.15078,7.262098,-33.32977,1008.597
2.514088154,-1.884238,-2.05644,-0.2209152,0.0008742881,0.01306249,0.9898508,24.15078,7.262098,-33.32977,1008.597
2.516565800,-1.761771,-2.05644,0.02373465,0.003274829,0.01598608,0.9855086,24.15078,7.262098,-33.32977,1008.597
2.519042492,-1.700538,-1.814389,0.02373465,0.003777554,0.01600031,0.9903328,24.15078,7.262098,-33.32977,1008.597
2.521519661,-1.578071,-1.572338,0.02373465,0.004759496,0.01552311,0.9922556,24.15078,7.262098,-33.32977,1008.596
2.523996353,-1.455604,-1.451313,0.207222,0.00188295,0.008693408,0.9932016,24.15078,7.262098,-33.32977,1008.596
2.526473522,-1.149436,-1.088237,0.3295469,0.00234092,0.01258663,0.9912884,24.15078,7.262098,-33.32977,1008.596
2.528950215,-1.149436,-0.6646479,0.3295469,0.001360686,0.01746491,0.9971109,24.82353,7.627676,-33.78215,1008.596
2.531427384,-1.02697,-0.3620844,0.5130343,0.004335979,0.01312112,1.006726,24.82353,7.627676,-33.78215,1008.596
2.533904076,-0.8432691,0.0615045,0.6353592,-0.002989005,0.01403964,0.9995306,24.82353,7.627676,-33.78215,1008.596
2.536380768,-0.7820356,0.1825299,0.6353592,0.002385698,0.01017427,1.000447,24.82353,7.627676,-33.78215,1008.596
2.538857937,-0.5371017,0.7271442,0.7576842,0.0004245609,0.01210839,0.9990192,24.82353,7.627676,-33.78215,1008.596
2.541334629,-0.4758682,1.211246,0.8188466,-0.001997294,0.009169571,0.9970867,24.82353,7.627676,-33.78215,1008.596
2.543812275,-0.2309344,1.574322,0.7576842,-0.001497339,0.006737466,0.9970715,24.82353,7.627676,-33.78215,1008.596
2.546288490,-0.1084674,1.876886,0.8800091,-0.006353566,0.004272988,0.9951547,24.82353,7.627676,-33.78215,1008.596
2.548766136,0.07523298,2.239962,0.8800091,-0.009261128,0.006220818,1.001455,24.82353,7.627676,-33.78215,1008.596
2.551242828,0.3814003,2.4215,0.8188466,-0.007346364,0.009631154,0.9980837,24.82353,7.627676,-33.78215,1008.596
2.553719998,0.6875677,2.4215,0.7576842,-0.006854052,0.007682457,0.996623,24.82353,7.627676,-33.78215,1008.596
2.556196690,0.7488011,2.360987,0.8800091,-0.01267585,0.004240268,0.9951892,24.82353,7.627676,-33.78215,1008.596
2.558673382,0.7488011,2.360987,0.7576842,-0.01217587,0.003274795,0.9975949,24.82353,7.627676,-33.78215,1008.596
2.561150551,0.6263342,2.4215,0.5741968,-0.01509599,0.005702519,1.001002,24.82353,7.627676,-33.78215,1008.599
2.563627243,0.7488011,2.360987,0.3907094,-0.01996204,0.004697642,0.9986102,24.82353,7.627676,-33.78215,1008.599
2.566104412,0.8712681,2.058424,0.4518718,-0.01850356,0.00714919,1.002476,24.82353,7.627676,-33.78215,1008.599
2.568581104,0.7488011,1.816373,0.3907094,-0.02334831,0.004692913,1.003938,24.82353,7.627676,-33.78215,1008.599
2.571058273,0.8100346,1.816373,0.207222,-0.02484826,0.006122701,0.9943002,24.82353,7.627676,-33.78215,1008.599
2.573534966,0.9325016,1.634835,0.08489711,-0.0238478,0.001747757,0.9952375,24.82353,7.627676,-33.78215,1008.599
2.576012612,0.8100346,1.574322,0.08489711,-0.02824324,0.00855611,1.001089,24.82353,7.627676,-33.78215,1008.599
2.578488827,0.7488011,1.453297,-0.2820776,-0.02433785,0.008586791,1.005412,24.82353,7.627676,-33.78215,1008.599
2.580965519,0.5038673,1.332271,-0.5267274,-0.02433674,0.009565327,1.007347,24.453,7.623692,-33.78076,1008.599
2.583443165,0.5651007,1.150733,-0.5878899,-0.02480235,0.00615551,1.007815,24.453,7.623692,-33.78076,1008.599
2.585919857,0.1976999,1.150733,-0.8325397,-0.02773615,0.008084592,1.006393,24.453,7.623692,-33.78076,1008.599
2.588397026,0.07523298,1.211246,-0.7713773,-0.02435196,0.01493204,1.011719,24.453,7.623692,-33.78076,1008.599
2.590873718,0.0139995,0.9691951,-0.9548646,-0.01853674,0.01690291,1.008801,24.453,7.623692,-33.78076,1008.599
2.593350887,0.07523298,0.9086823,-1.138352,-0.02094663,0.01006167,1.003953,24.453,7.623692,-33.78076,1008.599
2.595827580,0.1976999,0.6061188,-1.383002,-0.01948984,0.009578778,1.002494,24.453,7.623692,-33.78076,1008.599
2.598304749,0.3201669,0.5456061,-1.627652,-0.0214559,0.01150938,0.9996186,24.453,7.623692,-33.78076,1008.599
2.600781441,0.4426338,0.364068,-1.627652,-0.01901113,0.01153134,1.003467,24.453,7.623692,-33.78076,1008.602
2.603258610,0.5038673,0.0009917939,-1.383002,-0.01854118,0.01298877,1.001058,24.453,7.623692,-33.78076,1008.602
2.605735302,0.7488011,-0.241059,-1.444164,-0.01465978,0.01642441,1.003951,24.453,7.623692,-33.78076,1008.602
2.608211994,0.6263342,-0.6041352,-1.444164,-0.01513135,0.01643243,1.008298,24.453,7.623692,-33.78076,1008.602
2.610689640,0.4426338,-0.9672114,-1.138352,-0.01708325,0.01495105,1.003956,24.453,7.623692,-33.78076,1008.602
2.613165856,0.5038673,-1.209262,-1.138352,-0.01415923,0.01741483,1.009745,24.453,7.623692,-33.78076,1008.602
2.615643501,0.3814003,-1.572338,-1.016027,-0.01416909,0.01594117,1.004428,24.453,7.623692,-33.78076,1008.602
2.618120194,0.1976999,-1.814389,-0.8325397,-0.01268335,0.01352347,1.008269,24.453,7.623692,-33.78076,1008.602
2.620597363,0.1976999,-1.814389,-0.5878899,-0.007372483,0.01694557,1.002466,24.453,7.623692,-33.78076,1008.602
2.623074055,0.5651007,-2.05644,-0.7102148,-0.007875716,0.01937533,1.001515,24.453,7.623692,-33.78076,1008.602
2.625551224,0.5651007,-2.116953,-0.6490523,-0.006391071,0.01744573,1.005842,24.453,7.623692,-33.78076,1008.602
2.628027916,0.6263342,-1.995928,-0.5267274,-0.007897517,0.02327073,1.001536,24.453,7.623692,-33.78076,1008.602
2.630504608,0.5651007,-1.814389,-0.4044026,-0.01123799,0.01596564,1.008274,24.45803,7.24978,-34.15429,1008.602
2.632981777,0.5038673,-1.753877,-0.3432401,-0.006848997,0.01648577,1.012597,24.45803,7.24978,-34.15429,1008.602
2.635458470,0.3814003,-1.330288,-0.5267274,-0.007842856,0.02379866,1.018432,24.45803,7.24978,-34.15429,1008.602
2.637935639,0.6263342,-0.9066988,-0.5267274,-0.01123467,0.01890125,1.014081,24.45803,7.24978,-34.15429,1008.602
2.640412331,0.6263342,-0.7251607,-0.465565,-0.01270352,0.01742004,1.008772,24.45803,7.24978,-34.15429,1008.602
2.642889977,0.5651007,-0.3015717,-0.465565,-0.01271384,0.02132364,1.012171,24.45803,7.24978,-34.15429,1008.602
2.647843838,0.6263342,-0.241059,-0.6490523,-0.01127727,0.02033742,1.003952,24.45803,7.24978,-34.15429,1008.602
2.650320530,0.6875677,-0.241059,-0.7102148,-0.01518315,0.02421737,1.005924,24.45803,7.24978,-34.15429,1008.602
2.652797222,0.2589334,0.0009917939,-0.7102148,-0.01079637,0.02278042,1.006376,24.45803,7.24978,-34.15429,1008.602
2.655274391,-0.04723396,0.1825299,-0.7102148,-0.01663124,0.02226212,1.005922,24.45803,7.24978,-34.15429,1008.602
2.657751084,-0.04723396,0.2430426,-0.5878899,-0.01566625,0.02128393,1.002051,24.45803,7.24978,-34.15429,1008.602
2.660228253,-0.1697009,0.4850934,-0.6490523,-0.01322915,0.02032267,1.002032,24.45803,7.24978,-34.15429,1008.602
2.662704945,-0.1697009,0.4245807,-0.8325397,-0.01224614,0.01789073,1.001049,24.45803,7.24978,-34.15429,1008.602
2.665182114,-0.1084674,0.3035553,-0.7102148,-0.009849392,0.02325597,0.9996154,24.45803,7.24978,-34.15429,1008.602
2.667658806,-0.1697009,0.4850934,-0.8325397,-0.007375208,0.01743249,1.002468,24.45803,7.24978,-34.15429,1008.602
2.670135975,-0.1084674,0.4850934,-0.7102148,-0.007377956,0.01645278,1.00005,24.45803,7.24978,-34.15429,1008.602
2.672612667,-0.1697009,0.1220172,-0.6490523,-0.01177836,0.02032435,0.999611,24.45803,7.24978,-34.15429,1008.602
2.675090313,-0.04723396,-0.1200336,-0.7102148,-0.008389295,0.02424206,1.001543,24.45803,7.24978,-34.15429,1008.602
2.677567005,-0.1697009,-0.3620844,-0.465565,-0.004953375,0.01890468,1.00198,24.45803,7.24978,-34.15429,1008.602
2.680043221,-0.1697009,-0.6646479,-0.2820776,-0.003529304,0.02279825,0.9981304,24.453,7.623692,-33.78076,1008.602
2.682520867,-0.3534013,-1.209262,-0.2820776,-0.004514503,0.02473974,0.9976632,24.453,7.623692,-33.78076,1008.599
2.684997559,-0.4758682,-1.451313,-0.1597527,-0.0005785816,0.01990352,1.002926,24.453,7.623692,-33.78076,1008.599
2.687474728,-0.5371017,-1.511826,0.1460596,-0.003026624,0.01987922,0.9981127,24.453,7.623692,-33.78076,1008.599
2.689951420,-0.6595686,-1.874902,0.3907094,-0.001564957,0.01646658,0.9932604,24.453,7.623692,-33.78076,1008.599
2.692428589,-0.6595686,-2.177466,0.5130343,0.000849254,0.01988881,0.9937475,24.453,7.623692,-33.78076,1008.599
2.694905281,-0.9045025,-2.419516,0.8188466,0.0008209182,0.02524615,0.9942579,24.453,7.623692,-33.78076,1008.599
2.697382450,-0.965736,-2.480029,0.8188466,-0.001062186,0.01941408,1.002926,24.453,7.623692,-33.78076,1008.599
2.699859142,-0.8432691,-2.601054,0.8800091,0.0008705689,0.01990404,1.000022,24.453,7.623692,-33.78076,1008.599
2.702335835,-0.9045025,-2.480029,1.185821,0.00232898,0.01795569,0.9966255,24.453,7.623692,-33.78076,1008.599
2.704813004,-0.7820356,-2.480029,1.369309,0.002322976,0.01844027,0.9956626,24.453,7.623692,-33.78076,1008.599
2.707289696,-0.7208021,-2.419516,1.308146,0.003288477,0.01501809,0.987917,24.453,7.623692,-33.78076,1008.599
2.709767342,-0.6595686,-2.05644,1.369309,0.002806003,0.01697381,0.9922737,24.453,7.623692,-33.78076,1008.599
2.712243557,-0.5371017,-1.753877,1.552796,0.001362303,0.01599945,0.9951727,24.453,7.623692,-33.78076,1008.599
2.714721203,-0.5371017,-1.511826,1.430471,-0.0005671959,0.0140452,0.9966213,24.453,7.623692,-33.78076,1008.599
2.717197895,-0.5371017,-1.088237,1.552796,0.004277023,0.01747883,0.9966124,24.453,7.623692,-33.78076,1008.599
2.719675064,-0.4146348,-1.027724,1.552796,0.004283512,0.01308363,0.9912803,24.453,7.623692,-33.78076,1008.599
2.722151756,-0.2921678,-0.4831098,1.613959,0.003319629,0.01504035,0.9970878,24.453,7.623692,-33.78076,1008.598
