Time (s),Gyroscope X (deg/s),Gyroscope Y (deg/s),Gyroscope Z (deg/s),Accelerometer X (g),Accelerometer Y (g),Accelerometer Z (g),Magnetometer X (uT),Magnetometer Y (uT),Magnetometer Z (uT),Barometer (hPa)
0.000000000,0.07523298,0.0615045,-0.2820776,-0.002435126,-8.685421E-05,0.9960763,34.72079,4.346297,-22.22801,1005.084
0.002477646,0.0139995,0.3035553,-0.1597527,-0.001936257,-0.002030864,0.9965461,34.72079,4.346297,-22.22801,1005.082
0.004953861,0.07523298,0.4850934,-0.1597527,-0.007784196,0.0003747279,0.9970732,34.72079,4.346297,-22.22801,1005.082
0.007431507,0.1976999,0.1825299,-0.2820776,-0.007750873,-0.0005792007,1.005274,35.46187,4.354263,-22.23079,1005.082
0.009908199,0.1364664,-0.1805463,-0.1597527,-0.003382659,-0.001051676,1.001869,35.46187,4.354263,-22.23079,1005.082
0.012385368,0.2589334,-0.1200336,-0.1597527,-0.001440044,0.000911949,1.004281,35.46187,4.354263,-22.23079,1005.082
0.014862061,0.1364664,0.0615045,-0.09859026,-0.006300104,-0.002044142,1.000431,35.46187,4.354263,-22.23079,1005.082
0.017339230,0.1976999,0.0009917939,-0.1597527,-0.007803294,0.002316567,0.9946699,35.46187,4.354263,-22.23079,1005.082
0.019815922,0.1976999,0.1220172,-0.09859026,-0.003868966,0.0004124399,1.004292,35.46187,4.354263,-22.23079,1005.082
0.022293091,0.07523298,0.2430426,-0.1597527,-0.006827909,0.001834676,0.994662,35.46187,4.354263,-22.23079,1005.082
0.024769783,0.07523298,0.1825299,-0.2209152,-0.003414851,0.002347421,0.9980248,35.46187,4.354263,-22.23079,1005.082
0.027247429,-0.04723396,0.0009917939,-0.1597527,-0.00243568,-0.0005761224,0.9951084,35.46187,4.354263,-22.23079,1005.082
0.029724598,0.1364664,0.1825299,-0.2820776,-0.00240783,-0.002022835,1.000893,35.46187,4.354263,-22.23079,1005.082
0.032201290,0.1364664,0.1825299,-0.1597527,-0.007273341,-0.004005075,0.9970479,35.46187,4.354263,-22.23079,1005.082
0.034678459,0.0139995,0.1220172,-0.03742781,0.002922118,-0.00200921,0.9950717,35.46187,4.354263,-22.23079,1005.082
0.037155151,0.07523298,0.1825299,-0.1597527,-0.003406653,0.00235328,1.000438,35.46187,4.354263,-22.23079,1005.082
0.039632320,0.1364664,0.0615045,-0.09859026,-0.0004657684,-0.000548478,1.002338,35.46187,4.354263,-22.23079,1005.082
0.042109013,0.1364664,0.1220172,-0.3432401,-0.002905082,-0.001544286,0.9984847,35.46187,4.354263,-22.23079,1005.081
0.044586182,0.1364664,0.0615045,-0.3432401,-0.003377186,-0.000558892,1.004285,35.46187,4.354263,-22.23079,1005.081
0.047062874,0.2589334,0.1220172,-0.2209152,-0.001422009,0.0009248385,1.009591,35.46187,4.354263,-22.23079,1005.081
0.049540520,0.1364664,0.0615045,-0.2209152,-0.003357534,-0.002011464,1.007656,35.46187,4.354263,-22.23079,1005.081
0.052016735,0.07523298,0.1825299,-0.1597527,-0.005844859,0.002336009,0.9985208,35.46187,4.354263,-22.23079,1005.081
0.054494381,0.1364664,0.3035553,-0.2209152,-0.003405037,0.0008878198,0.9985,35.46187,4.354263,-22.23079,1005.081
0.056971073,0.1976999,0.1220172,-0.09859026,-0.004378804,-9.575021E-05,0.9965695,35.08559,4.716975,-22.23588,1005.081
0.059448242,0.1976999,0.0615045,-0.2209152,-0.005860724,0.001346927,0.9922409,35.08559,4.716975,-22.23588,1005.081
0.061925411,0.1364664,0.2430426,-0.2820776,-0.002442793,-0.001070078,0.9922098,35.08559,4.716975,-22.23588,1005.081
0.064402103,0.2589334,0.1825299,-0.2209152,-0.002905059,-7.765321E-05,1.000906,35.08559,4.716975,-22.23588,1005.081
0.066879272,0.1364664,-0.05952091,-0.03742781,-0.00340887,0.0003962079,0.9965667,35.08559,4.716975,-22.23588,1005.081
0.069355965,0.1364664,0.1825299,-0.1597527,-0.006794654,-0.003519149,0.9955997,35.08559,4.716975,-22.23588,1005.081
0.071833611,0.1976999,0.1825299,-0.2820776,-0.005831788,-0.0005878815,0.9975403,35.08559,4.716975,-22.23588,1005.081
0.074310303,0.07523298,0.0615045,-0.03742781,-0.002430161,0.002849926,1.002366,35.08559,4.716975,-22.23588,1005.081
0.076787472,0.1364664,0.0615045,-0.2209152,-0.004340562,-0.001046163,1.006218,35.08559,4.716975,-22.23588,1005.081
0.079264164,0.1364664,0.1220172,-0.2209152,-0.004350377,0.0004134383,1.005743,35.08559,4.716975,-22.23588,1005.081
0.081741333,0.0139995,0.2430426,-0.09859026,-0.003382705,-0.003984941,0.9970267,35.08559,4.716975,-22.23588,1005.081
0.084218025,0.1976999,0.1220172,-0.09859026,-0.005339962,0.001374051,1.002375,35.08559,4.716975,-22.23588,1005.08
0.086695194,0.1364664,0.1220172,-0.09859026,-0.004374971,0.0003958615,0.9985027,35.08559,4.716975,-22.23588,1005.08
0.089172840,0.07523298,0.1825299,-0.1597527,-0.001469557,0.0008908566,0.9955932,35.08559,4.716975,-22.23588,1005.08
0.091649056,0.1976999,0.1825299,-0.2209152,-0.004373354,-0.001069599,0.9965644,35.08559,4.716975,-22.23588,1005.08
0.094126701,0.2589334,0.1825299,-0.1597527,-0.006326315,-0.0005962574,0.9951296,35.08559,4.716975,-22.23588,1005.08
0.096603394,0.1364664,-0.05952091,-0.09859026,-0.001445494,0.001885798,1.004286,35.08559,4.716975,-22.23588,1005.08
0.099080563,0.1364664,0.0009917939,-0.2209152,-0.004841625,0.0004074061,1.004297,35.08559,4.716975,-22.23588,1005.08
0.101557255,0.1364664,0.1825299,-0.2820776,-0.008272718,-0.0001182288,0.9956253,35.08559,4.716975,-22.23588,1005.08
0.104034424,0.3201669,0.0009917939,-0.2820776,-0.003872291,-0.002523169,0.998485,35.08559,4.716975,-22.23588,1005.08
0.106511116,0.07523298,0.1825299,-0.09859026,-0.006282668,-0.005453784,0.9999312,35.08559,4.716975,-22.23588,1005.08
0.108988285,0.1364664,0.2430426,-0.09859026,-0.005839986,-0.0005937405,0.9951269,35.0863,4.724192,-21.85587,1005.08
0.111464977,0.3814003,0.2430426,-0.3432401,-0.003385961,-0.002520652,0.9984823,35.0863,4.724192,-21.85587,1005.08
0.113942146,0.07523298,0.1825299,-0.3432401,-0.003884254,0.001379258,1.001401,35.0863,4.724192,-21.85587,1005.08
0.116419792,0.0139995,0.1220172,-0.2209152,-0.006318649,0.0003869655,0.9989959,35.0863,4.724192,-21.85587,1005.08
0.118896484,0.07523298,0.1220172,-0.1597527,-0.005354188,0.0003861403,0.9965773,35.0863,4.724192,-21.85587,1005.08
0.121373653,0.1976999,0.0615045,-0.1597527,-0.00144009,-0.002021316,0.9994396,35.0863,4.724192,-21.85587,1005.08
0.123850346,0.2589334,0.2430426,-0.2820776,-0.002445472,0.002350112,0.9970542,35.0863,4.724192,-21.85587,1005.078
0.126327515,0.07523298,0.0009917939,-0.2209152,-0.0087563,0.0008589623,0.9980464,35.0863,4.724192,-21.85587,1005.078
0.128804207,0.07523298,0.0615045,-0.2209152,-0.008740526,-0.004018485,0.9946425,35.0863,4.724192,-21.85587,1005.078
0.131281376,0.1976999,0.2430426,-0.03742781,-0.003857003,-0.003489987,1.001376,35.0863,4.724192,-21.85587,1005.078
0.133758068,0.1364664,0.1825299,-0.09859026,-0.0009597645,-0.001534218,0.9984742,35.0863,4.724192,-21.85587,1005.078
0.136235714,0.1976999,0.1220172,-0.03742781,0.003399763,0.001898077,0.9989505,35.0863,4.724192,-21.85587,1005.078
0.138711929,0.1976999,0.3035553,-0.2209152,-0.00438474,0.004788728,1.002869,35.0863,4.724192,-21.85587,1005.078
0.141189575,0.2589334,0.2430426,-0.2209152,-0.007297844,0.001843877,0.9994915,35.0863,4.724192,-21.85587,1005.078
0.143666267,0.1976999,0.1825299,-0.1597527,-0.002938914,0.00185364,0.9941583,35.0863,4.724192,-21.85587,1005.078
0.146143436,0.1976999,0.2430426,-0.2209152,-0.005843797,0.00038128,0.9956146,35.0863,4.724192,-21.85587,1005.078
0.148620606,0.0139995,0.1220172,-0.2209152,-0.007759092,-0.002051692,1.000439,35.0863,4.724192,-21.85587,1005.078
0.151097298,0.3201669,-0.05952091,-0.2820776,-0.002909401,0.001874732,1.002846,35.0863,4.724192,-21.85587,1005.078
0.153574467,0.0139995,0.1825299,-0.1597527,-0.001962468,-0.00058298,0.9912443,35.0863,4.724192,-21.85587,1005.078
0.156051159,-0.04723396,0.1825299,-0.1597527,-0.0009636204,-0.003492462,0.9941201,35.0863,4.724192,-21.85587,1005.078
0.158528805,0.1364664,0.0615045,-0.2209152,-0.001949883,0.0004037584,0.9965587,35.08559,4.716975,-22.23588,1005.078
0.161005497,0.07523298,0.1220172,-0.09859026,-0.004842733,-0.0005711298,1.002362,35.08559,4.716975,-22.23588,1005.078
0.163482666,0.1364664,0.3035553,-0.2820776,-0.003387578,-0.001055191,1.00042,35.08559,4.716975,-22.23588,1005.081
0.165959358,0.2589334,0.0615045,-0.1597527,-0.004366819,-0.002531545,0.9960743,35.08559,4.716975,-22.23588,1005.081
0.168436527,-0.04723396,0.1220172,-0.03742781,-0.003863008,-0.003005406,1.000413,35.08559,4.716975,-22.23588,1005.081
0.170913219,0.07523298,0.1220172,-0.1597527,-0.002428014,0.0004071007,0.9989747,35.08559,4.716975,-22.23588,1005.081
0.173390389,0.07523298,-0.1200336,-0.1597527,-0.006344837,0.003301482,0.9961151,35.08559,4.716975,-22.23588,1005.081
0.175867558,0.0139995,0.0615045,-0.2209152,-0.00244658,0.001371576,0.9951184,35.08559,4.716975,-22.23588,1005.081
0.178344250,0.07523298,0.0009917939,-0.03742781,-0.003880997,-8.503045E-05,0.9999456,35.08559,4.716975,-22.23588,1005.081
0.180821896,0.07523298,-0.05952091,-0.1597527,-0.005850864,0.00282059,0.9975579,35.08559,4.716975,-22.23588,1005.081
0.183298588,0.1976999,0.1220172,-0.4044026,-0.003874439,-8.034334E-05,1.001876,35.08559,4.716975,-22.23588,1005.081
0.185775757,0.1364664,0.2430426,-0.2209152,-0.004846035,-0.002040107,0.9989754,35.08559,4.716975,-22.23588,1005.081
0.188252449,0.1976999,0.2430426,-0.2209152,-0.003406676,0.000886648,0.9980173,35.08559,4.716975,-22.23588,1005.081
0.190729618,0.1364664,0.1825299,-0.09859026,-0.005828531,-0.002052171,0.9960847,35.08559,4.716975,-22.23588,1005.081
0.193206310,0.1364664,0.0009917939,-0.1597527,-0.003405037,0.0008878198,0.9985,35.08559,4.716975,-22.23588,1005.081
0.195683479,0.1976999,-0.1200336,-0.1597527,-0.003405059,-0.0005788126,0.996079,35.08559,4.716975,-22.23588,1005.081
0.198160172,0.2589334,0.0009917939,-0.2209152,-0.000953783,-0.003485431,0.997016,35.08559,4.716975,-22.23588,1005.081
0.200637341,0.1976999,0.1825299,-0.2209152,-0.002915451,-0.000573952,0.9970417,35.08559,4.716975,-22.23588,1005.081
0.203114986,0.07523298,0.1220172,-0.1597527,-0.004883146,0.001355476,0.9936836,35.08559,4.716975,-22.23588,1005.077
0.205591679,0.0139995,0.0009917939,-0.2820776,-0.004395155,0.002825797,0.9965846,35.08559,4.716975,-22.23588,1005.077
0.208068848,-0.04723396,0.1825299,-0.2209152,-0.00338707,-0.003499188,0.9965466,35.0863,4.724192,-21.85587,1005.077
0.210545540,0.0139995,0.1220172,-0.09859026,-0.002907207,0.002365172,1.004297,35.0863,4.724192,-21.85587,1005.077
0.213022709,0.0139995,0.2430426,-0.09859026,-0.003397415,-0.001062222,0.9975246,35.0863,4.724192,-21.85587,1005.077
0.215499401,0.0139995,0.1220172,-0.1597527,-0.007749278,-0.003511293,1.000915,35.0863,4.724192,-21.85587,1005.077
0.217976570,0.1976999,0.1220172,-0.03742781,-0.00290723,0.0008985393,1.001876,35.0863,4.724192,-21.85587,1005.077
0.220453262,0.2589334,0.1220172,-0.09859026,3.102003E-06,0.00139705,1.000414,35.0863,4.724192,-21.85587,1005.077
0.222930908,0.07523298,0.1220172,-0.1597527,-0.003427391,0.004293947,0.9975522,35.0863,4.724192,-21.85587,1005.077
0.225407124,0.2589334,0.1220172,-0.2209152,-0.001936788,-0.0010535,0.9979993,35.0863,4.724192,-21.85587,1005.077
0.227884769,0.1976999,0.1825299,-0.1597527,-0.002436234,-0.00106539,0.9941406,35.0863,4.724192,-21.85587,1005.077
0.230361939,0.1364664,0.1825299,-0.03742781,-0.005350885,0.001855117,0.9999636,35.0863,4.724192,-21.85587,1005.077
0.235315800,0.3201669,0.1220172,-0.1597527,-0.0009908709,0.001376783,0.9941452,35.0863,4.724192,-21.85587,1005.077
0.237792492,0.1364664,0.2430426,-0.09859026,-0.005369984,0.003796956,0.9975603,35.0863,4.724192,-21.85587,1005.077
0.240269661,0.1364664,0.3035553,-0.09859026,-0.005325251,-0.001548668,1.001877,35.0863,4.724192,-21.85587,1005.077
0.242746353,0.1364664,0.1220172,-0.1597527,-0.001908339,0.0009223216,1.009593,35.0863,4.724192,-21.85587,1005.076
0.245223999,0.1364664,0.3035553,-0.2209152,-0.001470088,0.001868221,0.9970463,35.0863,4.724192,-21.85587,1005.076
0.247701168,0.1364664,0.1220172,-0.2209152,-0.00389192,0.0003960349,0.9975348,35.0863,4.724192,-21.85587,1005.076
0.250177860,0.1364664,0.0009917939,-0.1597527,-0.004821994,-0.002511798,1.005248,35.0863,4.724192,-21.85587,1005.076
0.252654553,0.1364664,0.0615045,-0.1597527,-0.003404528,-0.001556177,0.9946259,35.0863,4.724192,-21.85587,1005.076
0.255131722,0.07523298,0.0615045,-0.2820776,-0.0005056274,0.001867396,0.9946277,35.0863,4.724192,-21.85587,1005.076
0.257608891,-0.04723396,0.0615045,-0.2209152,0.0004588559,0.003333203,0.9946299,35.0863,4.724192,-21.85587,1005.076
0.260085583,0.0139995,-0.05952091,-0.1597527,-0.004875525,-0.0005945656,0.9927083,35.09134,4.350279,-22.2294,1005.076
0.262562752,0.1976999,0.1825299,-0.2209152,-0.003890281,0.0003972065,0.9980174,35.09134,4.350279,-22.2294,1005.076
0.265039444,0.1364664,0.364068,-0.2209152,-0.0009859523,0.001380298,0.9955931,35.09134,4.350279,-22.2294,1005.076
0.267517090,0.1364664,0.1825299,-0.09859026,-0.004847165,-0.004485275,0.9946188,35.09134,4.350279,-22.2294,1005.076
0.269993782,0.1976999,0.1825299,-0.1597527,-0.006337238,-0.0001151918,0.9927187,35.09134,4.350279,-22.2294,1005.076
0.272470951,0.1976999,0.3035553,-0.3432401,-0.001950437,-8.550938E-05,0.9955909,35.09134,4.350279,-22.2294,1005.076
0.274947643,0.07523298,0.4245807,-0.2820776,-0.005329639,-0.002529548,0.9989755,35.09134,4.350279,-22.2294,1005.076
0.277424812,0.07523298,0.3035553,-0.1597527,-0.00145263,-7.479009E-05,0.9989669,35.09134,4.350279,-22.2294,1005.076
0.279901505,0.1364664,0.3035553,-0.1597527,-0.003909933,0.001849778,0.9946462,35.09134,4.350279,-22.2294,1005.076
0.282378674,-0.04723396,0.4245807,-0.2209152,-0.002925288,-0.0005809825,0.9941458,35.09134,4.350279,-22.2294,1005.073
0.284856319,-0.1697009,0.1220172,-0.03742781,-1.839828E-06,-7.309834E-05,0.9965456,35.09134,4.350279,-22.2294,1005.073
0.287332535,0.0139995,0.1825299,-0.1597527,-0.005337769,0.001864491,1.003825,35.09134,4.350279,-22.2294,1005.073
0.289810181,0.0139995,0.1825299,-0.1597527,-0.003388109,-7.782644E-05,1.001874,35.09134,4.350279,-22.2294,1005.073
0.292286873,0.07523298,0.0615045,-0.1597527,-0.002885407,-0.001530224,1.004277,35.09134,4.350279,-22.2294,1005.073
0.294764042,0.3201669,0.1220172,-0.1597527,-0.006284217,0.0004115733,1.009132,35.09134,4.350279,-22.2294,1005.073
0.297240734,0.3814003,0.1825299,-0.2820776,-0.003867881,-7.565622E-05,1.003807,35.09134,4.350279,-22.2294,1005.073
0.299717903,0.2589334,0.0615045,-0.2209152,0.0005297759,-0.004926937,1.001827,35.09134,4.350279,-22.2294,1005.073
0.302194595,0.1364664,-0.1200336,-0.2820776,-0.002900718,-0.002030039,0.9989648,35.09134,4.350279,-22.2294,1005.073
0.304671764,0.07523298,0.0615045,-0.1597527,-0.001464638,0.0008943721,0.9970413,35.09134,4.350279,-22.2294,1005.073
0.307149410,0.2589334,0.1220172,-0.1597527,-0.006803338,0.0003856206,0.9994813,35.09134,4.350279,-22.2294,1005.073
0.309625626,0.3201669,0.0615045,-0.1597527,-0.004870606,-0.0005910501,0.9941564,35.46187,4.354263,-22.23079,1005.073
0.312103272,0.1364664,0.0615045,-0.09859026,-0.005836198,-0.003035394,0.9922183,35.46187,4.354263,-22.23079,1005.073
0.314579964,0.1364664,0.1825299,-0.09859026,-0.003396838,0.0008936787,1.000913,35.46187,4.354263,-22.23079,1005.073
0.317057133,0.07523298,0.2430426,-0.09859026,-0.003916468,0.003311723,0.9951364,35.46187,4.354263,-22.23079,1005.073
0.319533825,0.1364664,0.1825299,-0.03742781,0.0009735669,0.0009116434,0.9989587,35.46187,4.354263,-22.23079,1005.073
0.322010994,0.1364664,0.1220172,-0.1597527,-0.004380421,0.001369711,0.9985078,35.46187,4.354263,-22.23079,1005.076
0.324487686,-0.04723396,0.1825299,-0.3432401,-0.008724638,-0.00156277,1.003343,35.46187,4.354263,-22.23079,1005.076
0.326964855,0.0139995,0.1825299,-0.1597527,-0.007759625,-0.001074328,1.001892,35.46187,4.354263,-22.23079,1005.076
0.329441547,0.2589334,0.1220172,-0.09859026,-0.006323568,0.0003834504,0.997548,35.46187,4.354263,-22.23079,1005.076
0.331919193,0.1364664,0.2430426,-0.2209152,-0.002919261,0.0004010687,0.9975294,35.46187,4.354263,-22.23079,1005.076
0.334395409,0.1364664,0.0615045,-0.1597527,-0.004376611,0.0003946896,0.99802,35.46187,4.354263,-22.23079,1005.076
0.336873055,0.2589334,-0.1200336,-0.09859026,-0.005320332,-0.001545153,1.003325,35.46187,4.354263,-22.23079,1005.076
0.339350224,0.1976999,0.1220172,-0.1597527,-0.0009919109,0.004798144,0.9994721,35.46187,4.354263,-22.23079,1005.076
0.341826916,0.07523298,0.3035553,-0.2209152,-0.001961314,0.003328821,0.9980219,35.46187,4.354263,-22.23079,1005.076
0.344304085,0.1364664,0.1220172,-0.2209152,-0.005347629,0.0003908277,0.998508,35.46187,4.354263,-22.23079,1005.076
0.346780777,0.0139995,-0.05952091,-0.2820776,-0.005823058,-0.001559387,0.9985006,35.46187,4.354263,-22.23079,1005.076
0.349257946,0.0139995,0.0615045,-0.1597527,-0.004380975,0.0008804427,0.9975399,35.46187,4.354263,-22.23079,1005.076
0.351734638,0.1364664,0.1220172,-0.2209152,-0.008267222,0.001841187,1.000462,35.46187,4.354263,-22.23079,1005.076
0.354212284,0.0139995,0.0009917939,0.02373465,-0.007756899,-0.001561252,1.00189,35.46187,4.354263,-22.23079,1005.076
0.356688976,-0.04723396,0.0615045,-0.2209152,-0.004371691,0.0003982051,0.999468,35.46187,4.354263,-22.23079,1005.076
0.359166145,0.1364664,0.0615045,-0.1597527,-0.003425774,0.002828487,0.9956139,35.46187,4.354263,-22.23079,1005.076
0.361643314,0.1976999,0.0009917939,-0.1597527,-0.004374417,0.0008851298,0.9994706,35.46105,4.345843,-22.67415,1005.076
0.364120007,0.2589334,0.0009917939,-0.03742781,-0.00439079,0.002340044,0.9970647,35.46105,4.345843,-22.67415,1005.073
0.366597176,0.1976999,0.2430426,-0.2209152,-0.002901249,-0.001052674,1.000418,35.46105,4.345843,-22.67415,1005.073
0.369073868,0.07523298,0.1825299,-0.09859026,0.0009686258,-0.0005585041,0.9950898,35.46105,4.345843,-22.67415,1005.073
0.371551037,0.1364664,-0.05952091,-0.09859026,-0.005845968,0.001357473,0.996585,35.46105,4.345843,-22.67415,1005.073
0.374027729,0.2589334,0.0009917939,-0.2820776,-0.007290177,0.002827101,1.003358,35.46105,4.345843,-22.67415,1005.073
0.376505375,0.2589334,0.2430426,-0.1597527,-0.001938382,0.001878594,1.002358,35.46105,4.345843,-22.67415,1005.073
0.378982067,0.07523298,0.0615045,-0.03742781,-0.005360124,0.005270619,1.002877,35.46105,4.345843,-22.67415,1005.073
0.381459236,0.1364664,0.1825299,-0.2209152,-0.003903906,0.002831829,0.9980299,35.46105,4.345843,-22.67415,1005.073
0.383935928,0.1976999,0.0009917939,-0.09859026,-0.005360169,0.002337354,0.9980354,35.46105,4.345843,-22.67415,1005.073
0.386413097,0.07523298,0.1825299,-0.09859026,-0.004384763,0.003322096,1.000448,35.46105,4.345843,-22.67415,1005.073
0.388890267,0.1976999,0.0615045,-0.2820776,-0.006804978,0.0003844486,0.9989986,35.46105,4.345843,-22.67415,1005.073
0.391366959,0.07523298,0.1220172,-0.2209152,-0.008254727,-0.003038604,0.996093,35.46105,4.345843,-22.67415,1005.073
0.393844605,-0.04723396,0.0615045,-0.03742781,-0.006818627,0.001352439,0.9965903,35.46105,4.345843,-22.67415,1005.073
0.396320820,0.1976999,0.1825299,-0.2209152,-0.002932909,0.001369059,0.9951211,35.46105,4.345843,-22.67415,1005.073
0.398798466,0.3201669,0.3035553,-0.09859026,-0.003895177,0.001860323,0.9989902,35.46105,4.345843,-22.67415,1005.073
0.401275158,0.1364664,0.1220172,-0.1597527,-0.007303317,0.001351094,0.9970756,35.46105,4.345843,-22.67415,1005.073
0.403752327,0.0139995,-0.1200336,-0.09859026,-0.007331122,0.005731071,0.9961329,35.46105,4.345843,-22.67415,1005.071
0.406229019,0.0139995,0.0615045,-0.03742781,-0.00928138,0.004250855,0.9922746,35.46105,4.345843,-22.67415,1005.071
0.408706188,0.1364664,0.1825299,-0.2820776,-0.004829152,-0.005939017,0.9975073,35.46105,4.345843,-22.67415,1005.071
0.411182880,0.07523298,0.1220172,-0.09859026,-0.004830769,-0.004473557,0.9994456,35.0863,4.724192,-21.85587,1005.071
0.413660050,0.1976999,-0.05952091,-0.03742781,-0.003885939,-0.001555179,0.9960766,35.0863,4.724192,-21.85587,1005.071
0.416137695,0.1976999,0.0615045,-0.2209152,-0.001950414,0.001381123,0.9980118,35.0863,4.724192,-21.85587,1005.071
0.418614388,0.0139995,0.1220172,-0.1597527,-0.006315946,-0.001566591,0.9965725,35.0863,4.724192,-21.85587,1005.071
0.421091557,-0.1084674,0.2430426,-0.09859026,-0.002916513,0.001380777,0.9999479,35.0863,4.724192,-21.85587,1005.071
0.423568249,0.07523298,0.1825299,-0.1597527,-0.00195531,0.00284424,0.9989846,35.0863,4.724192,-21.85587,1005.071
0.426045418,0.07523298,0.1825299,-0.2209152,-0.007778192,-0.000109853,0.998036,35.0863,4.724192,-21.85587,1005.071
0.428522110,-0.04723396,0.0009917939,-0.2209152,-0.001446671,-0.003492635,0.995088,35.0863,4.724192,-21.85587,1005.071
0.430999279,0.07523298,0.0615045,-0.1597527,-0.004356449,-0.003501878,0.9975173,35.0863,4.724192,-21.85587,1005.071
0.433475971,0.1976999,0.0009917939,-0.2209152,-0.005327445,-0.002039108,1.000426,35.0863,4.724192,-21.85587,1005.071
0.435953140,0.3201669,0.0615045,-0.2820776,-0.002933441,0.002346423,0.9965741,35.0863,4.724192,-21.85587,1005.071
0.438429833,0.07523298,0.1825299,-0.09859026,-0.001947689,0.0008941987,0.9980093,35.0863,4.724192,-21.85587,1005.071
0.440907478,0.07523298,0.1220172,-0.03742781,-0.00437444,-0.0005815027,0.9970496,35.0863,4.724192,-21.85587,1005.071
0.443384647,0.1976999,0.1220172,-0.2209152,-0.002908361,-0.001546629,0.9975194,35.0863,4.724192,-21.85587,1005.066
0.445861340,0.1364664,0.0615045,-0.2820776,-0.002890349,-0.003000372,1.000408,35.0863,4.724192,-21.85587,1005.066
0.448338509,0.1976999,0.1825299,-0.1597527,-0.005844283,0.004291909,1.00191,35.0863,4.724192,-21.85587,1005.066
0.450815201,0.1364664,0.1825299,-0.03742781,-0.004348783,-0.002518655,1.001384,35.0863,4.724192,-21.85587,1005.066
0.453292370,0.1976999,0.1220172,-0.09859026,-0.004855872,-0.002047137,0.9960794,35.0863,4.724192,-21.85587,1005.066
0.455769062,0.0139995,0.0615045,-0.09859026,-0.004331301,-0.002995033,1.005725,35.0863,4.724192,-21.85587,1005.066
0.458246231,0.1976999,0.1825299,-0.2209152,-0.00631537,0.0003893094,0.9999614,35.0863,4.724192,-21.85587,1005.066
0.460722923,0.1364664,0.2430426,-0.1597527,-0.005835644,-0.002546126,0.9931861,35.45612,4.720958,-22.23727,1005.066
0.463200569,0.07523298,0.0009917939,-0.09859026,-0.007301123,0.001841534,0.9985262,35.45612,4.720958,-22.23727,1005.066
0.465677261,-0.04723396,0.1825299,-0.03742781,-0.00680223,0.001364157,1.001417,35.45612,4.720958,-22.23727,1005.066
0.468154430,-0.04723396,0.0615045,-0.1597527,-1.163175E-05,0.002853136,0.9984915,35.45612,4.720958,-22.23727,1005.066
0.470631600,0.1364664,-0.05952091,-0.4044026,-7.082708E-07,0.00237207,1.000902,35.45612,4.720958,-22.23727,1005.066
0.473108292,0.0139995,0.2430426,-0.2209152,-0.006808258,0.0003821051,0.9980333,35.45612,4.720958,-22.23727,1005.066
0.475585461,0.07523298,0.0009917939,-0.09859026,-0.004888042,0.002818593,0.9946565,35.45612,4.720958,-22.23727,1005.066
0.478063107,0.1364664,0.0615045,-0.09859026,-0.007304957,0.001349922,0.9965929,35.45612,4.720958,-22.23727,1005.066
0.480539799,0.1976999,0.1220172,-0.1597527,-0.005348738,-0.0005877085,0.9965723,35.45612,4.720958,-22.23727,1005.066
0.483016014,0.1364664,0.1825299,-0.1597527,-0.00485749,-0.0005816761,0.9980177,35.45612,4.720958,-22.23727,1005.064
0.485493660,0.07523298,0.0615045,-0.03742781,-0.004381507,0.001857807,0.9989929,35.45612,4.720958,-22.23727,1005.064
0.487970352,0.1976999,0.1825299,-0.2209152,-0.00340342,-0.000577641,0.9965616,35.45612,4.720958,-22.23727,1005.064
0.490447521,0.1364664,0.1220172,-0.3432401,-0.003413789,0.0003926929,0.9951187,35.45612,4.720958,-22.23727,1005.064
0.492924690,0.07523298,0.0615045,-0.2820776,-0.005378182,0.003791097,0.9951469,35.45612,4.720958,-22.23727,1005.064
0.495401383,0.0139995,0.1825299,-0.2209152,-0.005813244,-0.003018989,0.9989756,35.45612,4.720958,-22.23727,1005.064
0.497878552,0.07523298,0.1825299,-0.1597527,-0.004854233,-0.002045966,0.9965621,35.45612,4.720958,-22.23727,1005.064
0.502832890,0.1976999,0.0615045,-0.2209152,-0.001953162,0.0004014149,0.9955934,35.45612,4.720958,-22.23727,1005.064
0.505309105,0.1976999,0.1220172,-0.2209152,-0.001446117,-0.003003368,0.9960558,35.45612,4.720958,-22.23727,1005.064
0.507786751,0.1976999,0.1825299,-0.2209152,-0.004364625,-0.002041105,0.9975248,35.45612,4.720958,-22.23727,1005.064
0.510263443,0.1364664,0.0615045,-0.09859026,-0.004365711,-0.001553009,0.99801,35.45612,4.720958,-22.23727,1005.064
0.512740612,0.0139995,0.0615045,-0.1597527,-0.002909978,-8.116849E-05,0.9994576,35.08547,4.715772,-22.29922,1005.064
0.515217304,-0.04723396,0.0615045,-0.09859026,-0.006298997,-0.001065605,1.002367,35.08547,4.715772,-22.29922,1005.064
0.517694473,0.0139995,0.1220172,-0.03742781,-0.006777128,-0.001062263,1.004783,35.08547,4.715772,-22.29922,1005.064
0.520171642,0.1364664,0.1220172,-0.1597527,-0.002435657,0.0008905102,0.9975293,35.08547,4.715772,-22.29922,1005.064
0.522648335,0.07523298,0.0009917939,-0.09859026,-0.001471705,0.003333681,0.9989845,35.08547,4.715772,-22.29922,1005.063
0.525125980,0.07523298,-0.05952091,-0.1597527,-0.005362363,0.001846914,0.9965848,35.08547,4.715772,-22.29922,1005.063
0.527602673,0.1364664,0.1825299,-0.2820776,-0.004367372,-0.003020813,0.9951064,35.08547,4.715772,-22.29922,1005.063
0.530079842,0.1364664,0.2430426,-0.03742781,-0.002436789,-0.001554659,0.9931726,35.08547,4.715772,-22.29922,1005.063
0.532556534,0.1976999,0.0615045,0.08489711,-0.003421941,0.003320099,0.9975472,35.08547,4.715772,-22.29922,1005.063
0.535033703,0.1364664,0.0615045,-0.1597527,-0.001942793,-0.0005689184,0.9970364,35.08547,4.715772,-22.29922,1005.063
0.537510395,0.1976999,0.1825299,-0.09859026,-0.001435217,-0.004951066,0.9960458,35.08547,4.715772,-22.29922,1005.063
0.539987564,0.1976999,0.1220172,-0.1597527,-0.0009515893,-0.002994992,0.9984666,35.08547,4.715772,-22.29922,1005.063
0.542464256,0.1976999,0.1825299,-0.2820776,-0.007313132,0.002810695,0.9966004,35.08547,4.715772,-22.29922,1005.063
0.544941425,0.0139995,0.2430426,-0.1597527,-0.00972621,0.001833636,1.00047,35.08547,4.715772,-22.29922,1005.063
0.547419071,0.0139995,0.2430426,-0.09859026,-0.005797956,-0.003985807,1.001867,35.08547,4.715772,-22.29922,1005.063
0.549895764,0.0139995,0.2430426,-0.2820776,-0.002921964,0.002354626,0.9999529,35.08547,4.715772,-22.29922,1005.063
0.552372933,0.07523298,0.1220172,-0.2209152,-0.0005116316,0.002351977,0.9936649,35.08547,4.715772,-22.29922,1005.063
0.554849625,0.1364664,0.0615045,-0.03742781,-0.00145644,0.0009002311,0.9994547,35.08547,4.715772,-22.29922,1005.063
0.557326794,0.0139995,0.1825299,-0.2209152,-0.003897925,0.0008806156,0.9965718,35.08547,4.715772,-22.29922,1005.063
0.559803486,0.1976999,0.0615045,-0.2209152,-0.005832896,-0.001566418,0.9956045,35.08547,4.715772,-22.29922,1005.063
0.562280655,0.1976999,0.1220172,-0.2209152,-0.004385317,0.002832828,0.9994807,35.83241,4.358245,-22.23218,1005.066
0.564757347,0.1364664,0.1825299,-0.1597527,-0.002414389,-0.002027522,0.9989622,35.83241,4.358245,-22.23218,1005.066
0.567234516,0.1364664,0.0615045,-0.2209152,-0.003402312,0.0004008953,0.9984975,35.83241,4.358245,-22.23218,1005.066
0.569712162,0.1364664,0.1220172,-0.2209152,-0.003399609,-0.001552662,0.996074,35.83241,4.358245,-22.23218,1005.066
0.572188854,0.07523298,0.1220172,-0.03742781,0.0009866611,-0.0005456146,1.000399,35.83241,4.358245,-22.23218,1005.066
0.574666023,0.07523298,0.1220172,-0.2820776,-0.007278746,-9.796163E-05,1.001895,35.83241,4.358245,-22.23218,1005.066
0.577142716,0.2589334,0.0009917939,-0.3432401,-0.002916005,-0.00106322,0.9960739,35.83241,4.358245,-22.23218,1005.066
0.579619885,0.1364664,0.1825299,-0.1597527,-0.000947756,-0.00250338,1.0004,35.83241,4.358245,-22.23218,1005.066
0.582096577,-0.04723396,0.0615045,-0.1597527,-0.004872731,0.003318407,0.9999685,35.83241,4.358245,-22.23218,1005.066
0.584573746,-0.04723396,0.3035553,-0.1597527,-0.002933972,0.003323787,0.9980271,35.83241,4.358245,-22.23218,1005.066
0.587050438,0.1364664,0.1825299,-0.2209152,-0.004886956,0.002330497,0.9941714,35.83241,4.358245,-22.23218,1005.066
0.589528084,0.1976999,0.1825299,-0.09859026,-0.004854719,0.001864664,1.002857,35.83241,4.358245,-22.23218,1005.066
0.592004299,0.1364664,0.1825299,-0.2209152,-0.009226278,-0.002065102,0.9980339,35.83241,4.358245,-22.23218,1005.066
0.594481945,-0.04723396,0.0615045,-0.1597527,-0.006303362,-0.0005798524,1.001887,35.83241,4.358245,-22.23218,1005.066
0.596959114,0.0139995,0.1220172,-0.2209152,-0.001454778,0.002368035,1.002358,35.83241,4.358245,-22.23218,1005.066
0.599435806,0.3201669,0.2430426,-0.2820776,-0.001440644,-0.002510584,0.9984718,35.83241,4.358245,-22.23218,1005.066
0.601912975,0.1976999,0.1825299,-0.2820776,-0.007266228,-0.00351112,0.9999465,35.83241,4.358245,-22.23218,1005.066
0.604389668,0.1364664,0.1825299,-0.1597527,-0.00534435,0.0003931713,0.9994733,35.83241,4.358245,-22.23218,1005.063
0.606866837,0.2589334,0.1825299,-0.2209152,-0.006790798,-0.001560905,0.999954,35.83241,4.358245,-22.23218,1005.063
0.609343529,0.07523298,0.1220172,-0.2820776,-0.001943324,0.0004084457,0.9984895,35.83241,4.358245,-22.23218,1005.063
0.611821175,0.0139995,0.0615045,-0.09859026,-0.0009832045,0.002360006,0.9980115,35.09122,4.349077,-22.29274,1005.063
0.614297390,0.1364664,0.0615045,-0.2209152,-0.004884254,0.0003769398,0.991748,35.09122,4.349077,-22.29274,1005.063
0.616775036,0.07523298,0.1220172,-0.1597527,-0.005327977,-0.001061743,1.001879,35.09122,4.349077,-22.29274,1005.063
0.619252205,0.07523298,0.3035553,-0.2209152,-0.008268354,-0.0006039815,0.9961056,35.09122,4.349077,-22.29274,1005.063
0.621728897,0.1976999,0.1825299,-0.1597527,-0.006318672,-0.001079667,0.9965751,35.09122,4.349077,-22.29274,1005.063
0.624206066,0.1976999,0.0009917939,-0.2209152,-0.001890925,-0.003953954,1.006672,35.09122,4.349077,-22.29274,1005.063
0.626682758,-0.04723396,0.0009917939,-0.09859026,-0.01021309,0.001341852,0.9995049,35.09122,4.349077,-22.29274,1005.063
0.629159928,0.1364664,0.0009917939,-0.2820776,-0.006338301,0.001839537,0.9956248,35.09122,4.349077,-22.29274,1005.063
0.631636620,0.1364664,0.1220172,-0.2209152,0.0009697566,0.001886664,0.9994465,35.09122,4.349077,-22.29274,1005.063
0.634114266,0.1364664,0.0009917939,-0.2209152,-0.001455886,0.001389499,1.000422,35.09122,4.349077,-22.29274,1005.063
0.636590958,0.1976999,0.1825299,-0.1597527,-0.005839409,0.00136216,0.9985157,35.09122,4.349077,-22.29274,1005.063
0.639068127,0.2589334,0.1220172,-0.2820776,2.051517E-05,-0.003479226,0.9974934,35.09122,4.349077,-22.29274,1005.063
0.641544819,0.1976999,0.0615045,-0.4044026,-0.006326824,0.001847739,0.9990035,35.09122,4.349077,-22.29274,1005.063
0.644021988,0.0139995,0.1220172,-0.09859026,-0.00339192,0.0008971943,1.002361,35.09122,4.349077,-22.29274,1005.062
0.646499157,0.0139995,0.1220172,-0.1597527,-0.0009832045,0.002360006,0.9980115,35.09122,4.349077,-22.29274,1005.062
0.648975849,0.0139995,-0.05952091,-0.3432401,-0.006806662,-0.002549988,0.9936741,35.09122,4.349077,-22.29274,1005.062
0.651453495,0.07523298,0.0009917939,-0.4044026,-0.002423672,-0.001545284,0.997034,35.09122,4.349077,-22.29274,1005.062
0.653929711,0.1364664,0.2430426,-0.1597527,-0.005334003,-0.002043795,0.9984955,35.09122,4.349077,-22.29274,1005.062
0.656407356,0.07523298,0.1220172,-0.1597527,-0.003409955,0.0008843045,0.9970519,35.09122,4.349077,-22.29274,1005.062
0.658884049,0.07523298,0.1220172,-0.2820776,-0.001947734,-0.002039067,0.9931674,35.09122,4.349077,-22.29274,1005.062
0.661361218,0.1364664,0.0615045,-0.1597527,-0.003413235,0.0008819608,0.9960866,35.09122,4.349077,-22.29274,1005.062
0.663837910,0.1364664,0.0615045,-0.09859026,-0.006797334,-9.896024E-05,1.000444,35.08547,4.715772,-22.29922,1005.062
0.666315079,0.1364664,0.0009917939,-0.1597527,-0.003384322,-0.00251948,0.9989649,35.08547,4.715772,-22.29922,1005.062
0.668792248,0.1364664,0.1220172,-0.09859026,-0.002939468,0.001364371,0.9931903,35.08547,4.715772,-22.29922,1005.062
0.671268940,0.1976999,0.1825299,-0.1597527,-0.001491911,0.004296985,0.9946455,35.08547,4.715772,-22.29922,1005.062
0.673746586,0.1364664,0.2430426,-0.2820776,-0.002439005,-0.003511731,0.9893012,35.08547,4.715772,-22.29922,1005.062
0.676222801,0.1976999,0.1220172,-0.1597527,-0.007295696,-0.0005989478,0.9961002,35.08547,4.715772,-22.29922,1005.062
0.678700447,0.0139995,0.1220172,-0.2209152,-0.004843819,-8.303369E-05,1.002847,35.08547,4.715772,-22.29922,1005.062
0.681177139,0.0139995,0.0009917939,-0.2820776,-0.0053274,0.0008941573,1.005268,35.08547,4.715772,-22.29922,1005.062
0.683654308,0.1364664,0.0615045,-0.1597527,-0.006829527,0.003300137,0.9966003,35.08547,4.715772,-22.29922,1005.061
0.686131001,0.2589334,0.0615045,-0.03742781,-0.004403307,0.005753203,0.999013,35.08547,4.715772,-22.29922,1005.061
0.688608170,0.1976999,0.1220172,-0.2209152,-0.00633068,-0.0001105047,0.9946494,35.08547,4.715772,-22.29922,1005.061
0.691084862,0.1364664,0.2430426,-0.4044026,-0.006777681,-0.001551531,1.003815,35.08547,4.715772,-22.29922,1005.061
0.693562031,0.07523298,0.1825299,-0.1597527,-0.001454246,0.001390671,1.000905,35.08547,4.715772,-22.29922,1005.061
0.696039677,0.1364664,0.2430426,-0.09859026,-0.003867927,-0.003008922,0.9989651,35.08547,4.715772,-22.29922,1005.061
0.698516369,0.2589334,0.1825299,-0.09859026,-0.006791375,-0.003516806,0.9965651,35.08547,4.715772,-22.29922,1005.061
0.700993538,0.1364664,0.0009917939,-0.03742781,-0.004872223,0.0008744103,0.9960945,35.08547,4.715772,-22.29922,1005.061
0.703470230,0.07523298,0.1220172,-0.09859026,-0.00287834,-0.003969534,1.002334,35.08547,4.715772,-22.29922,1005.061
0.705947399,0.1364664,0.1825299,-0.09859026,-0.001938937,0.001389325,1.00139,35.08547,4.715772,-22.29922,1005.061
0.708424092,0.1364664,0.0615045,-0.03742781,-0.003408824,0.003329473,1.001408,35.08547,4.715772,-22.29922,1005.061
0.710901261,0.3201669,0.1220172,-0.1597527,-0.004840561,-0.001547323,1.001391,35.08547,4.715772,-22.29922,1005.061
0.713377953,0.2589334,0.1825299,-0.03742781,-0.002923072,0.001376089,0.9980171,35.09204,4.357497,-21.84939,1005.061
0.715855122,0.07523298,0.1220172,-0.1597527,-0.001971174,0.001855158,0.9927049,35.09204,4.357497,-21.84939,1005.061
0.718331814,0.1364664,0.1220172,-0.2820776,-0.001479371,0.002350458,0.9951182,35.09204,4.357497,-21.84939,1005.061
0.720809460,0.0139995,0.3035553,-0.2209152,-0.007773804,0.0008710269,1.000937,35.09204,4.357497,-21.84939,1005.061
0.723286629,0.0139995,0.1220172,-0.1597527,-0.006298997,-0.001065605,1.002367,35.09204,4.357497,-21.84939,1005.06
0.725763321,0.0139995,0.0009917939,-0.2209152,-0.005856868,0.00330517,0.996595,35.09204,4.357497,-21.84939,1005.06
0.728240490,0.1364664,0.1825299,-0.09859026,-0.003409955,0.0008843045,0.9970519,35.09204,4.357497,-21.84939,1005.06
0.730717182,0.3201669,0.2430426,-0.2209152,-0.0014548,0.0009014029,0.9999374,35.09204,4.357497,-21.84939,1005.06
0.733194351,0.07523298,0.1825299,-0.2209152,0.001460405,-0.001529836,0.9950821,35.09204,4.357497,-21.84939,1005.06
0.735671044,0.1364664,0.1825299,-0.1597527,-0.002424757,-0.001057188,0.9975193,35.09204,4.357497,-21.84939,1005.06
0.738148213,0.07523298,0.1220172,-0.09859026,-0.005342201,-0.002049654,0.9960821,35.09204,4.357497,-21.84939,1005.06
0.740624905,0.0139995,0.1220172,-0.1597527,-0.003880997,-8.503045E-05,0.9999456,35.09204,4.357497,-21.84939,1005.06
0.743102551,0.1976999,0.3035553,-0.1597527,-0.007788561,0.0008604806,0.9965931,35.09204,4.357497,-21.84939,1005.06
0.745579720,0.0139995,0.0615045,-0.1597527,-0.003895754,-9.557675E-05,0.9956015,35.09204,4.357497,-21.84939,1005.06
0.748056412,-0.1084674,0.0009917939,-0.03742781,0.0004779543,0.001391364,0.9970332,35.09204,4.357497,-21.84939,1005.06
0.750533581,0.0139995,-0.1200336,-0.1597527,0.001476224,-0.003474019,0.99652,35.09204,4.357497,-21.84939,1005.06
0.753010273,0.07523298,0.0009917939,-0.09859026,-0.002420924,-0.0005655764,0.9994524,35.09204,4.357497,-21.84939,1005.06
0.755487442,0.07523298,0.1220172,-0.2209152,-0.003409955,0.0008843045,0.9970519,35.09204,4.357497,-21.84939,1005.06
0.757964134,0.1364664,0.1220172,-0.2209152,-0.004380421,0.001369711,0.9985078,35.09204,4.357497,-21.84939,1005.06
0.760441780,0.0139995,0.0615045,-0.03742781,-0.009741498,0.002800455,0.9975791,35.09204,4.357497,-21.84939,1005.06
0.762917996,0.07523298,0.1220172,-0.2209152,-0.004354233,-0.001544806,1.001389,35.45025,5.086451,-22.30709,1005.055
0.765395642,0.1976999,0.1825299,-0.2209152,-0.0004914252,0.001388674,0.9980038,35.45025,5.086451,-22.30709,1005.055
0.767872334,0.07523298,0.0615045,-0.2820776,-0.007778192,-0.000109853,0.998036,35.45025,5.086451,-22.30709,1005.055
0.772826672,0.07523298,0.1220172,-0.1597527,-0.002423672,-0.001545284,0.997034,35.45025,5.086451,-22.30709,1005.055
0.775303364,0.07523298,0.1220172,-0.3432401,-0.00194822,0.001871563,0.9994624,35.45025,5.086451,-22.30709,1005.055
0.777780533,0.1364664,0.0009917939,-0.2820776,-0.002935081,0.002345251,0.9960915,35.45025,5.086451,-22.30709,1005.055
0.780257225,0.07523298,0.0009917939,-0.2209152,-0.005343287,-0.001561558,0.9965672,35.45025,5.086451,-22.30709,1005.055
0.782734871,0.1364664,0.0615045,-0.2209152,-0.005846499,0.002334837,0.9980381,35.45025,5.086451,-22.30709,1005.055
0.785211563,0.1364664,0.0615045,-0.2209152,-0.001923695,-0.002510758,0.9994397,35.45025,5.086451,-22.30709,1005.055
0.787688732,0.0139995,0.0615045,-0.1597527,-0.003888087,0.0008876466,0.9994679,35.45025,5.086451,-22.30709,1005.055
0.790165425,0.07523298,0.2430426,-0.1597527,-0.00193732,-7.613492E-05,0.9994523,35.45025,5.086451,-22.30709,1005.055
0.792642594,0.1976999,0.0615045,-0.03742781,-0.005835599,0.0003871389,0.998028,35.45025,5.086451,-22.30709,1005.055
0.795119763,0.1364664,0.1825299,-0.09859026,-0.0009559311,-0.001042607,1.000407,35.45025,5.086451,-22.30709,1005.055
0.797596455,0.0139995,0.0615045,-0.2209152,0.001475138,-0.002985923,0.9970053,35.45025,5.086451,-22.30709,1005.055
0.800073624,0.0139995,0.0615045,-0.1597527,-0.003394136,-0.001059878,0.9984899,35.45025,5.086451,-22.30709,1005.055
0.802550316,0.0139995,0.2430426,-0.1597527,-0.006317033,-0.001078495,0.9970577,35.45025,5.086451,-22.30709,1005.051
0.805027962,0.1976999,0.0615045,-0.1597527,-0.009712585,-0.0006009859,1.000457,35.45025,5.086451,-22.30709,1005.051
0.807504654,0.07523298,0.0615045,-0.1597527,-0.003914852,0.001846262,0.9931982,35.45025,5.086451,-22.30709,1005.051
0.809981823,0.07523298,0.1220172,-0.2209152,-0.000996321,0.002350632,0.9941502,35.45025,5.086451,-22.30709,1005.051
0.812458515,0.1364664,0.2430426,-0.2209152,-0.0009641063,0.0004181666,1.000415,35.45025,5.086451,-22.30709,1005.051
0.814935684,0.1364664,0.1220172,-0.1597527,-0.006806572,0.003316542,1.003358,35.82654,4.723738,-22.302,1005.051
0.817412853,0.1976999,0.1825299,-0.1597527,-0.01070868,0.003288205,1,35.82654,4.723738,-22.302,1005.051
0.819889546,0.1364664,0.2430426,-0.1597527,-0.00483017,-0.001051024,1.005255,35.82654,4.723738,-22.302,1005.051
0.822367192,0.07523298,0.1220172,-0.03742781,-0.002402403,-0.004463316,0.998467,35.82654,4.723738,-22.302,1005.051
0.824843407,0.0139995,-0.1805463,-0.2209152,-0.009704963,-0.002551028,0.9994821,35.82654,4.723738,-22.302,1005.051
0.827321053,0.2589334,0.0009917939,-0.2820776,-0.005827955,-9.626988E-05,0.9994735,35.82654,4.723738,-22.302,1005.051
0.829797745,0.2589334,0.3035553,-0.1597527,-0.005333472,-0.003021159,0.9970424,35.82654,4.723738,-22.302,1005.051
0.832274914,0.1364664,0.0615045,0.02373465,-0.002456441,-0.0001020874,0.9898015,35.82654,4.723738,-22.302,1005.051
0.834751606,0.1364664,0.0009917939,-0.1597527,-0.001935726,-0.003008228,0.9950932,35.82654,4.723738,-22.302,1005.051
0.837228775,0.07523298,0.1825299,-0.03742781,-0.00580283,-0.001056058,1.005261,35.82654,4.723738,-22.302,1005.051
0.839705944,0.0139995,0.1220172,-0.1597527,-0.001931847,0.0004166483,1.001868,35.82654,4.723738,-22.302,1005.051
0.842182636,0.2589334,0.0615045,-0.2820776,-0.002903997,-0.002032383,0.9979995,35.82654,4.723738,-22.302,1005.05
0.844660282,0.1976999,0.1825299,-0.1597527,-0.004874948,0.001361335,0.996097,35.82654,4.723738,-22.302,1005.05
0.847136975,0.1364664,0.2430426,-0.2209152,-0.005851418,0.002331322,0.99659,35.82654,4.723738,-22.302,1005.05
0.849614144,0.07523298,0.0009917939,-0.2820776,-0.002915982,0.0004034122,0.9984948,35.82654,4.723738,-22.302,1005.05
0.852090836,0.1364664,0.1220172,-0.2209152,-0.002944918,0.00233822,0.9931954,35.82654,4.723738,-22.302,1005.05
0.854568005,0.1364664,0.2430426,-0.1597527,-0.002927459,0.0003952098,0.9951161,35.82654,4.723738,-22.302,1005.05
0.857044697,-0.1697009,0.364068,-0.09859026,-0.006342089,0.00428119,0.9985335,35.82654,4.723738,-22.302,1005.05
0.859521866,0.07523298,0.3035553,-0.1597527,-0.005337237,0.0008871268,1.002372,35.82654,4.723738,-22.302,1005.05
0.861998558,0.2589334,0.1220172,-0.2209152,-0.004377696,0.0008827861,0.9985053,35.82654,4.723738,-22.302,1005.05
0.864475727,0.1976999,0.0615045,-0.2209152,-0.00439079,0.002340044,0.9970647,35.09601,4.043499,-22.28734,1005.05
0.866953373,-0.04723396,0.0615045,-0.03742781,-0.007288628,-0.003038257,0.994157,35.09601,4.043499,-22.28734,1005.05
0.869430065,0.1364664,-0.1200336,-0.1597527,-0.006817009,-0.0001130216,0.994652,35.09601,4.043499,-22.28734,1005.05
0.871907234,0.1976999,0.0615045,-0.03742781,-0.005336706,-9.023771E-05,1.000919,35.09601,4.043499,-22.28734,1005.05
0.874383927,0.07523298,0.1825299,-0.1597527,-0.00583777,0.001363331,0.9989983,35.09601,4.043499,-22.28734,1005.05
0.876861096,0.07523298,0.0615045,-0.2209152,-0.003858597,-0.0005578937,1.005735,35.09601,4.043499,-22.28734,1005.05
0.879337788,0.1976999,0.1825299,-0.1597527,-0.003861877,-0.0005602373,1.00477,35.09601,4.043499,-22.28734,1005.05
0.881814957,0.1364664,0.0615045,-0.09859026,-0.003850976,-0.002507936,1.00476,35.09601,4.043499,-22.28734,1005.05
0.884291649,0.07523298,0.1220172,-0.1597527,-0.003409424,-9.305985E-05,0.9955988,35.09601,4.043499,-22.28734,1005.049
0.886768818,0.07523298,0.1825299,-0.2209152,-0.003393559,0.0008960224,1.001879,35.09601,4.043499,-22.28734,1005.049
0.889245510,-0.1084674,0.1825299,-0.1597527,-0.0004685391,-0.002994818,0.9974986,35.09601,4.043499,-22.28734,1005.049
0.891723156,0.1364664,0.1220172,0.02373465,-0.003885916,-8.854596E-05,0.9984976,35.09601,4.043499,-22.28734,1005.049
0.894200325,0.1364664,0.0615045,-0.09859026,-0.004379336,0.0008816143,0.9980226,35.09601,4.043499,-22.28734,1005.049
0.896677017,0.1364664,0.1825299,-0.2820776,-0.007284218,-0.0005907451,0.9994789,35.09601,4.043499,-22.28734,1005.049
0.899154186,0.2589334,0.0615045,-0.2820776,-0.00293672,0.002344079,0.9956087,35.09601,4.043499,-22.28734,1005.049
0.901630879,-0.04723396,0.0615045,-0.3432401,-0.0009914024,0.002354147,0.9955981,35.09601,4.043499,-22.28734,1005.049
0.904108048,-0.04723396,0.0615045,-0.3432401,-0.002909424,0.0004080993,1.000425,35.09601,4.043499,-22.28734,1005.049
0.906584740,0.1976999,0.1220172,-0.2209152,-0.004383677,0.002834,0.9999634,35.09601,4.043499,-22.28734,1005.049
0.909062386,0.1976999,0.1220172,-0.2820776,-0.004896217,0.004279366,0.9946641,35.09601,4.043499,-22.28734,1005.049
0.911538601,0.07523298,0.1825299,-0.2209152,-0.002914366,-0.001062049,0.9965565,35.09601,4.043499,-22.28734,1005.049
0.914016247,0.1364664,0.2430426,-0.2209152,-0.006816964,0.002820243,0.9994939,34.72068,4.345094,-22.29135,1005.049
0.916493416,0.2589334,0.1825299,-0.3432401,-0.005849755,0.003799126,0.9994936,34.72068,4.345094,-22.29135,1005.049
0.918970108,0.07523298,0.2430426,-0.2820776,-0.001438473,-0.003486776,0.9975014,34.72068,4.345094,-22.29135,1005.049
0.921447277,0.07523298,0.1220172,-0.1597527,-0.002428037,-0.001059532,0.9965538,34.72068,4.345094,-22.29135,1005.049
0.923923969,0.07523298,-0.05952091,-0.2209152,-0.004872246,-0.0005922222,0.9936736,34.72068,4.345094,-22.29135,1005.048
0.926401139,0.07523298,0.0009917939,-0.1597527,-0.006307748,-0.001560732,0.9989858,34.72068,4.345094,-22.29135,1005.048
0.928877831,0.07523298,0.1220172,-0.1597527,-0.001942793,-0.0005689184,0.9970364,34.72068,4.345094,-22.29135,1005.048
0.931355477,0.0139995,0.1220172,-0.1597527,-0.001004496,0.003811406,0.9941578,34.72068,4.345094,-22.29135,1005.048
0.933831692,0.07523298,0.0009917939,-0.09859026,-0.001926951,-0.001046469,1.000895,34.72068,4.345094,-22.29135,1005.048
0.936309338,0.1364664,0.0615045,-0.09859026,-0.004386379,0.004787557,1.002387,34.72068,4.345094,-22.29135,1005.048
0.938786507,0.0139995,0.1825299,0.02373465,-0.00586121,0.005257556,0.9985359,34.72068,4.345094,-22.29135,1005.048
0.941263199,0.1364664,0.2430426,-0.1597527,-0.0009837814,0.0004041053,0.9946227,34.72068,4.345094,-22.29135,1005.048
0.943740368,0.1364664,0.1220172,-0.2209152,-0.002407321,-0.004466831,0.9970189,34.72068,4.345094,-22.29135,1005.048
0.946217060,0.0139995,0.1220172,-0.2209152,-0.002899055,-0.0005622341,1.001868,34.72068,4.345094,-22.29135,1005.048
0.948694229,0.3201669,0.1825299,-0.09859026,-0.00485749,-0.0005816761,0.9980177,34.72068,4.345094,-22.29135,1005.048
0.951170922,0.07523298,0.0615045,-0.1597527,-0.004876611,-0.0001064695,0.9931934,34.72068,4.345094,-22.29135,1005.048
0.953648567,-0.04723396,-0.05952091,-0.2209152,-0.00342522,0.003317755,0.9965818,34.72068,4.345094,-22.29135,1005.048
0.956125260,0.2589334,0.0009917939,-0.1597527,-0.005851418,0.002331322,0.99659,34.72068,4.345094,-22.29135,1005.048
0.958602429,0.1976999,0.3035553,-0.2209152,-0.002911618,-8.234056E-05,0.9989749,34.72068,4.345094,-22.29135,1005.048
0.961079598,0.1976999,0.1825299,-0.2209152,-0.002426374,0.0004082727,0.9994575,34.72068,4.345094,-22.29135,1005.048
0.963556290,0.07523298,0.0009917939,-0.1597527,-0.005332364,-0.002042624,0.998978,34.72068,4.345094,-22.29135,1005.047
0.966033459,0.07523298,0.0009917939,-0.03742781,-0.003917,0.004289087,0.9965895,35.09601,4.043499,-22.28734,1005.047
0.968510151,0.2589334,0.0615045,-0.1597527,-0.00293612,0.005766612,1.001418,35.09601,4.043499,-22.28734,1005.047
0.970987797,0.1976999,0.0009917939,-0.2209152,-0.004869498,0.0003874856,0.996092,35.09601,4.043499,-22.28734,1005.047
0.973464012,0.07523298,0.1220172,-0.1597527,-0.004898942,0.004766291,0.9946666,35.09601,4.043499,-22.28734,1005.047
0.975941658,0.07523298,0.3035553,-0.1597527,-0.003433418,0.003311896,0.9941685,35.09601,4.043499,-22.28734,1005.047
0.978418350,0.1976999,0.4245807,-0.1597527,-0.004363471,0.001870697,1.004302,35.09601,4.043499,-22.28734,1005.047
0.980895519,0.07523298,0.0615045,-0.1597527,-0.0038843,-0.001554007,0.9965593,35.09601,4.043499,-22.28734,1005.047
0.983372211,0.1364664,0.0009917939,-0.1597527,-0.004877142,0.000870895,0.9946464,35.09601,4.043499,-22.28734,1005.047
0.985849380,0.1364664,-0.05952091,-0.1597527,-0.004837836,-0.002034248,1.001389,35.09601,4.043499,-22.28734,1005.047
0.988326550,0.07523298,0.0009917939,-0.2209152,-0.001934018,0.001392841,1.002838,35.09601,4.043499,-22.28734,1005.047
0.990803242,0.3201669,0.1220172,-0.2209152,-0.005356336,0.002828966,0.9999686,35.09601,4.043499,-22.28734,1005.047
0.993280888,0.1976999,0.3035553,-0.2820776,-0.003387578,-0.001055191,1.00042,35.09601,4.043499,-22.28734,1005.047
0.995757103,0.1364664,0.1220172,-0.1597527,-0.005812135,-0.002040453,1.000911,35.09601,4.043499,-22.28734,1005.047
0.998234749,0.07523298,0.1825299,-0.1597527,-0.007764012,-0.002055208,0.9989913,35.09601,4.043499,-22.28734,1005.047
1.000711441,0.07523298,0.3035553,-0.1597527,-0.008255745,0.00184939,1.003841,35.09601,4.043499,-22.28734,1005.047
1.003188610,-0.04723396,0.1220172,-0.1597527,0.0009457851,0.006758253,1.000437,35.09601,4.043499,-22.28734,1005.046
1.005665302,0.2589334,0.0009917939,-0.3432401,-0.006339941,0.001838365,0.9951422,35.09601,4.043499,-22.28734,1005.046
1.008142471,0.2589334,0.0615045,-0.2209152,-0.007292925,0.001847393,1.00094,35.09601,4.043499,-22.28734,1005.046
1.010619640,0.1364664,0.3035553,-0.2209152,-0.005339408,0.001863319,1.003342,35.09601,4.043499,-22.28734,1005.046
1.013096333,0.1976999,0.1220172,-0.1597527,-0.001447157,0.0004179932,1.001383,35.09601,4.043499,-22.28734,1005.046
1.015573978,0.1976999,0.1825299,-0.2820776,-0.002437828,0.001866702,0.9984997,35.45601,4.719756,-22.30061,1005.046
1.018050671,0.1364664,0.2430426,-0.09859026,-0.004390812,0.0008734119,0.9946438,35.45601,4.719756,-22.30061,1005.046
1.020527840,0.1976999,-0.1200336,-0.1597527,-0.003387578,-0.001055191,1.00042,35.45601,4.719756,-22.30061,1005.046
1.023004532,0.2589334,0.0009917939,-0.1597527,-0.006816433,0.001842879,0.9980408,35.45601,4.719756,-22.30061,1005.046
1.025481701,0.1364664,0.2430426,-0.2820776,-0.006820288,-0.0001153653,0.9936867,35.45601,4.719756,-22.30061,1005.046
1.027958393,0.1364664,0.3035553,-0.1597527,8.852221E-07,-0.0005600229,0.9965431,35.45601,4.719756,-22.30061,1005.046
1.030435562,0.0139995,0.0615045,-0.03742781,-0.0004575709,-0.0005426193,1.004751,35.45601,4.719756,-22.30061,1005.046
1.032913208,0.1364664,0.0615045,-0.09859026,-0.007291263,0.003315197,1.003843,35.45601,4.719756,-22.30061,1005.046
1.035389423,0.2589334,0.1220172,-0.2209152,-0.005845414,0.001846741,0.9975529,35.45601,4.719756,-22.30061,1005.046
1.040343761,0.1364664,0.3035553,-0.2209152,-0.002412749,-0.00202635,0.9994449,35.45601,4.719756,-22.30061,1005.046
1.042820930,0.2589334,0.0009917939,-0.1597527,-0.004878759,0.002336355,0.9965847,35.45601,4.719756,-22.30061,1005.043
1.045297623,0.1364664,0.0615045,-0.1597527,-0.001449905,-0.0005617146,0.9989644,35.45601,4.719756,-22.30061,1005.043
1.047774792,0.1364664,0.1220172,-0.1597527,-0.00341596,0.001368885,0.9960891,35.45601,4.719756,-22.30061,1005.043
1.050251484,0.1364664,0.1220172,-0.1597527,-0.007309829,0.004279672,0.9999868,35.45601,4.719756,-22.30061,1005.043
1.052728653,-0.04723396,0.0009917939,-0.1597527,-0.00388975,-0.0005801579,0.9965643,35.45601,4.719756,-22.30061,1005.043
1.055206299,0.0139995,0.1220172,-0.09859026,-0.003393028,-8.134195E-05,1.000426,35.45601,4.719756,-22.30061,1005.043
1.057682514,0.1976999,0.1825299,-0.09859026,-0.005829018,0.001858459,1.00238,35.45601,4.719756,-22.30061,1005.043
1.060160160,0.1364664,0.1220172,-0.2209152,-0.005330747,-0.003508084,0.9970399,35.45601,4.719756,-22.30061,1005.043
1.062636852,0.1976999,0.1220172,-0.1597527,-0.005344373,-0.001073461,0.9970524,35.45601,4.719756,-22.30061,1005.043
1.065114021,0.1976999,0.0615045,-0.2820776,-0.003895154,0.003326956,1.001411,35.45601,4.719756,-22.30061,1005.043
1.067590714,0.1976999,-0.05952091,-0.03742781,0.000470333,0.003341405,0.9980086,35.09601,4.043499,-22.28734,1005.043
1.070067883,0.07523298,0.0615045,-0.09859026,-0.002440022,0.001376263,0.9970491,35.09601,4.043499,-22.28734,1005.043
1.072544575,0.0139995,0.0009917939,-0.2209152,-0.004847674,-0.002041278,0.9984928,35.09601,4.043499,-22.28734,1005.043
1.075021744,0.1976999,0.0009917939,-0.2209152,-0.003889704,0.002353107,1.001406,35.09601,4.043499,-22.28734,1005.043
1.077499390,0.1364664,0.2430426,-0.03742781,-0.004869452,0.003320751,1.000934,35.09601,4.043499,-22.28734,1005.043
1.079976082,-0.1084674,0.1220172,0.02373465,-0.001936257,-0.002030864,0.9965461,35.09601,4.043499,-22.28734,1005.043
1.082453251,0.1364664,0.0615045,-0.2209152,-0.00340342,-0.000577641,0.9965616,35.09601,4.043499,-22.28734,1005.038
1.084929943,0.1364664,0.1825299,-0.2209152,-0.006822414,0.003794092,0.9994989,35.09601,4.043499,-22.28734,1005.038
1.087407112,0.1364664,0.1220172,-0.2209152,-0.003878827,-0.001061223,0.9989751,35.09601,4.043499,-22.28734,1005.038
1.089883804,0.07523298,0.1825299,-0.2209152,-0.00438698,0.001365023,0.996577,35.09601,4.043499,-22.28734,1005.038
1.092360973,0.07523298,0.0615045,-0.09859026,-0.004890282,-0.0006051119,0.9883641,35.09601,4.043499,-22.28734,1005.038
1.094837666,0.2589334,-0.05952091,-0.03742781,-1.81701E-06,0.001393534,0.9989665,35.09601,4.043499,-22.28734,1005.038
1.097314835,0.1364664,0.0615045,-0.2209152,1.732702E-05,0.00238496,1.006212,35.09601,4.043499,-22.28734,1005.038
1.099791527,0.2589334,0.3035553,-0.2820776,-0.001440113,-0.003487948,0.9970186,35.09601,4.043499,-22.28734,1005.038
1.102269173,0.1364664,0.2430426,-0.4044026,-0.004846566,-0.001062742,1.000428,35.09601,4.043499,-22.28734,1005.038
1.104746342,0.2589334,0.0615045,-0.3432401,-0.004843864,-0.003016299,0.998005,35.09601,4.043499,-22.28734,1005.038
1.107223034,0.1976999,0.1825299,-0.4044026,-0.006290312,-0.004970375,0.9984857,35.09601,4.043499,-22.28734,1005.038
1.109700203,0.1976999,0.0615045,-0.2820776,-0.0077902,0.000859309,0.9961104,35.09601,4.043499,-22.28734,1005.038
1.112176895,0.2589334,0.0615045,-0.2820776,-0.008297797,0.003774824,0.9946801,35.09601,4.043499,-22.28734,1005.038
1.114654064,0.07523298,0.1825299,-0.03742781,-0.004867327,-0.0005887067,0.9951217,35.09601,4.043499,-22.28734,1005.038
1.117130756,0.1364664,0.2430426,-0.2820776,-0.005359638,0.001359989,0.9965823,35.09204,4.357497,-21.84939,1005.038
1.119607925,0.07523298,0.0615045,-0.2209152,-0.0009711958,0.001390844,0.9999373,35.09204,4.357497,-21.84939,1005.038
1.122084618,0.1364664,0.2430426,-0.09859026,-0.002436189,0.001867874,0.9989823,35.09204,4.357497,-21.84939,1005.037
1.124562264,0.07523298,0.3035553,-0.2820776,-0.004373354,-0.001069599,0.9965644,35.09204,4.357497,-21.84939,1005.037
1.127039433,-0.04723396,0.1825299,-0.1597527,-0.0004526975,-0.003472369,1.001357,35.09204,4.357497,-21.84939,1005.037
1.129516125,0.07523298,0.1220172,-0.2209152,-0.002423649,-7.865159E-05,0.999455,35.09204,4.357497,-21.84939,1005.037
1.131993294,0.07523298,-0.05952091,-0.2209152,-0.004368944,0.001377913,1.001886,35.09204,4.357497,-21.84939,1005.037
1.134469986,0.07523298,0.1220172,-0.03742781,-0.00339192,0.0008971943,1.002361,35.09204,4.357497,-21.84939,1005.037
1.136947155,0.1364664,0.1825299,-0.1597527,-0.003385984,-0.003987284,0.9960614,35.09204,4.357497,-21.84939,1005.037
1.139423847,0.1976999,0.1825299,-0.2820776,-0.003399609,-0.001552662,0.996074,35.09204,4.357497,-21.84939,1005.037
1.141901493,0.07523298,0.1220172,-0.2209152,0.0005030567,-0.001035056,1.000399,35.09204,4.357497,-21.84939,1005.037
1.144377708,0.07523298,0.1220172,-0.1597527,-0.00531599,-0.003497538,1.001384,35.09204,4.357497,-21.84939,1005.037
1.146855354,0.1976999,0.0615045,-0.2820776,-0.006282645,-0.003987152,1.002352,35.09204,4.357497,-21.84939,1005.037
1.149332523,0.1976999,0.1825299,-0.1597527,-0.002911041,0.00187356,1.002364,35.09204,4.357497,-21.84939,1005.037
1.151809216,0.07523298,0.1220172,-0.1597527,0.0009637296,0.0009046128,0.9960628,35.09204,4.357497,-21.84939,1005.037
1.154286385,0.3201669,0.0009917939,-0.2209152,-0.003443256,0.003304865,0.9912724,35.09204,4.357497,-21.84939,1005.037
1.156763077,0.1976999,0.1825299,-0.2209152,-0.00778579,0.003306821,1.001432,35.09204,4.357497,-21.84939,1005.037
1.159240246,0.0139995,0.1825299,0.02373465,1.94523E-05,-0.001524498,1.000399,35.09204,4.357497,-21.84939,1005.037
1.161716938,0.1364664,-0.05952091,-0.1597527,-0.007761287,-0.002542132,0.9989887,35.09204,4.357497,-21.84939,1005.037
1.164194584,0.2589334,0.0009917939,-0.2209152,-0.007285304,-0.0001026487,0.9999642,35.09204,4.357497,-21.84939,1005.036
1.166671276,0.07523298,0.0009917939,-0.09859026,-0.0009815649,0.002361178,0.9984943,35.45108,5.094871,-21.86373,1005.036
1.169148445,-0.04723396,0.2430426,-0.09859026,-0.007271678,-0.002537271,0.9999516,35.45108,5.094871,-21.86373,1005.036
1.171625614,0.0139995,0.1825299,-0.3432401,-0.0053613,-0.0001078146,0.9936787,35.45108,5.094871,-21.86373,1005.036
1.174102306,0.1364664,0.1825299,-0.2209152,-0.002910555,-0.00203707,0.9960688,35.45108,5.094871,-21.86373,1005.036
1.176579475,0.0139995,0.2430426,-0.2209152,-0.004372246,-9.106286E-05,0.9985002,35.45108,5.094871,-21.86373,1005.036
1.179056168,0.0139995,0.0009917939,-0.1597527,-0.001930739,0.001395185,1.003804,35.45108,5.094871,-21.86373,1005.036
1.181533337,0.07523298,0.0009917939,-0.2209152,-0.002446003,0.003327476,0.9985073,35.45108,5.094871,-21.86373,1005.036
1.184010029,0.07523298,0.0615045,-0.2209152,-0.001949328,0.0008930271,0.9975266,35.45108,5.094871,-21.86373,1005.036
1.186487675,0.0139995,0.1825299,-0.09859026,-0.0009564853,-0.001531875,0.9994395,35.45108,5.094871,-21.86373,1005.036
1.188964367,0.07523298,0.1220172,-0.2820776,0.0004899856,0.001888834,1.00138,35.45108,5.094871,-21.86373,1005.036
1.191441536,0.1976999,0.0009917939,-0.2820776,-0.004874948,0.001361335,0.996097,35.45108,5.094871,-21.86373,1005.036
1.193918705,0.0139995,0.1825299,-0.2820776,-0.003400717,-0.002531198,0.9941383,35.45108,5.094871,-21.86373,1005.036
1.196395397,0.07523298,0.2430426,-0.2820776,-0.005809433,-0.003994009,0.9984881,35.45108,5.094871,-21.86373,1005.036
1.198872566,0.07523298,0.2430426,-0.4044026,-0.003394113,0.0004067542,1.000911,35.45108,5.094871,-21.86373,1005.036
1.201349258,0.1976999,0.0615045,-0.09859026,-0.005338323,0.001375223,1.002857,35.45108,5.094871,-21.86373,1005.036
1.203826904,0.1976999,0.1220172,-0.03742781,9.637792E-06,-6.489549E-05,0.9999244,35.45108,5.094871,-21.86373,1005.034
1.206303120,0.1364664,0.0615045,-0.2209152,-0.005848716,0.0003777649,0.9941667,35.45108,5.094871,-21.86373,1005.034
1.208780766,0.0139995,0.0615045,-0.3432401,-0.005832297,0.001856115,1.001414,35.45108,5.094871,-21.86373,1005.034
1.211257458,0.07523298,0.0009917939,-0.2820776,-0.004877142,0.000870895,0.9946464,35.45108,5.094871,-21.86373,1005.034
1.213734627,0.1364664,0.3035553,-0.2209152,-0.004855872,-0.002047137,0.9960794,35.45108,5.094871,-21.86373,1005.034
1.216211319,0.0139995,0.1825299,-0.09859026,-0.005334535,-0.00106643,0.9999486,35.45108,5.094871,-21.86373,1005.034
1.218688488,0.2589334,0.1220172,-0.3432401,-0.004877696,0.0003816267,0.9936786,35.46175,4.35306,-22.29413,1005.034
1.221165657,0.2589334,0.0009917939,-0.2209152,-0.003914852,0.001846262,0.9931982,35.46175,4.35306,-22.29413,1005.034
1.223642349,0.07523298,0.0009917939,-0.09859026,-0.004374417,0.0008851298,0.9994706,35.46175,4.35306,-22.29413,1005.034
1.226119995,0.0139995,0.0615045,-0.1597527,-0.004894046,0.003303174,0.9936937,35.46175,4.35306,-22.29413,1005.034
1.228596687,0.1364664,0.0615045,-0.2209152,-0.009706559,0.0003810655,1.003841,35.46175,4.35306,-22.29413,1005.034
1.231073856,0.1364664,0.2430426,-0.1597527,-0.00534054,-0.0005818496,0.9989856,35.46175,4.35306,-22.29413,1005.034
1.233550549,0.1976999,0.2430426,-0.09859026,-0.004847143,-0.003018642,0.9970397,35.46175,4.35306,-22.29413,1005.034
1.236027718,0.1976999,0.1220172,-0.2209152,-0.002428591,-0.0015488,0.995586,35.46175,4.35306,-22.29413,1005.034
1.238504410,0.1976999,0.1220172,-0.1597527,-0.003888133,-0.002045619,0.994626,35.46175,4.35306,-22.29413,1005.034
1.240981579,0.1364664,-0.1200336,-0.1597527,-0.006334491,0.0008645161,0.9951371,35.46175,4.35306,-22.29413,1005.034
1.243458748,0.07523298,0.0615045,-0.2209152,-0.009746417,0.002796939,0.9961311,35.46175,4.35306,-22.29413,1005.033
1.245935440,0.07523298,0.3035553,-0.2209152,-0.004885294,0.003798301,0.9970749,35.46175,4.35306,-22.29413,1005.033
1.248413086,0.07523298,0.0009917939,-0.3432401,-0.004364048,-8.520391E-05,1.000914,35.46175,4.35306,-22.29413,1005.033
1.250889778,0.07523298,0.0009917939,-0.1597527,-0.002936166,0.002833347,0.9965766,35.46175,4.35306,-22.29413,1005.033
1.253366947,0.0139995,0.0009917939,-0.1597527,-0.003896816,0.001859152,0.9985077,35.46175,4.35306,-22.29413,1005.033
1.255843639,0.07523298,0.0615045,-0.03742781,-0.002906676,0.001387807,1.002844,35.46175,4.35306,-22.29413,1005.033
1.258320808,0.0139995,0.1825299,-0.09859026,-0.005336706,-9.023771E-05,1.000919,35.46175,4.35306,-22.29413,1005.033
1.260797978,0.07523298,0.1220172,-0.09859026,-0.008252556,-0.004014797,0.9951226,35.46175,4.35306,-22.29413,1005.033
1.263274670,0.07523298,0.1220172,-0.1597527,-0.008252002,-0.003525528,0.9960904,35.46175,4.35306,-22.29413,1005.033
1.265752316,0.1364664,0.1220172,-0.2209152,-0.004853701,-0.003023329,0.995109,35.46175,4.35306,-22.29413,1005.033
1.268228531,0.1976999,0.1220172,-0.1597527,-0.00094995,-0.00299382,0.9989492,35.0863,4.724192,-21.85587,1005.033
1.270706177,0.1364664,0.1825299,-0.03742781,-0.005364556,0.001356474,0.9951344,35.0863,4.724192,-21.85587,1005.033
1.273182869,0.07523298,0.0009917939,-0.09859026,-0.008282578,-0.001591892,0.9903084,35.0863,4.724192,-21.85587,1005.033
1.275660038,0.1364664,0.0615045,-0.03742781,-0.006797911,-0.002054861,0.9970554,35.0863,4.724192,-21.85587,1005.033
1.278136730,0.3201669,0.364068,-0.2820776,-0.002411109,-0.002025178,0.9999276,35.0863,4.724192,-21.85587,1005.033
1.280613899,0.07523298,0.1220172,-0.1597527,-0.0053389,-0.0005806775,0.9994683,35.0863,4.724192,-21.85587,1005.033
1.283090591,0.0139995,-0.1200336,-0.1597527,-0.006784816,-0.003512118,0.9984959,35.0863,4.724192,-21.85587,1005.032
1.285567761,0.0139995,0.1825299,-0.3432401,-0.00292582,0.0003963814,0.9955987,35.0863,4.724192,-21.85587,1005.032
1.288045406,0.1364664,0.1825299,-0.1597527,-0.004389705,0.001851948,0.9965795,35.0863,4.724192,-21.85587,1005.032
1.290522099,0.07523298,0.1220172,-0.03742781,-0.00291977,0.002845065,1.001403,35.0863,4.724192,-21.85587,1005.032
1.292999268,0.1364664,0.1220172,-0.2820776,-0.005844329,0.001358645,0.9970676,35.0863,4.724192,-21.85587,1005.032
1.295475960,0.07523298,0.1220172,-0.2820776,-0.005350308,0.003811017,1.003352,35.0863,4.724192,-21.85587,1005.032
1.297953129,0.07523298,0.1825299,-0.2209152,-0.003393005,0.00138529,1.002846,35.0863,4.724192,-21.85587,1005.032
1.300429821,0.1364664,0.0009917939,-0.1597527,-0.006807172,-0.0001059908,0.9975482,35.0863,4.724192,-21.85587,1005.032
1.302906990,0.2589334,0.0009917939,-0.2820776,-0.005811073,-0.003995181,0.9980053,35.0863,4.724192,-21.85587,1005.032
1.305383682,0.07523298,0.1825299,-0.1597527,-0.0004995777,0.004316079,1.000432,35.0863,4.724192,-21.85587,1005.032
1.307860851,-0.04723396,0.0615045,-0.09859026,-0.002932909,0.001369059,0.9951211,35.0863,4.724192,-21.85587,1005.032
1.312815189,0.1364664,0.2430426,-0.09859026,-0.006308856,-0.002539268,0.9970502,35.0863,4.724192,-21.85587,1005.032
1.315292358,0.1364664,0.1825299,-0.2820776,-0.004389682,0.00331858,0.9990004,35.0863,4.724192,-21.85587,1005.032
1.317769051,0.0139995,0.0615045,-0.2209152,-0.004870561,0.002342214,0.998998,34.71493,4.71179,-22.29783,1005.032
1.320246220,0.1364664,-0.05952091,-0.09859026,-0.004376611,0.0003946896,0.99802,34.71493,4.71179,-22.29783,1005.032
1.322722912,0.1364664,0.1220172,-0.2209152,-0.004359706,-0.00203759,0.9989727,34.71493,4.71179,-22.29783,1005.032
1.325200081,0.07523298,0.1825299,-0.1597527,-0.00388975,-0.0005801579,0.9965643,34.71493,4.71179,-22.29783,1005.032
1.327677727,0.0139995,0.0009917939,-0.1597527,-0.008275951,0.002812693,0.9995018,34.71493,4.71179,-22.29783,1005.032
1.330153942,0.07523298,0.1220172,-0.2209152,-0.005327423,-0.0005724751,1.002847,34.71493,4.71179,-22.29783,1005.032
1.332631588,-0.04723396,0.1825299,-0.2209152,-0.004362985,-0.002039933,0.9980074,34.71493,4.71179,-22.29783,1005.032
1.335108757,0.1364664,0.2430426,-0.1597527,-0.003890812,0.001374571,0.9994704,34.71493,4.71179,-22.29783,1005.032
1.337585449,0.07523298,0.1825299,-0.3432401,-0.004862386,0.0008814408,0.9989905,34.71493,4.71179,-22.29783,1005.032
1.340062141,0.2589334,0.0615045,-0.03742781,-0.009731153,0.0003634884,0.9966011,34.71493,4.71179,-22.29783,1005.032
1.342539311,0.1976999,0.1825299,-0.09859026,-0.007297313,0.000866513,0.9980384,34.71493,4.71179,-22.29783,1005.032
1.345016003,0.1976999,0.2430426,-0.1597527,-0.003898456,0.00185798,0.9980249,34.71493,4.71179,-22.29783,1005.032
1.347493172,0.2589334,0.1220172,-0.09859026,-0.003876633,-0.0005707834,1.000426,34.71493,4.71179,-22.29783,1005.032
1.349969864,0.2589334,0.1220172,-0.1597527,-0.0062941,-0.002528722,1.001394,34.71493,4.71179,-22.29783,1005.032
1.352447510,0.1364664,0.0615045,-0.09859026,-0.004874948,0.001361335,0.996097,34.71493,4.71179,-22.29783,1005.032
1.354924679,0.0139995,0.1220172,-0.09859026,-0.01025947,0.006686303,0.9947058,34.71493,4.71179,-22.29783,1005.032
1.357401371,0.1364664,0.0009917939,-0.2209152,-0.002426905,0.001385637,1.000911,34.71493,4.71179,-22.29783,1005.032
1.359878540,0.0139995,-0.05952091,-0.09859026,-0.003378895,-0.004959962,0.996539,34.71493,4.71179,-22.29783,1005.032
1.362355232,0.0139995,0.1220172,-0.2209152,-0.0004816561,-0.003004193,0.9936371,34.71493,4.71179,-22.29783,1005.029
1.364832401,0.1364664,-0.05952091,-0.2209152,-0.006320288,0.0003857939,0.9985133,34.71493,4.71179,-22.29783,1005.029
1.367309094,-0.04723396,-0.1805463,-0.1597527,-0.00385698,-0.002023355,1.003797,34.71493,4.71179,-22.29783,1005.029
1.369786263,0.1364664,0.0615045,-0.1597527,-0.002423095,0.0004106162,1.000423,35.09122,4.349077,-22.29274,1005.029
1.372262955,0.1364664,0.2430426,0.02373465,0.00097359,0.002378276,1.00138,35.09122,4.349077,-22.29274,1005.029
1.374740601,0.07523298,0.0615045,-0.1597527,-0.001924249,-0.003000026,0.9984719,35.09122,4.349077,-22.29274,1005.029
1.377217770,0.1364664,-0.05952091,-0.1597527,-0.00874921,-0.0001137147,0.9985241,35.09122,4.349077,-22.29274,1005.029
1.379694462,0.07523298,0.3035553,-0.1597527,-0.004874394,0.001850603,0.9970649,35.09122,4.349077,-22.29274,1005.029
1.382171631,0.0139995,0.1825299,-0.2820776,-0.005343287,-0.001561558,0.9965672,35.09122,4.349077,-22.29274,1005.029
1.384648323,0.07523298,0.1825299,-0.2209152,-0.00290238,-0.003497843,0.9960613,35.09122,4.349077,-22.29274,1005.029
1.387125492,0.0139995,0.0615045,-0.2209152,-0.0009537374,-0.0005521667,1.001858,35.09122,4.349077,-22.29274,1005.029
1.389602184,-0.04723396,0.0615045,-0.2209152,-0.000488169,-7.561524E-05,0.9965483,35.09122,4.349077,-22.29274,1005.029
1.392079353,0.1976999,0.3035553,-0.2209152,0.002918353,0.001899075,1.000401,35.09122,4.349077,-22.29274,1005.029
1.394556999,0.07523298,0.2430426,-0.2820776,-0.00485749,-0.0005816761,0.9980177,35.09122,4.349077,-22.29274,1005.029
1.397033691,0.0139995,0.364068,-0.1597527,-0.005820288,0.0008869533,1.00334,35.09122,4.349077,-22.29274,1005.029
1.399510861,0.07523298,0.1220172,-0.09859026,-0.004374925,0.003329126,1.003345,35.09122,4.349077,-22.29274,1005.029
1.401987553,0.1364664,-0.1200336,-0.09859026,-0.003867372,-0.002519653,0.9999331,35.09122,4.349077,-22.29274,1005.029
1.404464722,0.2589334,0.2430426,-0.2209152,-0.00776512,-0.003033743,0.9970556,35.09122,4.349077,-22.29274,1005.028
1.406941414,0.1976999,0.3035553,-0.1597527,-0.006292991,-0.001550186,1.00333,35.09122,4.349077,-22.29274,1005.028
1.409418583,0.1976999,0.0009917939,-0.1597527,-0.003887579,-0.001556351,0.9955939,35.09122,4.349077,-22.29274,1005.028
1.411895275,0.0139995,0.1220172,-0.1597527,-0.003903906,0.002831829,0.9980299,35.09122,4.349077,-22.29274,1005.028
1.414372921,0.07523298,0.1220172,-0.1597527,-0.002399078,-0.001527708,1.004274,35.09122,4.349077,-22.29274,1005.028
1.416849136,0.1976999,0.0009917939,-0.2820776,-0.001936811,-0.002520132,0.9955783,35.09122,4.349077,-22.29274,1005.028
1.419326782,0.07523298,0.1220172,-0.2209152,-0.006795716,-0.001564421,0.9985059,34.72068,4.345094,-22.29135,1005.028
1.421803951,0.1364664,0.3035553,-0.1597527,-0.005857976,0.002326635,0.9946593,34.72068,4.345094,-22.29135,1005.028
1.424280644,0.07523298,0.2430426,-0.09859026,-0.005845414,0.001846741,0.9975529,34.72068,4.345094,-22.29135,1005.028
1.426757813,0.0139995,0.0615045,-0.2820776,-0.002414366,-0.0005608895,1.001383,34.72068,4.345094,-22.29135,1005.028
1.429234505,0.1364664,0.0615045,-0.09859026,-0.004846544,0.0004038906,1.002849,34.72068,4.345094,-22.29135,1005.028
1.431711674,0.07523298,0.1825299,-0.03742781,-0.003873908,-0.001057708,1.000423,34.72068,4.345094,-22.29135,1005.028
1.434188366,0.2589334,0.1825299,0.08489711,-0.002896353,-0.002515791,0.999445,34.72068,4.345094,-22.29135,1005.028
1.436666012,0.3814003,0.1220172,-0.2209152,-0.002937297,0.000388179,0.99222,34.72068,4.345094,-22.29135,1005.028
1.439143181,0.07523298,0.0009917939,-0.2209152,-0.005352571,-0.00107932,0.994639,34.72068,4.345094,-22.29135,1005.028
1.441619873,0.1364664,0.1220172,0.02373465,-0.0009771546,0.00480869,1.003816,34.72068,4.345094,-22.29135,1005.028
1.444097042,0.3201669,0.1825299,-0.03742781,-0.002917068,0.0008915083,0.9989799,34.72068,4.345094,-22.29135,1005.029
1.446573734,0.1976999,0.1220172,-0.03742781,-0.002909978,-8.116849E-05,0.9994576,34.72068,4.345094,-22.29135,1005.029
1.449050903,0.07523298,0.0615045,-0.09859026,-0.001932401,-7.261964E-05,1.0009,34.72068,4.345094,-22.29135,1005.029
1.451527596,-0.04723396,0.2430426,-0.2209152,-0.006321397,-0.0005927423,0.9965776,34.72068,4.345094,-22.29135,1005.029
1.454004765,0.1364664,0.2430426,-0.2209152,-0.008748656,0.0003755533,0.9994919,34.72068,4.345094,-22.29135,1005.029
1.456481457,0.1364664,0.1220172,-0.2209152,-0.006296293,-0.003019162,0.9999438,34.72068,4.345094,-22.29135,1005.029
1.458959103,0.1976999,0.1825299,-0.09859026,-0.009726234,0.000367004,0.9980491,34.72068,4.345094,-22.29135,1005.029
1.461435795,0.1364664,0.3035553,-0.09859026,-0.00434167,-0.0020247,1.004282,34.72068,4.345094,-22.29135,1005.029
1.463912964,0.2589334,0.1825299,-0.2820776,0.000486729,0.003353123,1.002835,34.72068,4.345094,-22.29135,1005.029
1.466390133,0.2589334,0.1220172,-0.2209152,-0.00634262,0.005258555,0.9999865,34.72068,4.345094,-22.29135,1005.029
1.468866825,0.1364664,0.1825299,-0.1597527,-0.003364669,-0.003972051,1.002336,34.72068,4.345094,-22.29135,1005.029
1.471343994,0.07523298,0.2430426,-0.1597527,-0.002912149,0.0008950238,1.000428,34.72068,4.345094,-22.29135,1005.029
1.473820686,0.2589334,0.0009917939,-0.2820776,-0.003872799,-7.91715E-05,1.002359,34.72068,4.345094,-22.29135,1005.029
1.476298332,0.1364664,0.1220172,-0.2820776,-0.008243759,-0.0005864047,1.003346,34.72068,4.345094,-22.29135,1005.029
1.478774548,0.1364664,0.1825299,-0.1597527,-0.003387092,-0.00496582,0.9941257,34.72068,4.345094,-22.29135,1005.029
1.481252194,0.1976999,0.1220172,-0.03742781,2.330821E-05,0.0004337465,1.004754,34.72068,4.345094,-22.29135,1005.029
1.483728886,0.1976999,0.1825299,0.02373465,-0.006800037,0.001854597,1.002868,34.72068,4.345094,-22.29135,1005.025
1.486206055,0.2589334,0.1220172,-0.09859026,-0.004366241,-0.0005756437,0.999463,34.72068,4.345094,-22.29135,1005.025
1.488683224,0.1976999,0.0615045,-0.1597527,0.001963153,-4.896894E-05,1.002327,34.72068,4.345094,-22.29135,1005.025
1.491159916,0.1364664,0.1825299,-0.2209152,-0.003862408,0.000417127,1.006223,34.72068,4.345094,-22.29135,1005.025
1.493637085,0.1976999,0.1220172,-0.2820776,-0.004355296,0.000409923,1.004295,34.72068,4.345094,-22.29135,1005.025
1.496113777,0.2589334,0.0615045,-0.1597527,-0.006808258,0.0003821051,0.9980333,34.72068,4.345094,-22.29135,1005.025
1.498591423,0.1364664,0.2430426,-0.09859026,-0.002895799,-0.002026524,1.000413,34.72068,4.345094,-22.29135,1005.025
1.501067639,0.1364664,0.0615045,-0.2209152,-0.004836197,-0.002033076,1.001872,34.72068,4.345094,-22.29135,1005.025
1.503545284,0.3814003,-0.1200336,-0.1597527,-0.002908338,-7.999665E-05,0.9999403,34.72068,4.345094,-22.29135,1005.025
1.506022453,0.2589334,-0.05952091,-0.2209152,-0.0004733894,0.001401563,1.003313,34.72068,4.345094,-22.29135,1005.025
1.508499146,0.0139995,0.1220172,-0.2209152,-0.004356381,0.0008980193,1.00478,34.72068,4.345094,-22.29135,1005.025
1.510976315,0.1364664,0.0615045,-0.1597527,-0.002903974,-0.0005657496,1.00042,34.72068,4.345094,-22.29135,1005.025
1.513453007,0.3201669,0.0615045,-0.2820776,-0.003868989,-0.001054192,1.001871,34.72068,4.345094,-22.29135,1005.025
1.515930176,0.2589334,0.1825299,-0.1597527,-0.007793988,0.003300962,0.999019,34.72068,4.345094,-22.29135,1005.025
1.518406868,0.3201669,0.0615045,-0.1597527,-0.007291884,-0.001573968,0.9956124,34.72068,4.345094,-22.29135,1005.025
1.520884514,0.3814003,0.0009917939,-0.1597527,-0.00435749,-8.051679E-05,1.002844,35.08125,5.098104,-21.48233,1005.025
1.523361206,0.2589334,-0.05952091,-0.2209152,-0.004388596,0.002830484,0.9985154,35.08125,5.098104,-21.48233,1005.026
1.525838375,0.2589334,0.1825299,-0.2209152,-0.002428568,-8.21671E-05,0.9980069,35.08125,5.098104,-21.48233,1005.026
1.528315544,0.3201669,0.1220172,-0.1597527,-0.002897438,-0.002027695,0.9999303,35.08125,5.098104,-21.48233,1005.026
1.530792236,0.2589334,0.0009917939,-0.2209152,-0.004365133,0.000402892,1.001399,35.08125,5.098104,-21.48233,1005.026
1.533269405,0.4426338,0.1220172,-0.2209152,-0.004870561,0.002342214,0.998998,35.08125,5.098104,-21.48233,1005.026
1.535746098,0.3814003,0.1220172,-0.2820776,-0.0009635752,-0.0005591977,0.9989617,35.08125,5.098104,-21.48233,1005.026
1.538223744,0.3201669,0.2430426,-0.1597527,0.0004621125,0.001868914,0.9931743,35.08125,5.098104,-21.48233,1005.026
1.540699959,0.3814003,0.2430426,-0.03742781,0.002919393,-0.001522286,0.9950742,35.08125,5.098104,-21.48233,1005.026
1.543177605,0.3201669,0.1825299,-0.1597527,-0.005377096,0.003303,0.9946617,35.08125,5.098104,-21.48233,1005.026
1.545654297,0.1976999,0.0009917939,-0.1597527,-0.005349224,0.003322921,1.002867,35.08125,5.098104,-21.48233,1005.026
1.548131466,0.07523298,0.0009917939,-0.2209152,-0.005352525,0.001853945,0.9994809,35.08125,5.098104,-21.48233,1005.026
1.550608635,0.07523298,0.1220172,-0.09859026,-0.006788095,-0.003514462,0.9975305,35.08125,5.098104,-21.48233,1005.026
1.553085327,0.1364664,0.1220172,-0.09859026,-0.003871737,-0.002033901,0.9994528,35.08125,5.098104,-21.48233,1005.026
1.555562496,0.3201669,0.2430426,-0.03742781,-0.002901226,0.0004139582,1.002839,35.08125,5.098104,-21.48233,1005.026
1.558039189,0.3814003,0.1220172,-0.2820776,-0.007802717,0.004272467,0.9980587,35.08125,5.098104,-21.48233,1005.026
1.560516834,0.4426338,-0.1200336,-0.2209152,-0.006321374,0.0008738901,0.9989984,35.08125,5.098104,-21.48233,1005.026
1.562993050,0.3814003,0.1220172,-0.2209152,-0.002903997,-0.002032383,0.9979995,35.08125,5.098104,-21.48233,1005.027
1.565470696,0.2589334,0.364068,-0.09859026,-0.004347144,-0.002517483,1.001866,35.08125,5.098104,-21.48233,1005.027
1.567947388,0.1976999,0.3035553,-0.1597527,-0.003396861,-0.0005729536,0.9984924,35.08125,5.098104,-21.48233,1005.027
1.570424557,0.3201669,0.0615045,-0.2820776,-0.003885339,0.001867354,1.001886,35.83709,4.051464,-22.29012,1005.027
1.572901726,0.1364664,0.1825299,-0.09859026,-0.01021912,0.0003597999,0.9961212,35.83709,4.051464,-22.29012,1005.027
1.577855587,0.3201669,0.1825299,-0.1597527,-0.006790266,-0.00253827,0.9985009,35.83709,4.051464,-22.29012,1005.027
1.577855587,0.3201669,0.1825299,-0.1597527,-0.006790266,-0.00253827,0.9985009,35.83709,4.051464,-22.29012,1005.027
1.582809925,0.1976999,0.0615045,-0.09859026,-0.004415316,0.006722365,0.9970874,35.83709,4.051464,-22.29012,1005.027
1.585286617,0.1364664,0.1825299,-0.2209152,-0.008272695,0.001348404,0.9980462,35.83709,4.051464,-22.29012,1005.027
1.587763786,0.3201669,0.1825299,-0.1597527,-0.005845922,0.004290737,1.001427,35.83709,4.051464,-22.29012,1005.027
1.590240479,0.3814003,0.2430426,-0.1597527,-0.003907139,0.005762751,1.001907,35.83709,4.051464,-22.29012,1005.027
1.592717648,0.3201669,0.364068,-0.2209152,-0.008748125,-0.0006018111,0.9980388,35.83709,4.051464,-22.29012,1005.027
1.595194817,0.1976999,0.1825299,-0.1597527,-0.007815326,0.001819097,0.9903234,35.83709,4.051464,-22.29012,1005.027
1.597671509,0.1364664,0.1220172,-0.03742781,-0.002934018,0.0003905224,0.9931853,35.83709,4.051464,-22.29012,1005.027
1.600149155,0.3201669,0.3035553,-0.1597527,-0.004399011,0.0008675529,0.9922305,35.83709,4.051464,-22.29012,1005.027
1.602625370,0.2589334,0.2430426,-0.2820776,-0.003431247,0.002335703,0.993198,35.83709,4.051464,-22.29012,1005.027
1.605103016,0.2589334,0.1825299,-0.2209152,-0.008281447,0.0008532768,0.994665,35.83709,4.051464,-22.29012,1005.027
1.607579708,0.1976999,0.2430426,-0.03742781,-0.002455332,0.0008764488,0.9917372,35.83709,4.051464,-22.29012,1005.027
1.610056877,0.2589334,0.1825299,-0.03742781,-0.005847608,0.001356301,0.9961023,35.83709,4.051464,-22.29012,1005.027
1.612533569,0.2589334,0.1825299,-0.09859026,-0.004417,0.003787928,0.9917629,35.83709,4.051464,-22.29012,1005.027
1.615010739,0.07523298,0.2430426,-0.03742781,-0.00294926,0.004290606,0.9951362,35.83709,4.051464,-22.29012,1005.027
1.617487908,0.2589334,0.2430426,-0.2209152,-0.0004985146,0.002361351,0.9975263,35.83709,4.051464,-22.29012,1005.027
1.619964600,0.2589334,0.0009917939,-0.3432401,-0.005848116,0.003800298,0.9999763,35.46258,4.36148,-21.85077,1005.027
1.622442246,0.3201669,0.1220172,-0.1597527,-0.00194986,0.001870391,0.9989796,35.46258,4.36148,-21.85077,1005.027
1.624918461,0.3201669,0.1825299,-0.1597527,-0.003882106,-0.001063567,0.9980098,35.46258,4.36148,-21.85077,1005.027
1.627396107,0.2589334,0.1220172,-0.2209152,-0.001946049,0.0008953705,0.998492,35.46258,4.36148,-21.85077,1005.027
1.629872799,0.1976999,0.1825299,-0.2820776,-0.004878181,0.004292256,0.9999736,35.46258,4.36148,-21.85077,1005.027
1.632349968,0.1976999,0.364068,-0.2820776,-0.006317009,0.0003881375,0.9994786,35.46258,4.36148,-21.85077,1005.027
1.634827137,0.1364664,0.2430426,-0.1597527,-0.002408915,-0.001534739,1.001378,35.46258,4.36148,-21.85077,1005.027
1.637303829,0.3814003,0.0615045,-0.09859026,-0.006316455,0.0008774056,1.000446,35.46258,4.36148,-21.85077,1005.027
1.639780998,0.3814003,0.2430426,-0.1597527,-0.003403951,0.0003997234,0.9980147,35.46258,4.36148,-21.85077,1005.027
1.642257691,0.1976999,0.3035553,-0.2209152,-0.006332275,0.002821588,0.9990085,35.46258,4.36148,-21.85077,1005.024
1.644735336,0.3201669,0.1825299,-0.2209152,-0.005374925,0.002326808,0.9936913,35.46258,4.36148,-21.85077,1005.024
1.647212029,0.3814003,0.0615045,-0.3432401,-0.00340887,0.0003962079,0.9965667,35.46258,4.36148,-21.85077,1005.024
1.649689198,0.07523298,0.1825299,-0.1597527,-0.00779184,0.0008581372,0.9956277,35.46258,4.36148,-21.85077,1005.024
1.652165890,0.0139995,0.1220172,-0.09859026,-0.004363516,-0.001062568,0.9994605,35.46258,4.36148,-21.85077,1005.024
1.654643059,0.2589334,0.1220172,-0.09859026,-0.0004772688,-0.002023314,0.9965382,35.46258,4.36148,-21.85077,1005.024
1.657120228,0.1976999,0.1825299,-0.03742781,-0.003894645,0.0008829595,0.9975373,35.46258,4.36148,-21.85077,1005.024
1.659596920,0.0139995,0.1825299,-0.2820776,-0.006819112,0.005263068,1.002885,35.46258,4.36148,-21.85077,1005.024
1.662074566,0.1364664,0.1220172,-0.09859026,-0.004373308,0.001863666,1.001406,35.46258,4.36148,-21.85077,1005.024
1.664550781,0.3201669,0.1825299,-0.09859026,-0.003884831,-0.0005766423,0.9980124,35.46258,4.36148,-21.85077,1005.024
1.667028427,0.1976999,0.1220172,-0.2209152,-0.005817563,0.0004000287,1.003338,35.46258,4.36148,-21.85077,1005.024
1.669505119,0.1364664,0.0009917939,-0.1597527,-0.005837193,0.003319232,1.002387,35.46258,4.36148,-21.85077,1005.024
1.671982289,0.1364664,0.2430426,-0.2820776,-0.002923072,0.001376089,0.9980171,35.09275,4.364713,-21.46937,1005.024
1.674458981,0.1364664,0.1220172,-0.03742781,-0.007792417,-0.001097763,0.9922389,35.09275,4.364713,-21.46937,1005.024
1.676936150,0.0139995,0.1220172,0.1460596,-0.002462976,0.001359858,0.9902917,35.09275,4.364713,-21.46937,1005.024
1.679413319,-0.04723396,0.1825299,-0.2209152,-0.003867349,-0.001053021,1.002354,35.09275,4.364713,-21.46937,1005.024
1.681890011,0.0139995,0.2430426,-0.1597527,-0.004350445,-0.003986459,0.9984801,35.09275,4.364713,-21.46937,1005.024
1.684367657,0.1364664,0.0009917939,-0.2820776,-0.006810451,-0.0001083347,0.9965827,35.09275,4.364713,-21.46937,1005.026
1.686843872,0.1364664,0.1220172,-0.2820776,-0.00484712,-0.00155201,0.9994606,35.09275,4.364713,-21.46937,1005.026
1.689321518,0.07523298,0.0009917939,-0.09859026,-0.006315901,0.001366674,1.001414,35.09275,4.364713,-21.46937,1005.026
1.691798210,0.2589334,0.1220172,0.02373465,-0.004853656,-9.006425E-05,0.9999509,35.09275,4.364713,-21.46937,1005.026
1.694275379,0.1364664,0.0615045,-0.09859026,-0.01212622,-0.002067314,1.003359,35.09275,4.364713,-21.46937,1005.026
1.696752072,0.2589334,0.0615045,-0.2209152,-1.165434E-05,0.001386503,0.9960706,35.09275,4.364713,-21.46937,1005.026
1.699229241,0.2589334,0.0615045,-0.2820776,-0.001459165,0.001387155,0.9994572,35.09275,4.364713,-21.46937,1005.026
1.701706410,0.1364664,0.2430426,-0.2820776,-0.004372223,0.001375569,1.000921,35.09275,4.364713,-21.46937,1005.026
1.704183102,0.07523298,0.3035553,-0.09859026,-0.001979326,0.004782564,0.9951334,35.09275,4.364713,-21.46937,1005.026
1.706660748,0.1976999,0.0009917939,-0.09859026,-0.00341596,0.001368885,0.9960891,35.09275,4.364713,-21.46937,1005.026
1.709137440,0.07523298,0.1825299,-0.2820776,-0.003890281,0.0003972065,0.9980174,35.09275,4.364713,-21.46937,1005.026
1.711614609,0.0139995,0.0615045,-0.1597527,-0.001923118,-0.0005548571,1.002828,35.09275,4.364713,-21.46937,1005.026
1.714091301,0.1976999,0.0009917939,-0.1597527,-0.001952007,0.004313217,1.002371,35.09275,4.364713,-21.46937,1005.026
1.716568470,0.07523298,0.3035553,-0.2209152,-0.00390446,0.002342561,0.9970621,35.09275,4.364713,-21.46937,1005.026
1.719045162,0.07523298,0.0615045,-0.1597527,-0.006313199,-0.0005868834,0.9989909,35.09275,4.364713,-21.46937,1005.026
1.721522331,0.2589334,-0.05952091,-0.1597527,-0.004382061,0.001368539,0.9980251,35.09601,4.043499,-22.28734,1005.026
1.723999977,0.07523298,0.0009917939,-0.09859026,-0.004872777,0.0003851422,0.9951267,35.09601,4.043499,-22.28734,1005.029
1.726476193,0.0139995,0.0009917939,-0.2209152,-0.005361278,0.001358818,0.9960997,35.09601,4.043499,-22.28734,1005.029
1.728953839,0.1976999,0.0009917939,-0.2820776,-0.004383146,0.001856635,0.9985103,35.09601,4.043499,-22.28734,1005.029
1.731430531,0.07523298,0.1220172,-0.2820776,-0.003890258,0.001863839,1.000438,35.09601,4.043499,-22.28734,1005.029
1.733907700,0.1976999,0.364068,-0.2209152,-0.009745863,0.003286208,0.9970989,35.09601,4.043499,-22.28734,1005.029
1.736384392,0.2589334,0.3035553,-0.09859026,-0.008274889,0.0008579637,0.9965957,35.09601,4.043499,-22.28734,1005.029
1.738861561,-0.04723396,0.1220172,-0.1597527,-0.005353633,0.0008754089,0.9975452,35.09601,4.043499,-22.28734,1005.029
1.741338730,0.07523298,0.1825299,-0.2820776,-0.00341268,0.001371229,0.9970544,35.09601,4.043499,-22.28734,1005.029
1.743815422,0.1976999,0.364068,-0.2820776,-0.008769926,0.003293585,0.998059,35.09601,4.043499,-22.28734,1005.029
1.746293068,0.1364664,0.1220172,-0.1597527,-0.004376033,0.00235059,1.001409,35.09601,4.043499,-22.28734,1005.029
1.748769283,0.1976999,0.1825299,-0.09859026,-0.006801699,0.0003867925,0.9999641,35.09601,4.043499,-22.28734,1005.029
1.751246929,0.1976999,0.1825299,-0.1597527,-0.008267245,0.0003745544,0.9980412,35.09601,4.043499,-22.28734,1005.029
1.753723622,0.07523298,0.1825299,0.08489711,-0.001938937,0.001389325,1.00139,35.09601,4.043499,-22.28734,1005.029
1.756200791,0.07523298,0.0615045,-0.09859026,-0.0072902,0.001360468,1.000937,35.09601,4.043499,-22.28734,1005.029
1.758677483,-0.04723396,0.0615045,-0.2820776,-0.004382061,0.001368539,0.9980251,35.09601,4.043499,-22.28734,1005.029
1.761154652,0.07523298,0.2430426,-0.09859026,-0.007315348,0.0008536235,0.992729,35.09601,4.043499,-22.28734,1005.029
1.763631821,0.07523298,0.1825299,-0.1597527,-0.005369475,0.001352959,0.9936863,35.09601,4.043499,-22.28734,1005.026
1.766108513,0.07523298,0.1825299,-0.09859026,-0.004384832,-0.001077802,0.9931857,35.09601,4.043499,-22.28734,1005.026
1.768586159,0.07523298,0.1825299,-0.1597527,-0.002916005,-0.00106322,0.9960739,35.09601,4.043499,-22.28734,1005.026
1.771062851,0.1364664,0.1220172,-0.09859026,-0.003427946,0.003804679,0.9965843,35.09122,4.349077,-22.29274,1005.026
1.773540020,0.0139995,0.0615045,-0.03742781,-0.004378758,0.002837515,1.001411,35.09122,4.349077,-22.29274,1005.026
1.776016712,0.1364664,0.1825299,-0.1597527,-0.00144009,-0.002021316,0.9994396,35.09122,4.349077,-22.29274,1005.026
1.778493881,0.1364664,0.364068,-0.1597527,-0.008254704,-0.001571971,0.9985139,35.09122,4.349077,-22.29274,1005.026
1.780970574,0.0139995,0.0615045,-0.09859026,-0.005327423,-0.0005724751,1.002847,35.09122,4.349077,-22.29274,1005.026
1.783447743,0.07523298,0.0615045,-0.09859026,-0.004860236,-0.001561384,0.9955992,35.09122,4.349077,-22.29274,1005.026
1.785925389,0.1976999,0.3035553,-0.1597527,-0.0111885,0.0003571098,0.9970918,35.09122,4.349077,-22.29274,1005.026
1.788401604,0.07523298,0.1825299,-0.1597527,-0.007282002,0.001366327,1.00335,35.09122,4.349077,-22.29274,1005.026
1.790879250,0.1364664,0.1220172,-0.09859026,-0.001448796,0.0004168216,1.0009,35.09122,4.349077,-22.29274,1005.026
1.793355942,0.2589334,0.0009917939,-0.2209152,-0.001448796,0.0004168216,1.0009,35.09122,4.349077,-22.29274,1005.026
1.795833111,0.1976999,0.1220172,-0.2209152,-0.004841139,-0.003503223,0.9980025,35.09122,4.349077,-22.29274,1005.026
1.798309803,0.0139995,0.3035553,-0.1597527,-0.007765629,-0.0005897467,1.00093,35.09122,4.349077,-22.29274,1005.026
1.800786972,-0.04723396,0.0009917939,-0.09859026,-0.01117541,-0.001100148,0.9985323,35.09122,4.349077,-22.29274,1005.026
1.803263664,0.07523298,0.1220172,-0.1597527,-0.003373953,-0.003489814,1.000408,35.09122,4.349077,-22.29274,1005.028
1.805740833,-0.04723396,0.0009917939,-0.1597527,-0.003387601,-0.002521824,0.9979996,35.09122,4.349077,-22.29274,1005.028
1.808218479,0.07523298,-0.05952091,-0.09859026,-0.005841072,-0.0001056443,0.9956121,35.09122,4.349077,-22.29274,1005.028
1.810694695,0.1364664,0.1220172,-0.2209152,-0.006307748,-0.001560732,0.9989858,35.09122,4.349077,-22.29274,1005.028
1.813172341,0.07523298,0.0009917939,-0.2820776,-0.0004576161,-0.003475884,0.9999095,35.09122,4.349077,-22.29274,1005.028
1.815649033,0.1364664,0.1220172,-0.1597527,-0.003426329,0.002339219,0.994646,35.09122,4.349077,-22.29274,1005.028
1.818126202,0.2589334,0.2430426,-0.1597527,-1.262408E-06,0.001882802,0.9999345,35.09122,4.349077,-22.29274,1005.028
1.820602894,0.1364664,0.1825299,-0.1597527,0.0005140025,-4.948908E-05,1.005231,35.09122,4.349077,-22.29274,1005.028
1.823080063,0.0139995,0.0615045,-0.09859026,-0.005327423,-0.0005724751,1.002847,35.09684,4.051919,-21.84399,1005.028
1.825557232,0.1364664,0.0009917939,-0.2209152,-0.004843287,-0.001060398,1.001394,35.09684,4.051919,-21.84399,1005.028
1.828033924,0.07523298,0.0615045,-0.2209152,-0.006302829,-0.001557217,1.000434,35.09684,4.051919,-21.84399,1005.028
1.830511570,0.1976999,0.4850934,-0.2209152,-0.00582687,-0.0005843665,0.9989882,35.09684,4.051919,-21.84399,1005.028
1.832988262,0.1976999,0.2430426,-0.2820776,-0.004866219,0.0003898293,0.9970573,35.09684,4.051919,-21.84399,1005.028
1.835465431,0.1976999,0.2430426,-0.09859026,-0.002903466,-0.003009747,0.9965464,35.09684,4.051919,-21.84399,1005.028
1.837942124,0.1364664,0.4245807,-0.09859026,-0.001491866,0.007230249,0.9994874,35.09684,4.051919,-21.84399,1005.028
1.840419293,0.1364664,0.2430426,-0.1597527,-0.00778034,0.002332972,1.001427,35.09684,4.051919,-21.84399,1005.028
1.842895985,0.1976999,0.1220172,-0.2209152,-0.003903929,0.001365197,0.995609,35.09684,4.051919,-21.84399,1005.029
1.845373154,0.2589334,0.0009917939,-0.09859026,-0.004412059,0.005258076,0.9956318,35.09684,4.051919,-21.84399,1005.029
1.847850800,0.2589334,0.1220172,-0.1597527,-0.007301146,0.0003749011,0.9961053,35.09684,4.051919,-21.84399,1005.029
1.852804661,0.0139995,0.1825299,-0.03742781,-0.0009744982,-7.813214E-05,0.9965509,35.09684,4.051919,-21.84399,1005.029
1.855281353,0.1364664,0.0615045,-0.09859026,-0.004846544,0.0004038906,1.002849,35.09684,4.051919,-21.84399,1005.029
1.857758522,0.07523298,0.0615045,-0.1597527,-0.003911041,0.0008712416,0.9927105,35.09684,4.051919,-21.84399,1005.029
1.860235214,-0.04723396,0.1220172,-0.09859026,-0.0029624,0.002814599,0.9888538,35.09684,4.051919,-21.84399,1005.029
1.862712383,0.0139995,0.1825299,-0.2209152,5.804235E-06,-0.0005565074,0.9979911,35.09684,4.051919,-21.84399,1005.029
1.865189076,0.1364664,0.1220172,-0.2209152,-0.00239797,-0.0005491714,1.00621,35.09684,4.051919,-21.84399,1005.029
1.867666245,0.07523298,0.2430426,-0.2820776,-0.004867836,0.00185529,0.9989955,35.09684,4.051919,-21.84399,1005.029
1.870143891,-0.04723396,0.1825299,-0.2209152,-0.003890304,-0.001069426,0.9955964,35.09684,4.051919,-21.84399,1005.029
1.872621060,0.07523298,0.1825299,-0.2820776,-0.00194986,0.001870391,0.9989796,35.45025,5.086451,-22.30709,1005.029
1.875097752,0.1364664,0.3035553,-0.2209152,-0.004838414,-0.003990148,0.998,35.45025,5.086451,-22.30709,1005.029
1.877574444,0.07523298,0.0615045,-0.09859026,-0.004837282,-0.001544979,1.002357,35.45025,5.086451,-22.30709,1005.029
1.880051613,0.07523298,0.1220172,-0.2209152,-0.00534816,0.001368192,0.9999611,35.45025,5.086451,-22.30709,1005.029
1.882528305,0.1364664,0.2430426,-0.1597527,-0.003883168,0.0008911618,1.000916,35.45025,5.086451,-22.30709,1005.024
1.885005474,0.3201669,0.0615045,-0.09859026,-0.003897879,0.00381388,1.001414,35.45025,5.086451,-22.30709,1005.024
1.887482166,0.1364664,0.1220172,-0.09859026,-0.007302785,0.0003737293,0.9956225,35.45025,5.086451,-22.30709,1005.024
1.889959336,0.07523298,0.1825299,-0.03742781,-0.002929099,0.0003940379,0.9946333,35.45025,5.086451,-22.30709,1005.024
1.892436981,0.2589334,0.1825299,-0.2209152,-0.003434549,0.0008667277,0.9898118,35.45025,5.086451,-22.30709,1005.024
1.894913674,0.1364664,0.2430426,-0.2820776,-0.002925288,-0.0005809825,0.9941458,35.45025,5.086451,-22.30709,1005.024
1.897390843,0.1976999,0.1220172,-0.09859026,-0.002914897,-8.4684E-05,0.9980096,35.45025,5.086451,-22.30709,1005.024
1.899867535,0.1976999,0.1825299,-0.1597527,-0.00632627,0.002337008,0.9999714,35.45025,5.086451,-22.30709,1005.024
1.902344704,0.0139995,0.1220172,-0.2209152,-0.005827401,0.0003929979,1.000441,35.45025,5.086451,-22.30709,1005.024
1.904821396,0.2589334,0.0009917939,-0.1597527,-0.004849823,0.0004015472,1.001884,35.45025,5.086451,-22.30709,1005.024
1.907298565,0.1976999,0.1825299,-0.1597527,-0.003405014,0.002354452,1.000921,35.45025,5.086451,-22.30709,1005.024
1.909776211,0.1976999,0.1825299,-0.2209152,0.002885053,0.004319636,0.9946216,35.45025,5.086451,-22.30709,1005.024
1.912252426,0.1976999,0.1220172,-0.3432401,-0.001957526,0.0008871681,0.9951133,35.45025,5.086451,-22.30709,1005.024
1.914730072,0.07523298,0.1825299,-0.2820776,-0.003897902,0.002347248,0.9989927,35.45025,5.086451,-22.30709,1005.024
1.917206764,0.1364664,0.0615045,-0.1597527,-0.004390258,0.00136268,0.9956117,35.45025,5.086451,-22.30709,1005.024
1.919683933,0.1364664,0.0009917939,-0.2209152,-0.0004919793,0.0008994058,0.997036,35.45025,5.086451,-22.30709,1005.024
1.922160626,0.1364664,0.0615045,-0.2209152,-0.002420347,0.001390324,1.002841,35.45025,5.086451,-22.30709,1005.024
1.924637795,0.1364664,0.1825299,-0.09859026,-0.005341625,-9.375298E-05,0.9994708,35.45459,4.705322,-23.06064,1005.024
1.927114487,0.1364664,0.2430426,-0.1597527,-0.007294588,0.0003795882,0.9980359,35.45459,4.705322,-23.06064,1005.024
1.929591656,0.1976999,0.1220172,-0.1597527,-0.004855296,-9.123608E-05,0.9994682,35.45459,4.705322,-23.06064,1005.024
1.932069302,0.1976999,0.2430426,-0.2209152,-0.003878272,-0.000571955,0.9999431,35.45459,4.705322,-23.06064,1005.024
1.934545517,0.1364664,0.2430426,-0.3432401,-0.006319203,-0.0001023023,0.9980281,35.45459,4.705322,-23.06064,1005.024
1.937023163,0.07523298,0.0009917939,-0.1597527,-0.003371205,-0.002510106,1.002826,35.45459,4.705322,-23.06064,1005.024
1.939499855,0.1364664,-0.05952091,-0.09859026,-0.00388811,-0.0005789858,0.997047,35.45459,4.705322,-23.06064,1005.024
1.941977024,0.1976999,0.1220172,-0.09859026,-0.007321329,0.002804837,0.9941872,35.45459,4.705322,-23.06064,1005.024
1.944454193,0.1364664,0.1825299,-0.2820776,-0.0009804794,0.001873081,0.998009,35.45459,4.705322,-23.06064,1005.024
1.946930886,0.07523298,0.1220172,-0.3432401,-0.003893006,0.0008841311,0.9980199,35.45459,4.705322,-23.06064,1005.024
1.949408055,0.07523298,0.1220172,-0.2820776,-0.007779808,0.001355608,0.9999744,35.45459,4.705322,-23.06064,1005.024
1.951884747,0.1976999,0.2430426,-0.1597527,-0.004394092,0.0008710682,0.9936785,35.45459,4.705322,-23.06064,1005.024
1.954362393,0.07523298,0.0615045,-0.2209152,-0.001950437,-8.550938E-05,0.9955909,35.45459,4.705322,-23.06064,1005.024
1.956839085,0.07523298,-0.05952091,-0.2820776,-0.002431293,0.0004047572,0.9980094,35.45459,4.705322,-23.06064,1005.024
1.959316254,0.07523298,0.1220172,-0.09859026,-0.004367881,-0.0005768158,0.9989803,35.45459,4.705322,-23.06064,1005.024
1.961792946,0.1364664,0.0615045,-0.03742781,-0.002427991,0.001873733,1.001396,35.45459,4.705322,-23.06064,1005.024
1.964270115,0.2589334,0.3035553,-0.2209152,-0.001931293,0.0009059166,1.002836,35.45459,4.705322,-23.06064,1005.025
1.966746807,0.2589334,0.1825299,-0.1597527,-0.002937783,0.004298808,0.998515,35.45459,4.705322,-23.06064,1005.025
1.969223976,0.1976999,0.0615045,-0.1597527,-0.003380511,-0.003494501,0.9984773,35.45459,4.705322,-23.06064,1005.025
1.971701622,0.2589334,0.0009917939,-0.2820776,-0.001964616,0.001859845,0.9946356,35.45459,4.705322,-23.06064,1005.025
1.974177838,0.1364664,0.1825299,-0.4044026,-0.003893537,0.001861496,0.999473,35.09051,4.341859,-22.67276,1005.025
1.976655483,0.0139995,0.0009917939,-0.2820776,-0.002919793,0.001378433,0.9989824,35.09051,4.341859,-22.67276,1005.025
1.979132175,0.1364664,0.0009917939,-0.2820776,-0.002915405,0.002359313,1.001884,35.09051,4.341859,-22.67276,1005.025
1.981609344,0.1364664,0.1825299,-0.2209152,-0.00243023,-0.001549972,0.9951034,35.09051,4.341859,-22.67276,1005.025
1.984086037,0.1976999,0.1825299,-0.1597527,-0.004852016,-8.889264E-05,1.000433,35.09051,4.341859,-22.67276,1005.025
1.986563206,0.07523298,0.0615045,-0.09859026,-0.002916536,-8.58556E-05,0.9975269,35.09051,4.341859,-22.67276,1005.025
1.989039898,0.1364664,0.2430426,-0.09859026,-0.005822483,0.0003965134,1.001889,35.09051,4.341859,-22.67276,1005.025
1.991517067,0.07523298,0.1220172,-0.09859026,-0.003875016,-0.002036245,0.9984875,35.09051,4.341859,-22.67276,1005.025
1.993994713,0.07523298,0.0009917939,-0.2820776,-0.0009913796,0.00382078,0.9980191,35.09051,4.341859,-22.67276,1005.025
1.996470928,0.1976999,0.0615045,-0.2820776,-0.0009744754,0.0013885,0.9989718,35.09051,4.341859,-22.67276,1005.025
1.998948574,0.1364664,0.0615045,-0.1597527,-0.002417645,-0.0005632329,1.000418,35.09051,4.341859,-22.67276,1005.025
2.001425266,-0.04723396,0.1220172,-0.2209152,-0.008754684,-0.0006064982,0.9961082,35.09051,4.341859,-22.67276,1005.025
2.003902435,0.0139995,0.1825299,-0.3432401,-0.004359107,0.001384944,1.004782,35.09051,4.341859,-22.67276,1005.021
2.006379128,0.1364664,0.1825299,-0.1597527,-0.003384322,-0.00251948,0.9989649,35.09051,4.341859,-22.67276,1005.021
2.008856297,0.1364664,0.2430426,-0.09859026,-0.001922632,-0.004465486,0.9965336,35.09051,4.341859,-22.67276,1005.021
2.011333466,0.1364664,0.0615045,-0.2209152,-0.002902911,-0.002520479,0.9975144,35.09051,4.341859,-22.67276,1005.021
2.013810158,0.07523298,0.2430426,-0.1597527,-0.005832874,-9.978539E-05,0.9980255,35.09051,4.341859,-22.67276,1005.021
2.016287804,0.07523298,0.0615045,-0.03742781,0.0004839585,0.000906783,0.997996,35.09051,4.341859,-22.67276,1005.021
2.018764496,0.07523298,-0.1200336,-0.2209152,-0.003405591,0.0003985518,0.9975321,35.09051,4.341859,-22.67276,1005.021
2.021241665,0.2589334,0.1825299,-0.2820776,-0.005814352,-0.003997525,0.99704,35.09051,4.341859,-22.67276,1005.021
2.023718357,0.2589334,0.3035553,-0.3432401,-0.00291432,0.001871216,1.001398,35.45601,4.719756,-22.30061,1005.021
2.026195526,0.07523298,0.3035553,-0.2820776,-0.003902289,0.001366368,0.9960917,35.45601,4.719756,-22.30061,1005.021
2.028672218,0.0139995,0.1825299,-0.03742781,-0.003396884,-0.002039587,0.9960715,35.45601,4.719756,-22.30061,1005.021
2.031149387,0.07523298,0.1220172,-0.03742781,6.867107E-06,-0.002511236,0.9950851,35.45601,4.719756,-22.30061,1005.021
2.033627033,0.07523298,0.1825299,-0.1597527,-0.001946626,-0.00106053,0.9951032,35.45601,4.719756,-22.30061,1005.021
2.036103249,0.1364664,0.1220172,-0.09859026,-0.003385938,-0.001054019,1.000903,35.45601,4.719756,-22.30061,1005.021
2.038580894,0.2589334,0.3035553,-0.03742781,-0.005375411,0.006237437,0.9999863,35.45601,4.719756,-22.30061,1005.021
2.041057587,-0.04723396,0.1220172,-0.1597527,-0.00536779,0.004287395,0.9990107,35.45601,4.719756,-22.30061,1005.021
2.043534756,0.07523298,0.0009917939,-0.03742781,-0.005348138,0.002834825,1.002382,35.45601,4.719756,-22.30061,1005.024
2.046011448,0.1364664,0.2430426,-0.2209152,-0.003389749,-7.899851E-05,1.001391,35.45601,4.719756,-22.30061,1005.024
2.048488617,0.0139995,0.1825299,-0.3432401,-0.003408293,0.002352109,0.9999555,35.45601,4.719756,-22.30061,1005.024
2.050965786,0.0139995,0.2430426,-0.2209152,-0.01022674,0.002309842,0.9970965,35.45601,4.719756,-22.30061,1005.024
2.053442478,0.1976999,0.2430426,-0.09859026,-0.003398478,0.0008925069,1.000431,35.45601,4.719756,-22.30061,1005.024
2.055920124,0.3201669,0.0615045,-0.2209152,-0.006816433,0.001842879,0.9980408,35.45601,4.719756,-22.30061,1005.024
2.058396339,0.07523298,0.0615045,-0.03742781,-0.006338347,-0.001093728,0.9907829,35.45601,4.719756,-22.30061,1005.024
2.060873985,0.1364664,-0.05952091,-0.09859026,-0.005344395,-0.002540094,0.9946315,35.45601,4.719756,-22.30061,1005.024
2.063350678,0.1364664,-0.05952091,-0.1597527,-0.008256344,-0.001573143,0.9980311,35.45601,4.719756,-22.30061,1005.024
2.065827847,0.07523298,0.0009917939,-0.1597527,-0.008766137,0.0008519317,0.9951504,35.45601,4.719756,-22.30061,1005.024
2.068304539,0.1976999,0.1220172,-0.2209152,-0.007306019,0.003304651,0.999499,35.45601,4.719756,-22.30061,1005.024
2.070781708,0.1364664,0.1220172,0.02373465,-0.002917622,0.0004022403,0.9980121,35.45601,4.719756,-22.30061,1005.024
2.073258877,0.2589334,0.1220172,-0.09859026,-0.003890235,0.003330471,1.002859,35.45601,4.719756,-22.30061,1005.024
2.075735569,0.0139995,0.2430426,-0.2209152,-0.005354188,0.0003861403,0.9965773,35.09051,4.341859,-22.67276,1005.024
2.078213215,0.1364664,0.2430426,-0.2820776,-0.005845436,0.0003801084,0.995132,35.09051,4.341859,-22.67276,1005.024
2.080689907,0.07523298,0.1825299,-0.2820776,-0.005363471,0.0008683781,0.9946491,35.09051,4.341859,-22.67276,1005.024
2.083167076,0.1976999,0.1220172,-0.2820776,-0.004365687,-8.637575E-05,1.000431,35.09051,4.341859,-22.67276,1005.023
2.085643768,0.1976999,0.0615045,-0.2209152,-0.004848782,-0.003019814,0.996557,35.09051,4.341859,-22.67276,1005.023
2.088120937,0.1364664,0.1825299,-0.09859026,-0.00388811,-0.0005789858,0.997047,35.09051,4.341859,-22.67276,1005.023
2.090597630,0.1364664,0.0009917939,-0.09859026,-0.005839409,0.00136216,0.9985157,35.09051,4.341859,-22.67276,1005.023
2.093074799,0.1364664,0.0615045,-0.09859026,-0.002947112,0.001847781,0.9917449,35.09051,4.341859,-22.67276,1005.023
2.095552444,0.0139995,0.0615045,-0.2820776,-2.040621E-05,0.0008913766,0.9926893,35.09051,4.341859,-22.67276,1005.023
2.098028660,0.1364664,0.1220172,-0.1597527,-0.001458634,0.0004097908,0.9980041,35.09051,4.341859,-22.67276,1005.023
2.100506306,0.07523298,0.1825299,-0.1597527,-0.005857976,0.002326635,0.9946593,35.09051,4.341859,-22.67276,1005.023
2.102982998,0.1364664,0.0009917939,-0.2209152,-0.003417645,-0.001565552,0.9907645,35.09051,4.341859,-22.67276,1005.023
2.105460167,0.1976999,-0.1200336,-0.3432401,-0.00338543,-0.003498016,0.9970292,35.09051,4.341859,-22.67276,1005.023
2.107936859,0.07523298,0.1825299,-0.2820776,-0.007303871,0.0008618259,0.9961078,35.09051,4.341859,-22.67276,1005.023
2.110414028,0.07523298,0.1220172,-0.2820776,-0.004879821,0.004291084,0.9994909,35.09051,4.341859,-22.67276,1005.023
2.112891197,0.07523298,0.0009917939,-0.1597527,-0.003400095,0.002357968,1.002369,35.09051,4.341859,-22.67276,1005.023
2.117845535,0.1976999,0.0009917939,-0.2209152,-0.005362871,0.004290911,1.000459,35.09051,4.341859,-22.67276,1005.023
2.120321751,0.0139995,0.0009917939,-0.2820776,-0.002443301,0.001373919,0.9960838,35.09051,4.341859,-22.67276,1005.023
2.122799397,-0.04723396,0.1825299,-0.2820776,-0.003385384,-0.000564751,1.001871,35.09051,4.341859,-22.67276,1005.025
2.125276089,0.0139995,0.1220172,-0.2209152,-0.00484712,-0.00155201,0.9994606,35.83312,4.365463,-21.85216,1005.025
2.127753258,0.3201669,0.0615045,-0.2209152,-0.004378782,0.001370882,0.9989904,35.83312,4.365463,-21.85216,1005.025
2.130229950,0.2589334,0.0009917939,-0.2209152,-0.004883124,0.002822108,0.9961046,35.83312,4.365463,-21.85216,1005.025
2.132707119,0.07523298,0.2430426,-0.1597527,-0.004858552,0.001373053,1.000924,35.83312,4.365463,-21.85216,1005.025
2.135184288,0.0139995,0.364068,-0.2820776,-0.001465169,0.001871736,0.9984944,35.83312,4.365463,-21.85216,1005.025
2.137660980,0.2589334,0.1220172,-0.2209152,-0.004405015,0.001352134,0.9912676,35.83312,4.365463,-21.85216,1005.025
2.140138626,0.1364664,0.0009917939,-0.2209152,-0.003879912,-0.0005731268,0.9994604,35.83312,4.365463,-21.85216,1005.025
2.142615318,0.07523298,0.0009917939,-0.2209152,-0.004861854,-9.59232E-05,0.9975376,35.83312,4.365463,-21.85216,1005.025
2.145092487,0.0139995,0.1825299,-0.2209152,-0.005817099,-0.004977233,0.9946216,35.83312,4.365463,-21.85216,1005.025
2.147569180,0.1364664,0.0009917939,-0.1597527,-0.003912635,0.003803335,0.9970697,35.83312,4.365463,-21.85216,1005.025
2.150046349,0.1976999,-0.05952091,-0.2820776,-0.0009706647,0.0004134795,0.9984842,35.83312,4.365463,-21.85216,1005.025
2.152523518,0.1976999,-0.1200336,-0.1597527,-0.004849846,-0.001065085,0.9994631,35.83312,4.365463,-21.85216,1005.025
2.155000210,0.0139995,0.0615045,-0.3432401,-0.002914874,0.001381948,1.00043,35.83312,4.365463,-21.85216,1005.025
2.157477856,0.2589334,0.1220172,-0.2209152,-0.001950391,0.002847756,1.000433,35.83312,4.365463,-21.85216,1005.025
2.159954071,0.07523298,0.3035553,-0.1597527,-0.003377717,0.0004184721,1.005738,35.83312,4.365463,-21.85216,1005.025
2.162431717,0.07523298,0.1220172,-0.1597527,-0.004351486,-0.0005650977,1.003807,35.83312,4.365463,-21.85216,1005.024
2.164908409,0.1364664,0.1220172,-0.09859026,-0.003896816,0.001859152,0.9985077,35.83312,4.365463,-21.85216,1005.024
2.167385578,0.0139995,0.1220172,-0.2209152,-0.005339454,-0.001069946,0.9985005,35.83312,4.365463,-21.85216,1005.024
2.169862270,0.07523298,0.0009917939,-0.09859026,-0.004365179,-0.002530373,0.9965569,35.83312,4.365463,-21.85216,1005.024
2.172339439,0.1976999,0.0009917939,-0.1597527,-0.004856381,0.0003968601,0.9999534,35.83312,4.365463,-21.85216,1005.024
2.174816608,0.1976999,0.1825299,-0.2820776,-0.002934504,0.004301152,0.9994802,35.08476,4.708555,-22.67924,1005.024
2.177293301,0.07523298,0.2430426,-0.1597527,-0.007773295,-0.00157297,0.9970632,35.08476,4.708555,-22.67924,1005.024
2.179770947,0.07523298,0.1825299,-0.09859026,-0.004371715,-0.001068427,0.9970471,35.08476,4.708555,-22.67924,1005.024
2.182247162,0.1976999,0.2430426,-0.1597527,-0.008744313,-0.001576832,0.9975512,35.08476,4.708555,-22.67924,1005.024
2.184724808,0.0139995,0.0009917939,-0.2209152,-0.007312069,0.0008559669,0.9936944,35.08476,4.708555,-22.67924,1005.024
2.187201500,0.07523298,0.1220172,-0.2209152,-0.008238841,-0.0005828894,1.004794,35.08476,4.708555,-22.67924,1005.024
2.189678669,0.07523298,-0.05952091,-0.1597527,-0.008727917,-0.001565114,1.002378,35.08476,4.708555,-22.67924,1005.024
2.192155838,0.1364664,0.0615045,-0.1597527,-0.003904992,0.003319925,0.9985152,35.08476,4.708555,-22.67924,1005.024
2.194632530,0.07523298,0.3035553,-0.2209152,-0.002417068,0.001392668,1.003807,35.08476,4.708555,-22.67924,1005.024
2.197109699,0.1976999,0.1825299,-0.1597527,-0.008725747,-0.002541307,1.001408,35.08476,4.708555,-22.67924,1005.024
2.199586391,0.0139995,0.1220172,-0.09859026,-0.007302232,0.0008629975,0.9965904,35.08476,4.708555,-22.67924,1005.024
2.202064037,0.1364664,0.0615045,-0.09859026,-0.002922518,0.001865357,0.9989849,35.08476,4.708555,-22.67924,1005.024
2.204540730,0.1364664,0.0615045,-0.09859026,-0.004359683,-0.0005709569,1.001394,35.08476,4.708555,-22.67924,1005.026
2.207017899,0.0139995,0.1220172,-0.2209152,-0.005346013,-0.001074633,0.9965698,35.08476,4.708555,-22.67924,1005.026
2.209494591,0.3814003,0.2430426,-0.2209152,-0.001931316,-0.000560716,1.000415,35.08476,4.708555,-22.67924,1005.026
2.211971760,0.07523298,0.1220172,-0.2820776,0.00045941,0.003822471,0.9955977,35.08476,4.708555,-22.67924,1005.026
2.214448929,0.1364664,0.0615045,-0.2209152,0.001924402,0.003345441,0.9965526,35.08476,4.708555,-22.67924,1005.026
2.216925621,0.2589334,0.0009917939,-0.1597527,-0.002935081,0.002345251,0.9960915,35.08476,4.708555,-22.67924,1005.026
2.219403267,0.1976999,0.1220172,-0.1597527,-0.008271055,0.001349575,0.998529,35.08476,4.708555,-22.67924,1005.026
2.221879482,0.1976999,0.1220172,-0.2209152,-0.001464061,0.002850272,1.00043,35.08476,4.708555,-22.67924,1005.026
2.224357128,0.07523298,0.2430426,-0.1597527,-0.002431801,0.002848754,1.001884,35.08476,4.708555,-22.67924,1005.026
2.226833820,0.1976999,0.0615045,0.02373465,-0.002412195,-0.001537082,1.000413,35.09275,4.364713,-21.46937,1005.026
2.229310989,0.0139995,0.0615045,-0.03742781,-0.006291884,-0.00057165,1.005266,35.09275,4.364713,-21.46937,1005.026
2.231788158,0.07523298,0.1825299,-0.09859026,-0.005325783,-0.0005713033,1.00333,35.09275,4.364713,-21.46937,1005.026
2.234264851,0.2589334,0.2430426,-0.1597527,-0.0009831816,0.003826638,1.000432,35.09275,4.364713,-21.46937,1005.026
2.236742020,0.1976999,0.1220172,-0.09859026,-0.002417114,-0.001540598,0.9989647,35.09275,4.364713,-21.46937,1005.026
2.239218712,0.1976999,0.0615045,-0.03742781,-0.006782115,-0.005465676,0.9960724,35.09275,4.364713,-21.46937,1005.026
2.241696358,0.1364664,0.1825299,-0.2209152,-0.006802829,-0.002058376,0.9956073,35.09275,4.364713,-21.46937,1005.026
2.244172573,0.07523298,0.1220172,-0.09859026,-0.0004990466,0.003338715,0.9989792,35.09275,4.364713,-21.46937,1005.024
2.246650219,0.1976999,0.1220172,-0.2209152,-0.0005012399,0.002848276,0.9975288,35.09275,4.364713,-21.46937,1005.024
2.249126911,0.1364664,0.1220172,-0.09859026,-0.003890812,0.001374571,0.9994704,35.09275,4.364713,-21.46937,1005.024
2.251604080,0.0139995,0.1220172,-0.03742781,-0.004412591,0.00623544,0.9970849,35.09275,4.364713,-21.46937,1005.024
2.254081249,0.07523298,0.0009917939,-0.3432401,-2.583372E-05,0.003331858,0.9951153,35.09275,4.364713,-21.46937,1005.024
2.256557941,0.1976999,0.0009917939,-0.09859026,-0.001945518,-8.199387E-05,0.9970389,35.09275,4.364713,-21.46937,1005.024
2.259035111,0.07523298,0.0009917939,-0.03742781,-0.00535793,0.005761059,1.004328,35.09275,4.364713,-21.46937,1005.024
2.261511803,0.07523298,0.1220172,-0.09859026,-0.004348161,0.002370511,1.009614,35.09275,4.364713,-21.46937,1005.024
2.263989449,0.07523298,0.2430426,-0.1597527,-0.005818672,-0.0005785075,1.001402,35.09275,4.364713,-21.46937,1005.024
2.266466141,0.07523298,0.1220172,-0.2820776,-0.007266759,-0.002533756,1.0014,35.09275,4.364713,-21.46937,1005.024
2.268943310,0.1976999,0.0615045,-0.1597527,-0.005342156,0.0008836113,1.000924,35.09275,4.364713,-21.46937,1005.024
2.271420479,0.1976999,0.1220172,-0.2820776,0.0004855525,-0.00202531,0.9936369,35.09275,4.364713,-21.46937,1005.024
2.273897171,0.1364664,0.0615045,-0.3432401,-0.004401159,0.003310378,0.9956217,35.09275,4.364713,-21.46937,1005.024
2.276374340,0.07523298,0.0009917939,-0.2209152,-0.006342643,0.003791922,0.9975656,34.35014,4.341111,-22.28996,1005.024
2.278851032,0.0139995,0.1825299,-0.2209152,-0.006801722,-0.00107984,0.9975431,34.35014,4.341111,-22.28996,1005.024
2.281328678,0.1364664,0.364068,-0.1597527,-0.002449859,0.001369232,0.9941531,34.35014,4.341111,-22.28996,1005.024
2.283804894,0.0139995,0.1825299,-0.09859026,-0.004861323,-0.001073288,0.9960845,34.35014,4.341111,-22.28996,1005.025
2.286282539,0.07523298,0.0615045,-0.03742781,-0.009218103,-0.003525875,0.9980264,34.35014,4.341111,-22.28996,1005.025
2.288759232,0.1364664,-0.05952091,-0.1597527,-0.004384255,0.0008780988,0.9965745,34.35014,4.341111,-22.28996,1005.025
2.291236401,0.07523298,0.0615045,-0.2209152,-0.003407762,0.001374744,0.9985025,34.35014,4.341111,-22.28996,1005.025
2.293713570,0.1364664,0.1220172,-0.09859026,-0.006797379,-0.003032225,0.9956023,34.35014,4.341111,-22.28996,1005.025
2.296190262,-0.04723396,0.0009917939,-0.2209152,-0.004373862,0.001374398,1.000438,34.35014,4.341111,-22.28996,1005.025
2.298667431,0.07523298,0.0615045,-0.2209152,-0.008250318,-0.000591092,1.001415,34.35014,4.341111,-22.28996,1005.025
2.301144123,0.07523298,0.1825299,-0.1597527,-0.004860769,-0.0005840196,0.9970523,34.35014,4.341111,-22.28996,1005.025
2.303621769,0.1976999,0.1220172,-0.09859026,-0.0058689,0.0028077,0.9922485,34.35014,4.341111,-22.28996,1005.025
2.306097984,0.2589334,0.0615045,-0.03742781,-0.001466255,0.002359832,0.9989795,34.35014,4.341111,-22.28996,1005.025
2.308575630,0.1976999,0.1825299,-0.1597527,-0.00288924,-0.002021836,1.002344,34.35014,4.341111,-22.28996,1005.025
2.311052799,0.07523298,0.1220172,-0.2820776,-0.002933441,0.002346423,0.9965741,34.35014,4.341111,-22.28996,1005.025
2.313529491,-0.04723396,0.1220172,-0.3432401,-0.006337238,-0.0001151918,0.9927187,34.35014,4.341111,-22.28996,1005.025
2.316006661,0.0139995,0.1825299,-0.2209152,-0.003894137,-0.001561038,0.9936633,34.35014,4.341111,-22.28996,1005.025
2.318483353,0.1364664,0.1220172,-0.09859026,-0.002900163,-0.001540771,0.9999328,34.35014,4.341111,-22.28996,1005.025
2.320960522,0.07523298,0.0009917939,-0.09859026,-0.006310983,0.001370189,1.002862,34.35014,4.341111,-22.28996,1005.025
2.323437214,0.07523298,0.0615045,-0.2209152,-0.005346013,-0.001074633,0.9965698,34.35014,4.341111,-22.28996,1005.026
2.325914860,0.1976999,0.1825299,-0.1597527,-0.004866219,0.0003898293,0.9970573,35.45683,4.728176,-21.85725,1005.026
2.328391552,0.1976999,0.2430426,-0.2820776,-0.005349269,0.0003896558,0.9980253,35.45683,4.728176,-21.85725,1005.026
2.330868721,0.07523298,-0.05952091,-0.2820776,-0.003879358,-8.385885E-05,1.000428,35.45683,4.728176,-21.85725,1005.026
2.333345890,0.0139995,0.0009917939,-0.09859026,-0.005352571,-0.00107932,0.994639,35.45683,4.728176,-21.85725,1005.026
2.335822582,0.1976999,0.0615045,-0.1597527,-0.006336662,0.001840709,0.9961075,35.45683,4.728176,-21.85725,1005.026
2.338299751,0.1976999,0.0615045,-0.1597527,-0.00437825,0.000393518,0.9975374,35.45683,4.728176,-21.85725,1005.026
2.340776444,0.3201669,0.1220172,-0.09859026,-0.001953139,0.001868048,0.9980143,35.45683,4.728176,-21.85725,1005.026
2.343254089,-0.04723396,0.2430426,-0.2209152,-0.00342686,0.003316583,0.9960992,35.45683,4.728176,-21.85725,1005.026
2.345730305,0.0139995,0.0615045,-0.3432401,-0.002423626,0.001387981,1.001876,35.45683,4.728176,-21.85725,1005.026
2.348207951,0.07523298,0.0009917939,-0.2209152,-0.005814838,-8.689566E-05,1.003335,35.45683,4.728176,-21.85725,1005.026
2.350685120,0.0139995,0.0615045,-0.2209152,-0.005320909,-0.003501053,0.999936,35.45683,4.728176,-21.85725,1005.026
2.353161812,0.0139995,0.1220172,-0.2820776,-0.001953693,0.00137878,0.9970465,35.45683,4.728176,-21.85725,1005.026
2.355638981,0.1364664,0.0615045,-0.1597527,-7.843832E-06,0.0004114825,0.9955828,35.45683,4.728176,-21.85725,1005.026
2.358115673,0.1976999,0.1220172,-0.09859026,-0.006313199,-0.0005868834,0.9989909,35.45683,4.728176,-21.85725,1005.026
2.360592842,0.1364664,0.2430426,-0.1597527,-0.003392497,-0.001058707,0.9989725,35.45683,4.728176,-21.85725,1005.026
2.363069534,0.1976999,0.1825299,-0.3432401,-0.001942793,-0.0005689184,0.9970364,35.45683,4.728176,-21.85725,1005.023
2.365547180,0.1976999,0.0615045,-0.1597527,-0.005374371,0.002816076,0.9946591,35.45683,4.728176,-21.85725,1005.023
2.368024349,0.1976999,0.0615045,0.02373465,-0.005845945,0.002824105,0.9990059,35.45683,4.728176,-21.85725,1005.023
2.370501041,0.1364664,-0.05952091,-0.09859026,-0.006801676,0.001853425,1.002385,35.45683,4.728176,-21.85725,1005.023
2.372978211,0.1364664,0.1825299,-0.2820776,-0.004358066,-0.002036418,0.9994555,35.45683,4.728176,-21.85725,1005.023
2.375454903,0.1976999,0.1220172,-0.2209152,-0.005366128,0.0057552,1.001915,35.45683,4.728176,-21.85725,1005.023
2.377932072,0.1976999,0.1825299,-0.2209152,-0.002895245,-0.001537255,1.001381,35.46258,4.36148,-21.85077,1005.023
2.380408764,0.5038673,0.1220172,-0.1597527,-0.001941662,0.00187625,1.001393,35.46258,4.36148,-21.85077,1005.023
2.382885933,0.1976999,0.1220172,-0.03742781,-0.003434481,0.005266625,0.9970745,35.46258,4.36148,-21.85077,1005.023
2.387840271,0.07523298,0.1825299,-0.2209152,-0.00630828,-0.0005833679,1.000439,35.46258,4.36148,-21.85077,1005.023
2.390317440,0.0139995,0.0615045,-0.03742781,-0.009731638,0.004274118,1.002896,35.46258,4.36148,-21.85077,1005.023
2.392794132,0.0139995,-0.05952091,-0.03742781,-0.00680828,-0.001084527,0.9956123,35.46258,4.36148,-21.85077,1005.023
2.395271301,0.07523298,0.1220172,-0.2820776,-0.003392497,-0.001058707,0.9989725,35.46258,4.36148,-21.85077,1005.023
2.397747994,0.1364664,0.2430426,-0.2209152,-0.005838833,0.00331806,1.001905,35.46258,4.36148,-21.85077,1005.023
2.400225163,0.0139995,0.1825299,-0.09859026,-0.004379358,-0.0005850182,0.9956016,35.46258,4.36148,-21.85077,1005.023
2.402701855,0.1364664,0.1220172,-0.03742781,-0.005847608,0.001356301,0.9961023,35.46258,4.36148,-21.85077,1005.025
2.405179501,0.2589334,0.1825299,-0.2209152,-0.01071961,0.00376927,0.9975895,35.46258,4.36148,-21.85077,1005.025
2.407656670,0.1976999,0.364068,-0.09859026,-0.007291309,0.0003819317,0.9990012,35.46258,4.36148,-21.85077,1005.025
2.410133362,0.1976999,0.2430426,-0.09859026,0.0005068902,-0.0005434442,1.002333,35.46258,4.36148,-21.85077,1005.025
2.412610531,0.1976999,0.0009917939,-0.2209152,-0.004853079,0.001865836,1.00334,35.46258,4.36148,-21.85077,1005.025
2.415087223,0.2589334,0.0615045,-0.2820776,-0.003895731,0.001371055,0.9980224,35.46258,4.36148,-21.85077,1005.025
2.417564392,0.1364664,0.1220172,-0.09859026,-0.0005039875,0.001868568,0.9951104,35.46258,4.36148,-21.85077,1005.025
2.420041084,0.07523298,-0.05952091,-0.03742781,-0.003406699,-0.0005799844,0.9955963,35.46258,4.36148,-21.85077,1005.025
2.422518253,0.07523298,0.0009917939,-0.2820776,-0.01070106,0.001338163,0.9990248,35.46258,4.36148,-21.85077,1005.025
2.424994946,0.1976999,0.2430426,-0.1597527,-0.008275375,0.004768593,1.002891,35.46258,4.36148,-21.85077,1005.025
2.427472591,0.1364664,0.0615045,-0.03742781,-0.005372709,0.00428388,0.9975628,35.09122,4.349077,-22.29274,1005.025
2.429949761,0.2589334,0.0009917939,0.08489711,-0.002393628,-0.002501557,1.004269,35.09122,4.349077,-22.29274,1005.025
2.432426453,0.1364664,0.2430426,-0.03742781,-0.01066993,-0.0001062055,1.005775,35.09122,4.349077,-22.29274,1005.025
2.434903622,0.0139995,0.1220172,-0.2209152,-0.008273249,0.0008591358,0.9970784,35.09122,4.349077,-22.29274,1005.025
2.437380314,0.07523298,0.1220172,-0.3432401,-0.0004619809,-0.002990131,0.9994292,35.09122,4.349077,-22.29274,1005.025
2.439857483,0.2589334,0.1220172,-0.1597527,-0.004866773,-9.943871E-05,0.9960895,35.09122,4.349077,-22.29274,1005.025
2.442334175,0.1976999,0.3035553,-0.09859026,-0.005825252,-0.002049827,0.99705,35.09122,4.349077,-22.29274,1005.025
2.444811344,0.07523298,0.1825299,-0.2209152,-0.005821973,-0.002047484,0.9980154,35.09122,4.349077,-22.29274,1005.029
2.447288990,0.07523298,0.0009917939,-0.2209152,-0.001463553,0.0004062753,0.9965561,35.09122,4.349077,-22.29274,1005.029
2.449765682,0.2589334,0.0615045,-0.09859026,-0.001943347,-0.001058187,0.9960686,35.09122,4.349077,-22.29274,1005.029
2.452242851,0.1364664,0.1220172,-0.09859026,-0.002464016,0.004781219,0.9956187,35.09122,4.349077,-22.29274,1005.029
2.454719544,0.0139995,0.1220172,-0.1597527,-0.003902312,-0.0001002639,0.9936708,35.09122,4.349077,-22.29274,1005.029
2.457196713,0.07523298,0.1220172,-0.3432401,-0.008772097,0.004269777,0.9990293,35.09122,4.349077,-22.29274,1005.029
2.459673405,0.1364664,0.0009917939,-0.2820776,-0.004882569,0.003311376,0.9970724,35.09122,4.349077,-22.29274,1005.029
2.462150574,0.1976999,0.1220172,-0.2209152,-0.001481543,0.003326651,0.9960886,35.09122,4.349077,-22.29274,1005.029
2.464627266,0.1976999,0.364068,-0.1597527,-0.005850333,0.001843225,0.9961048,35.09122,4.349077,-22.29274,1005.029
2.467104912,0.1364664,0.2430426,-0.1597527,-0.001929167,-0.003003541,0.9970238,35.09122,4.349077,-22.29274,1005.029
2.469582081,0.0139995,0.1825299,-0.09859026,-0.003891366,0.0008853029,0.9985026,35.09122,4.349077,-22.29274,1005.029
2.472058773,0.07523298,0.0615045,-0.1597527,-0.003395776,-0.00106105,0.9980072,35.09122,4.349077,-22.29274,1005.029
2.474535942,0.1976999,0.1220172,-0.2209152,-0.006337193,0.002818073,0.9975606,35.09122,4.349077,-22.29274,1005.029
2.477012634,0.1976999,0.1825299,-0.2209152,-0.006320797,0.002829791,1.002387,34.72068,4.345094,-22.29135,1005.029
2.479489803,0.1976999,0.0009917939,0.02373465,-0.002908893,-0.0005692651,0.9989724,34.72068,4.345094,-22.29135,1005.029
2.481966496,0.3201669,0.0615045,-0.1597527,-0.005339431,0.0003966866,1.000921,34.72068,4.345094,-22.29135,1005.029
2.484443665,0.1364664,0.2430426,-0.1597527,-0.003910464,0.002827142,0.9960993,34.72068,4.345094,-22.29135,1005.03
2.486921311,0.0139995,0.1825299,-0.1597527,-0.004366241,-0.0005756437,0.999463,34.72068,4.345094,-22.29135,1005.03
2.489398003,0.1364664,0.0615045,-0.1597527,-0.004376587,0.001861322,1.000441,34.72068,4.345094,-22.29135,1005.03
2.491875172,0.1364664,0.1220172,-0.09859026,-0.006806595,0.00184991,1.000937,34.72068,4.345094,-22.29135,1005.03
2.494351864,0.1364664,0.1825299,-0.09859026,-0.004874948,0.001361335,0.996097,34.72068,4.345094,-22.29135,1005.03
2.496829033,0.1976999,0.1220172,-0.2209152,-0.00388266,-0.001552835,0.9970419,34.72068,4.345094,-22.29135,1005.03
2.499305725,0.1364664,0.0009917939,-0.1597527,-0.003383213,-0.001540944,1.000901,34.72068,4.345094,-22.29135,1005.03
2.501782894,0.1976999,0.1220172,-0.1597527,-0.003895177,0.001860323,0.9989902,34.72068,4.345094,-22.29135,1005.03
2.504260540,0.07523298,0.1825299,-0.2209152,-0.006792461,-0.003028709,0.9970503,34.72068,4.345094,-22.29135,1005.03
2.506736755,0.0139995,0.2430426,-0.09859026,-0.0048613,0.0003933446,0.9985054,34.72068,4.345094,-22.29135,1005.03
2.509214401,0.07523298,0.2430426,-0.1597527,-0.005330125,0.001381082,1.00527,34.72068,4.345094,-22.29135,1005.03
2.511691094,0.0139995,0.1220172,-0.1597527,-0.007285304,-0.0001026487,0.9999642,34.72068,4.345094,-22.29135,1005.03
2.514168263,-0.1084674,0.0615045,-0.2209152,-0.003899033,-9.792019E-05,0.9946361,34.72068,4.345094,-22.29135,1005.03
2.516644955,0.1364664,0.2430426,-0.1597527,-0.006790222,0.0003949949,1.003343,34.72068,4.345094,-22.29135,1005.03
2.519122124,0.1976999,0.1220172,-0.1597527,-0.006809897,0.0003809335,0.9975507,34.72068,4.345094,-22.29135,1005.03
2.521598816,0.1976999,0.1825299,-0.09859026,-0.006334468,0.002331149,0.9975581,34.72068,4.345094,-22.29135,1005.03
2.524075985,0.2589334,0.1825299,-0.1597527,-0.005831234,-9.861356E-05,0.9985082,34.72068,4.345094,-22.29135,1005.032
2.526553631,0.07523298,0.1220172,-0.2209152,-0.004823125,-0.004956966,1.000891,34.72068,4.345094,-22.29135,1005.032
2.529030323,0.0139995,0.0615045,-0.09859026,-0.0004919565,0.002366038,0.9994569,35.46655,4.047481,-22.28873,1005.032
2.531507492,0.07523298,0.2430426,-0.2209152,-0.001464661,-0.0005722605,0.9946203,35.46655,4.047481,-22.28873,1005.032
2.533984184,0.0139995,0.2430426,-0.2820776,-0.00536511,0.0008672065,0.9941666,35.46655,4.047481,-22.28873,1005.032
2.536461353,0.07523298,0.1825299,-0.2209152,-0.005334003,-0.002043795,0.9984955,35.46655,4.047481,-22.28873,1005.032
2.538938046,0.07523298,0.1220172,-0.03742781,-0.004847652,-0.0005746454,1.000914,35.46655,4.047481,-22.28873,1005.032
2.541415215,0.1364664,0.0009917939,-0.2209152,-0.007806019,0.002803492,0.9946724,35.46655,4.047481,-22.28873,1005.032
2.543892861,0.1364664,0.0009917939,-0.2209152,-0.00973771,0.0003588016,0.9946704,35.46655,4.047481,-22.28873,1005.032
2.546369076,-0.04723396,0.1825299,-0.09859026,-0.006307726,-9.40999E-05,1.001407,35.46655,4.047481,-22.28873,1005.032
2.548846722,0.0139995,0.0615045,-0.1597527,-0.005330724,-0.002041452,0.9994608,35.46655,4.047481,-22.28873,1005.032
2.551323414,0.07523298,-0.05952091,-0.2209152,-0.002425312,-0.001546456,0.9965513,35.46655,4.047481,-22.28873,1005.032
2.553800583,0.0139995,0.0615045,-0.2820776,-0.009224063,-0.000108029,1.001905,35.46655,4.047481,-22.28873,1005.032
2.556277275,0.07523298,0.1220172,-0.1597527,-0.005842134,0.001849084,0.9985182,35.46655,4.047481,-22.28873,1005.032
2.558754444,-0.04723396,0.1220172,-0.09859026,-0.008277105,-0.001099108,0.9927242,35.46655,4.047481,-22.28873,1005.032
2.561231136,0.0139995,0.1825299,-0.2209152,-0.005821951,-0.000580851,1.000436,35.46655,4.047481,-22.28873,1005.032
2.563708305,0.07523298,0.2430426,-0.09859026,-0.00390991,0.00331641,0.9970671,35.46655,4.047481,-22.28873,1005.03
2.566185951,0.1364664,0.2430426,-0.09859026,-0.002439445,0.003332163,1.000438,35.46655,4.047481,-22.28873,1005.03
2.568662167,0.0139995,0.0615045,-0.2820776,-0.006328464,0.001846567,0.9985209,35.46655,4.047481,-22.28873,1005.03
2.571139813,0.07523298,-0.1200336,-0.1597527,-0.00632359,-0.001083182,0.9951271,35.46655,4.047481,-22.28873,1005.03
2.573616505,0.1364664,0.0615045,-0.2209152,-0.00339633,-0.001550318,0.9970393,35.46655,4.047481,-22.28873,1005.03
2.576093674,0.1364664,0.1825299,-0.2209152,-0.008283641,0.0003628365,0.9932144,35.46655,4.047481,-22.28873,1005.03
2.578570366,0.1364664,0.0009917939,-0.09859026,-0.009743715,0.0008433824,0.9937077,35.45601,4.719756,-22.30061,1005.03
