Time (s),Gyroscope X (deg/s),Gyroscope Y (deg/s),Gyroscope Z (deg/s),Accelerometer X (g),Accelerometer Y (g),Accelerometer Z (g),Magnetometer X (uT),Magnetometer Y (uT),Magnetometer Z (uT),Barometer (hPa)
0.000000000,0.2589334,0.1825299,-0.09859026,-0.001918775,-0.002507242,1.000888,36.41793,-13.16185,-21.03667,1003.086
0.009907246,0.1976999,0.1825299,-0.1597527,-0.001930207,0.0004178202,1.002351,36.41793,-13.16185,-21.03667,1003.087
0.029723167,0.1364664,0.1825299,-0.2820776,-0.0009722814,0.00187894,1.000422,36.41793,-13.16185,-21.03667,1003.087
0.049538136,0.1364664,0.0615045,-0.2820776,-0.002467872,0.002822975,0.9912646,36.41793,-13.16185,-21.03667,1003.086
0.069353580,0.1364664,0.364068,-0.09859026,-0.007771102,-0.00108253,0.9985138,36.05315,-13.53253,-21.0288,1003.086
0.089168549,0.07523298,0.1825299,-0.2209152,-0.003884785,0.002356622,1.002854,36.05315,-13.53253,-21.0288,1003.088
0.108983517,0.2589334,0.2430426,-0.2820776,-0.002898016,-0.003983596,0.9965414,37.0908,-12.79507,-21.42571,1003.088
0.128798962,0.1976999,0.0615045,-0.2209152,-0.00481599,-0.002996378,1.006211,37.0908,-12.79507,-21.42571,1003.089
0.173383236,0.1976999,0.3035553,-0.2209152,-0.001436302,-0.004462969,0.996531,36.78847,-13.15787,-21.03806,1003.087
0.188244820,0.1976999,0.3035553,-0.2820776,-0.0009472019,-0.002014113,1.001368,36.78847,-13.15787,-21.03806,1003.087
0.208060265,0.07523298,0.0615045,-0.2209152,-0.004843287,-0.001060398,1.001394,36.78847,-13.15787,-21.03806,1003.091
0.230351925,0.1364664,0.1825299,-0.1597527,-0.003409424,-9.305985E-05,0.9955988,36.78202,-12.79839,-21.42455,1003.091
0.250167847,0.1976999,0.0615045,-0.2209152,-0.007285304,-0.0001026487,0.9999642,36.78202,-12.79839,-21.42455,1003.094
0.269982815,0.2589334,0.2430426,-0.4044026,1.127715E-05,-6.372388E-05,1.000407,36.79422,-13.52456,-21.03158,1003.094
0.289798260,0.1364664,0.2430426,-0.3432401,-0.003385407,-0.002031384,0.9994502,36.79422,-13.52456,-21.03158,1003.092
0.309613228,0.2589334,0.2430426,-0.3432401,-0.004849291,-0.0005758172,1.000431,36.79422,-13.52456,-21.03158,1003.092
0.329428196,0.3201669,0.1825299,-0.2209152,0.001931515,0.003839396,0.9994512,36.42298,-13.53576,-21.41021,1003.095
0.349243641,0.1976999,0.1825299,-0.09859026,-0.00339028,0.0008983659,1.002844,36.42298,-13.53576,-21.41021,1003.095
0.369059086,0.1364664,0.1825299,-0.2209152,-0.004865665,0.0008790974,0.9980252,36.43014,-13.88803,-20.64369,1003.092
0.388874531,0.0139995,0.1825299,-0.1597527,-0.005813798,-0.003508257,0.9980078,36.43014,-13.88803,-20.64369,1003.092
0.408689499,0.3201669,0.2430426,-0.2209152,-0.004360746,0.001383772,1.0043,36.43014,-13.88803,-20.64369,1003.094
0.428504944,0.07523298,0.364068,-0.2209152,-0.002921432,0.001377261,0.9984999,36.79352,-13.53178,-21.4116,1003.094
0.448319912,0.1364664,0.0009917939,-0.2820776,-0.002422564,-0.0005667484,0.9989697,36.79352,-13.53178,-21.4116,1003.091
0.468135834,0.1364664,0.1825299,-0.2209152,-0.004832963,-0.004963997,0.997995,36.79927,-13.89848,-21.40512,1003.091
0.490427494,0.2589334,0.1825299,-0.1597527,-0.001428636,-0.003479746,1.000397,36.79927,-13.89848,-21.40512,1003.094
0.510242462,0.07523298,0.2430426,-0.3432401,-0.003384876,-0.003008748,0.9979971,36.79927,-13.89848,-21.40512,1003.094
0.530057907,0.1976999,0.1825299,-0.2209152,-0.007777083,0.0008686834,0.9999719,37.09796,-13.14733,-20.6592,1003.093
0.549873352,0.0139995,0.1220172,-0.2209152,-0.009250274,0.001339854,0.9966035,37.09796,-13.14733,-20.6592,1003.093
0.596934319,0.07523298,0.0009917939,-0.2209152,-0.001968426,0.002834866,0.9951233,36.78847,-13.15787,-21.03806,1003.096
0.609319210,0.07523298,0.2430426,-0.1597527,0.0004839585,0.000906783,0.997996,36.78847,-13.15787,-21.03806,1003.097
0.629134178,0.07523298,0.0615045,-0.1597527,-0.003395222,-0.000571782,0.998975,37.09796,-13.14733,-20.6592,1003.097
0.648950100,0.07523298,0.1220172,-0.1597527,-0.007789069,0.003304478,1.000467,37.09796,-13.14733,-20.6592,1003.098
0.668765068,0.07523298,0.0009917939,-0.1597527,-0.004814351,-0.002995207,1.006693,36.79493,-13.51735,-20.65156,1003.098
0.688580036,0.1976999,0.1825299,-0.2209152,-0.001935703,-0.001541596,0.9975141,36.79493,-13.51735,-20.65156,1003.097
0.708395481,0.0139995,0.2430426,-0.1597527,-0.007259092,-0.001550533,1.005266,36.79493,-13.51735,-20.65156,1003.097
0.728210449,0.1976999,0.1220172,-0.1597527,-0.002393051,-0.0005456561,1.007658,37.09725,-13.15455,-21.03922,1003.096
0.748026371,0.1976999,0.1825299,-0.2209152,-0.003862985,-0.001538774,1.002834,37.09725,-13.15455,-21.03922,1003.096
0.770318031,0.1364664,0.1825299,-0.2209152,-0.003376655,-0.001536257,1.002831,37.09796,-13.14733,-20.6592,1003.097
0.790133476,0.2589334,0.1825299,-0.3432401,-0.00388206,0.001869698,1.002852,37.09796,-13.14733,-20.6592,1003.097
0.809948921,0.1976999,0.1825299,-0.2820776,-0.006296271,-0.001552529,1.002365,37.09796,-13.14733,-20.6592,1003.096
0.829764366,0.07523298,0.2430426,-0.1597527,-0.002436212,0.0004012417,0.9965614,36.79422,-13.52456,-21.03158,1003.096
0.849579334,0.2589334,0.1825299,-0.2209152,1.783576E-05,-5.903654E-05,1.002338,36.79422,-13.52456,-21.03158,1003.099
0.869394303,0.1976999,0.1825299,-0.09859026,-0.002878849,-0.001525537,1.006207,36.41793,-13.16185,-21.03667,1003.099
0.889210224,0.07523298,0.1825299,-0.09859026,-0.002913211,0.002849753,1.003334,36.41793,-13.16185,-21.03667,1003.098
0.909025669,0.1364664,0.1825299,-0.09859026,-0.005343242,0.001371707,1.001409,36.41793,-13.16185,-21.03667,1003.098
0.928840637,0.07523298,-0.05952091,-0.2820776,-0.003369565,-0.002508934,1.003309,36.78847,-13.15787,-21.03806,1003.097
0.948655606,0.1976999,0.0615045,-0.3432401,-0.001908984,-0.005433477,0.9989419,36.78847,-13.15787,-21.03806,1003.097
0.968471050,0.0139995,0.0615045,-0.2209152,-0.003371205,-0.002510106,1.002826,36.41793,-13.16185,-21.03667,1003.097
0.988286495,-0.04723396,0.0615045,-0.03742781,-0.002429653,0.0004059291,0.9984922,36.41793,-13.16185,-21.03667,1003.097
1.008101940,0.0139995,0.2430426,-0.1597527,0.0004866607,-0.001046774,0.9955726,36.41793,-13.16185,-21.03667,1003.096
1.052686214,0.1976999,0.364068,-0.2209152,-0.003878827,-0.001061223,0.9989751,36.41935,-13.14742,-20.27663,1003.098
1.070024490,0.1976999,0.1220172,-0.2209152,-0.0009368102,-0.001517813,1.005231,36.41289,-12.78794,-20.66313,1003.098
1.089839935,0.1364664,0.1825299,-0.2209152,-0.004386379,0.004787557,1.002387,36.41289,-12.78794,-20.66313,1003.099
1.109654903,0.0139995,0.0009917939,-0.2209152,-0.006781492,-0.0005765103,1.004303,36.41289,-12.78794,-20.66313,1003.099
1.129470825,0.07523298,0.0615045,-0.2209152,-0.003431224,0.003802336,0.9956189,36.42368,-13.52855,-21.03019,1003.098
1.149285793,0.2589334,0.2430426,-0.1597527,-0.001436257,-0.001529705,1.001373,36.42368,-13.52855,-21.03019,1003.098
1.169101238,0.1364664,0.3035553,-0.1597527,-0.004821419,-0.0005558967,1.008636,36.78272,-12.79118,-21.04454,1003.098
1.188916206,0.1976999,0.1220172,-0.1597527,0.0005172589,-0.001513778,1.003776,36.78272,-12.79118,-21.04454,1003.098
1.208732128,0.1364664,0.0009917939,-0.4044026,-0.003864047,0.0004159552,1.00574,36.78272,-12.79118,-21.04454,1003.099
1.228547096,0.07523298,0.3035553,-0.09859026,-0.004811117,-0.005926128,1.002817,36.42439,-13.52133,-20.65017,1003.099
1.248362064,0.1976999,0.0615045,-0.1597527,-0.003880489,-0.002529028,0.9960716,36.42439,-13.52133,-20.65017,1003.1
1.268177509,0.07523298,0.1220172,-0.2209152,-0.004356958,-0.001057881,1.001391,36.42439,-13.52133,-20.65017,1003.1
1.287993431,0.07523298,0.2430426,-0.1597527,-0.00533726,-0.0005795057,0.9999511,36.79422,-13.52456,-21.03158,1003.101
1.310285091,0.1364664,0.2430426,-0.1597527,-0.005358506,0.003805158,1.000939,36.79422,-13.52456,-21.03158,1003.101
1.330101013,0.3201669,0.1220172,-0.1597527,-0.002420901,0.0009010562,1.001873,36.78847,-13.15787,-21.03806,1003.1
1.349915981,0.1976999,0.1220172,-0.09859026,-0.006305555,-0.001070292,1.000436,36.78847,-13.15787,-21.03806,1003.1
1.369730949,0.07523298,0.2430426,-0.2209152,-0.004384808,0.0003888307,0.9956066,36.80068,-13.88404,-20.64508,1003.099
1.389546394,-0.04723396,0.0009917939,-0.1597527,-0.006783132,-0.0005776822,1.00382,36.80068,-13.88404,-20.64508,1003.099
1.409361839,0.07523298,0.1825299,-0.1597527,-0.003413212,0.002348593,0.9985075,36.80068,-13.88404,-20.64508,1003.099
1.429177284,0.07523298,0.2430426,-0.03742781,-0.006804424,0.0008737171,0.9999666,36.79997,-13.89126,-21.0251,1003.099
1.473761559,0.1364664,0.0009917939,-0.03742781,-0.003383236,-0.003007576,0.9984798,36.42439,-13.52133,-20.65017,1003.097
1.488623142,0.1976999,0.0009917939,-0.2820776,-0.002887646,-0.004953929,0.9979844,36.42439,-13.52133,-20.65017,1003.097
1.508438587,0.0139995,0.1220172,-0.09859026,-0.004364025,0.001381428,1.003335,36.42439,-13.52133,-20.65017,1003.097
1.528253555,0.3201669,0.0615045,-0.09859026,-0.002871782,-0.003964847,1.004264,36.42368,-13.52855,-21.03019,1003.096
1.548068524,0.07523298,0.1220172,-0.1597527,-0.003890812,0.001374571,0.9994704,36.42368,-13.52855,-21.03019,1003.096
1.570361138,0.1976999,0.0009917939,-0.09859026,-0.0004908713,0.001877942,0.9989717,36.42368,-13.52855,-21.03019,1003.097
1.590176582,0.1364664,0.1825299,-0.1597527,-0.002428568,-8.21671E-05,0.9980069,36.43014,-13.88803,-20.64369,1003.097
1.609992027,0.1364664,0.2430426,-0.1597527,-0.004856404,-0.001069772,0.9975325,36.43014,-13.88803,-20.64369,1003.098
1.629807472,0.2589334,0.0615045,-0.2209152,-0.004377165,-9.457814E-05,0.9970521,37.15972,-13.14667,-20.65943,1003.098
1.649622440,0.0139995,0.1825299,-0.03742781,-0.003896839,0.0003925194,0.9960867,37.15972,-13.14667,-20.65943,1003.098
1.669437409,0.1976999,0.1220172,-0.1597527,-0.0004799711,-6.975629E-05,0.9989616,37.15972,-13.14667,-20.65943,1003.098
1.689253330,0.2589334,0.1220172,-0.1597527,-0.003391965,-0.002036071,0.9975196,36.7819,-12.79959,-21.48789,1003.098
1.709068775,0.07523298,0.1825299,-0.1597527,-0.003346125,-0.006403158,1.003772,36.7819,-12.79959,-21.48789,1003.098
1.728883743,0.1364664,-0.05952091,-0.1597527,-0.004829616,-0.0005617556,1.006223,36.42439,-13.52133,-20.65017,1003.093
1.748699665,0.1976999,0.0009917939,-0.2209152,-1.056888E-05,0.0008984072,0.9955853,36.42439,-13.52133,-20.65017,1003.093
1.768514633,0.1364664,0.2430426,-0.1597527,-0.004856936,-9.240815E-05,0.9989855,36.42439,-13.52133,-20.65017,1003.09
1.788329601,0.1364664,0.1220172,-0.09859026,-0.001412217,-0.002001396,1.007645,36.78847,-13.15787,-21.03806,1003.09
1.808145046,0.07523298,0.2430426,-0.3432401,-0.00337774,-0.00104816,1.003317,36.78847,-13.15787,-21.03806,1003.089
1.827960968,0.2589334,0.1825299,-0.3432401,-0.00190238,-0.002495524,1.005715,36.04739,-13.16583,-21.03528,1003.089
1.850252629,0.1976999,0.2430426,-0.2820776,-0.006321905,0.001851255,1.000451,36.04739,-13.16583,-21.03528,1003.088
1.870068550,0.07523298,0.1220172,-0.2209152,-0.006809897,0.0003809335,0.9975507,36.04739,-13.16583,-21.03528,1003.088
1.914652825,0.2589334,0.0615045,-0.2820776,-0.004379336,0.0008816143,0.9980226,36.7934,-13.53298,-21.47493,1003.087
1.929514408,0.07523298,0.2430426,-0.2209152,-0.005324719,-0.002526033,1.000424,36.78414,-12.77674,-20.2845,1003.086
1.949329376,0.3201669,0.1825299,-0.1597527,-0.006826802,0.002813212,0.9965978,36.78414,-12.77674,-20.2845,1003.086
1.969144821,0.07523298,0.0009917939,-0.2820776,-0.006312622,0.001369017,1.00238,36.78414,-12.77674,-20.2845,1003.085
1.988960743,0.1364664,0.0615045,-0.2820776,-0.006806087,-0.0005940872,0.9970629,36.79422,-13.52456,-21.03158,1003.085
2.008775711,0.1976999,0.1825299,-0.2820776,-0.003876633,-0.0005707834,1.000426,36.79422,-13.52456,-21.03158,1003.082
2.028590679,0.2589334,0.1825299,-0.2209152,-0.003377717,0.0004184721,1.005738,37.15972,-13.14667,-20.65943,1003.082
2.048406124,0.1976999,0.1825299,-0.1597527,-0.005341071,0.0003955148,1.000439,37.15972,-13.14667,-20.65943,1003.083
2.068221569,0.07523298,-0.05952091,-0.2820776,-0.003879358,-8.385885E-05,1.000428,37.15972,-13.14667,-20.65943,1003.083
2.088037014,0.1976999,0.1825299,-0.1597527,-0.005325783,-0.0005713033,1.00333,36.41136,-12.80358,-21.4865,1003.082
2.110329628,0.1976999,0.1220172,-0.2209152,3.582542E-05,-0.002979412,1.002805,36.41136,-12.80358,-21.4865,1003.082
2.130144596,0.1976999,0.1220172,-0.09859026,1.728139E-05,-0.000548305,1.00137,36.78918,-13.15065,-20.65804,1003.085
2.149959564,0.1976999,0.0615045,-0.2820776,-0.001911663,-0.002013287,1.003786,36.78918,-13.15065,-20.65804,1003.085
2.169775486,0.1364664,0.0009917939,-0.1597527,-0.002917068,0.0008915083,0.9989799,36.78918,-13.15065,-20.65804,1003.084
2.189590454,0.1976999,0.0615045,-0.09859026,-0.004837261,-7.834658E-05,1.004778,37.15972,-13.14667,-20.65943,1003.084
2.209405899,0.2589334,0.1220172,-0.1597527,-0.001922032,-0.001042953,1.002343,37.15972,-13.14667,-20.65943,1003.081
2.229221821,0.1364664,-0.05952091,-0.2820776,-0.0009543144,-0.002508068,0.9984691,36.42439,-13.52133,-20.65017,1003.081
2.249036789,0.1364664,0.2430426,-0.2820776,-0.004855318,-0.001557869,0.9970472,36.42439,-13.52133,-20.65017,1003.082
2.268851757,0.07523298,0.2430426,-0.1597527,-0.006780983,-0.003020507,1.000429,36.42439,-13.52133,-20.65017,1003.082
2.288667679,0.3201669,0.0615045,-0.2209152,-0.00534435,0.0003931713,0.9994733,36.7826,-12.79238,-21.10787,1003.079
2.308482647,0.1976999,0.3035553,-0.2820776,-0.0004532516,-0.003961637,1.00039,36.7826,-12.79238,-21.10787,1003.079
2.353066921,0.1364664,0.0615045,-0.2209152,-0.005336152,0.0003990303,1.001887,36.4136,-12.78072,-20.28312,1003.08
2.367928982,0.1364664,0.1825299,-0.2209152,-0.006318095,0.000876234,0.9999639,36.4136,-12.78072,-20.28312,1003.079
2.390221596,0.2589334,0.0615045,-0.09859026,-0.005820865,-0.001068947,0.9999512,36.78918,-13.15065,-20.65804,1003.079
2.410036564,0.1364664,0.1825299,-0.3432401,-0.007282002,0.001366327,1.00335,36.78918,-13.15065,-20.65804,1003.078
2.429851532,0.1976999,0.1220172,-0.09859026,-0.001437342,-0.001041608,1.001858,36.79422,-13.52456,-21.03158,1003.078
2.449667454,0.2589334,0.0009917939,-0.2209152,-0.005336129,0.001865663,1.004308,36.79422,-13.52456,-21.03158,1003.08
2.469482422,-0.04723396,0.1220172,-0.1597527,-0.004365711,-0.001553009,0.99801,36.79422,-13.52456,-21.03158,1003.08
2.489297867,0.07523298,0.0009917939,-0.3432401,-0.002905613,-0.0005669212,0.9999378,36.78343,-12.78396,-20.66452,1003.079
2.509113789,0.1364664,-0.05952091,-0.03742781,-0.002904528,-0.001055018,0.9994526,36.78343,-12.78396,-20.66452,1003.079
2.528928757,0.3201669,0.2430426,-0.1597527,-0.007289114,0.000872372,1.000452,36.78343,-12.78396,-20.66452,1003.076
2.548743725,0.0139995,0.1825299,-0.1597527,-0.001953207,-0.00253185,0.9907515,36.78918,-13.15065,-20.65804,1003.076
2.568559647,0.07523298,0.0009917939,-0.2820776,-0.007749233,-0.0005780288,1.005756,36.78918,-13.15065,-20.65804,1003.076
2.588375092,0.2589334,0.1220172,-0.3432401,-0.001448242,0.00090609,1.001868,36.78847,-13.15787,-21.03806,1003.076
2.608190060,0.07523298,0.0615045,-0.1597527,-0.003389217,-0.001056363,0.999938,36.78847,-13.15787,-21.03806,1003.075
2.628005982,0.07523298,0.0615045,-0.2209152,-0.005818162,-0.003022504,0.9975277,36.78847,-13.15787,-21.03806,1003.075
2.650298119,0.2589334,0.0009917939,-0.3432401,-0.001919307,-0.001529878,1.002341,36.79493,-13.51735,-20.65156,1003.075
2.670113564,0.07523298,0.0615045,-0.2820776,-0.003368457,-0.001530398,1.005245,36.79493,-13.51735,-20.65156,1003.075
2.689928532,0.1364664,0.1825299,-0.2820776,-0.001921478,-0.0005536852,1.003311,36.42439,-13.52133,-20.65017,1003.074
2.709744454,0.0139995,0.0009917939,-0.1597527,-0.001987016,0.002332708,0.988846,36.42439,-13.52133,-20.65017,1003.074
2.729559422,0.1364664,0.0009917939,-0.2209152,-0.001947135,0.001383467,0.9989771,36.42439,-13.52133,-20.65017,1003.068
2.749374867,0.1364664,-0.05952091,-0.1597527,-0.005828486,0.0008810944,1.000927,36.41711,-13.17027,-21.48002,1003.068
2.793959618,0.1364664,0.1220172,-0.03742781,-0.003355386,-0.004454288,1.004264,36.41289,-12.78794,-20.66313,1003.067
2.808820725,0.07523298,0.0615045,-0.3432401,-0.002894713,-0.00251462,0.9999278,36.41289,-12.78794,-20.66313,1003.068
2.828636646,0.07523298,0.1220172,-0.2820776,2.215453E-05,-0.003478054,0.9979761,36.41289,-12.78794,-20.66313,1003.068
2.848451615,0.1364664,-0.05952091,-0.1597527,-0.00484054,-8.069002E-05,1.003812,37.4685,-13.14335,-20.66059,1003.065
2.868267536,0.07523298,0.0615045,-0.2820776,-0.0009689794,0.003347917,1.003809,37.4685,-13.14335,-20.66059,1003.065
2.888082504,0.07523298,0.0009917939,0.02373465,-0.004354787,-0.002034074,1.000421,37.16476,-13.52058,-21.03297,1003.062
2.910375118,0.1364664,0.1825299,-0.1597527,0.0005281363,-0.004928109,1.001345,37.16476,-13.52058,-21.03297,1003.062
2.930190087,0.1364664,0.0615045,-0.1597527,-0.004871137,0.0003863138,0.9956093,37.16476,-13.52058,-21.03297,1003.061
2.950005532,0.1364664,0.1220172,-0.2209152,-0.003419748,0.003810538,0.9989976,36.42439,-13.52133,-20.65017,1003.061
2.969821453,0.3201669,0.364068,-0.4044026,-0.002927414,0.003328475,0.9999579,36.42439,-13.52133,-20.65017,1003.06
2.989636421,0.1976999,0.0615045,-0.1597527,-0.003409955,0.0008843045,0.9970519,36.04153,-12.80034,-21.1051,1003.06
3.009452343,0.07523298,0.0615045,-0.3432401,-0.003896239,0.003815053,1.001897,36.04153,-12.80034,-21.1051,1003.061
3.029267311,0.07523298,0.0615045,-0.3432401,-0.004344373,-7.114233E-05,1.006706,36.04153,-12.80034,-21.1051,1003.061
3.049082279,0.1364664,0.1220172,-0.1597527,-0.003879335,0.001382773,1.002849,36.42356,-13.52975,-21.09352,1003.06
3.068898201,0.0139995,0.1825299,-0.09859026,-0.00533839,-0.003024675,0.9955943,36.42356,-13.52975,-21.09352,1003.06
3.088713646,0.07523298,0.2430426,-0.2820776,-0.005329639,-0.002529548,0.9989755,36.41711,-13.17027,-21.48002,1003.059
3.108528614,0.3201669,0.1220172,-0.2209152,-0.001428613,-0.002013114,1.002818,36.41711,-13.17027,-21.48002,1003.059
3.128344536,0.1976999,0.364068,-0.1597527,0.002924934,0.003370395,1.004753,36.41711,-13.17027,-21.48002,1003.06
3.148159504,0.07523298,0.3035553,-0.3432401,-0.003895731,0.001371055,0.9980224,36.43014,-13.88803,-20.64369,1003.06
3.167975426,0.1364664,0.0615045,-0.3432401,-0.005299594,-0.00348582,1.006211,36.43014,-13.88803,-20.64369,1003.059
3.190267086,0.07523298,0.0615045,-0.1597527,-0.006314307,-0.001565419,0.9970552,36.42439,-13.52133,-20.65017,1003.059
3.232375622,0.2589334,0.1825299,-0.2209152,-0.004847674,-0.002041278,0.9984928,36.42439,-13.52133,-20.65017,1003.058
3.249713898,0.07523298,0.1825299,-0.4044026,-0.002911109,-0.002526338,0.995101,36.79564,-13.51013,-20.27154,1003.059
3.269528866,0.07523298,0.0009917939,-0.3432401,-0.004358598,-0.001059053,1.000909,36.79564,-13.51013,-20.27154,1003.059
3.289344311,0.2589334,0.1220172,-0.2820776,-0.009224616,-0.0005972972,1.000938,37.17039,-13.88848,-21.08982,1003.054
3.309160233,0.2589334,0.1825299,-0.2209152,-0.00192746,0.001397528,1.004769,37.17039,-13.88848,-21.08982,1003.054
3.328975201,0.1364664,0.1825299,-0.1597527,-0.005325229,-8.203508E-05,1.004298,37.17039,-13.88848,-21.08982,1003.053
3.348791123,0.1976999,0.0615045,-0.2209152,-0.0043837,0.001367367,0.9975424,36.79411,-13.52577,-21.09491,1003.053
3.368606091,0.2589334,0.1825299,-0.1597527,-0.006793479,0.001859284,1.004798,36.79411,-13.52577,-21.09491,1003.052
3.388421059,0.1364664,0.1220172,-0.2209152,-0.005828531,-0.002052171,0.9960847,36.05303,-13.53373,-21.09214,1003.052
3.408236981,0.1363763,0.2428516,-0.2818311,-0.002923072,0.001376089,0.9980171,36.05303,-13.53373,-21.09214,1003.051
3.428052425,0.0747044,0.1818622,-0.2812963,-0.006320312,-0.001080838,0.9960924,36.05303,-13.53373,-21.09214,1003.051
3.450344563,0.1355924,0.1209878,-0.2806746,-0.002424203,-0.00056792,0.9984871,37.16464,-13.52178,-21.0963,1003.05
3.470160008,0.1352904,0.1207601,-0.280066,-0.006819135,0.003796436,1.000464,37.16464,-13.52178,-21.0963,1003.05
3.489975453,0.1348931,0.3020141,-0.2182773,-0.004350977,-0.003009095,0.9999332,36.0481,-13.15862,-20.65526,1003.049
3.509790897,0.07332101,0.1201356,-0.1565669,-0.004375525,-9.34063E-05,0.9975349,36.0481,-13.15862,-20.65526,1003.049
3.529606819,0.07300241,0.05926435,-0.2172403,-0.006324654,0.0008715467,0.9980331,36.0481,-13.15862,-20.65526,1003.049
3.549421787,0.1951898,0.179989,-0.2166566,0.002928677,-0.002004523,0.9970024,36.41864,-13.15463,-20.65665,1003.049
3.569236756,0.01111476,0.1190625,-0.2160167,-0.005338323,0.001375223,1.002857,36.41864,-13.15463,-20.65665,1003.05
3.589052677,0.1331887,0.3003587,-0.2767904,-0.004867281,0.002344558,0.9999635,36.41781,-13.16306,-21.10001,1003.05
3.608867645,0.1940493,0.05785769,-0.2150098,-0.004370583,0.001376741,1.001404,36.41781,-13.16306,-21.10001,1003.049
3.628683567,0.1325016,0.05765545,-0.2755941,-0.0009733667,0.002367037,1.000908,36.41781,-13.16306,-21.10001,1003.049
3.673267841,0.07052056,0.2386982,-0.02983099,-0.008748679,-0.001091079,0.997071,36.42356,-13.52975,-21.09352,1003.05
3.688129902,0.1926432,0.2383247,-0.2741366,-0.004367858,0.0008898167,1.001401,36.42356,-13.52975,-21.09352,1003.049
3.707944870,0.1311184,0.1774036,-0.151258,3.633089E-06,0.0004196849,0.9989614,36.80139,-13.87683,-20.26506,1003.049
3.730237484,0.191828,0.1164659,-0.02844843,-0.004367858,0.0008898167,1.001401,36.80139,-13.87683,-20.26506,1003.048
3.750052929,0.068841,0.1163635,-0.08921309,-0.00290014,-7.41377E-05,1.002354,36.41864,-13.15463,-20.65665,1003.048
3.769868374,0.1297479,0.2975145,-0.2110453,3.855047E-05,-0.003466336,1.002803,36.41864,-13.15463,-20.65665,1003.047
3.789683342,0.1294414,0.2365587,-0.2714859,-0.002415451,-7.279264E-05,1.001868,36.41864,-13.15463,-20.65665,1003.047
3.809499264,-0.05464165,0.2360978,0.09615122,-0.002891434,-0.002512276,1.000893,36.79493,-13.51735,-20.65156,1003.048
3.829314232,0.1900835,0.2961507,-0.3314403,-0.00388751,0.002843547,1.002857,36.79493,-13.51735,-20.65156,1003.048
3.849130154,0.1285458,0.1143059,-0.2085521,-0.004863494,-9.709504E-05,0.9970548,36.79985,-13.89246,-21.08843,1003.048
3.868945599,0.1282998,0.05339232,-0.1468853,-0.003387024,-0.0005659231,1.001388,36.79985,-13.89246,-21.08843,1003.048
3.888761044,0.005472338,0.1136001,-0.2074486,-0.003391897,0.002363826,1.004782,36.79985,-13.89246,-21.08843,1003.048
3.908576489,0.06644226,0.05272627,-0.08458367,-0.001959143,0.002352629,0.9970515,36.0481,-13.15862,-20.65526,1003.048
3.928391934,0.06614076,0.2338471,-0.26759,-0.001924757,-0.0005560287,1.002346,36.0481,-13.15862,-20.65526,1003.048
3.948207379,0.1270159,0.1729561,-0.3281958,-0.002433464,0.00138095,0.9989797,36.42356,-13.52975,-21.09352,1003.048
3.968022347,0.06552118,0.2330346,-0.2053924,-0.001423717,-0.00347623,1.001845,36.42356,-13.52975,-21.09352,1003.047
3.990314960,0.1875149,0.05106628,-0.2047932,-0.00437444,-0.0005815027,0.9970496,36.42356,-13.52975,-21.09352,1003.047
4.010130882,0.06478857,0.1718116,-0.1431166,-0.005318693,-0.001543981,1.003807,36.78918,-13.15065,-20.65804,1003.052
4.029945850,0.06460676,0.1110384,-0.08147969,-0.002408893,-6.810552E-05,1.003799,36.78918,-13.15065,-20.65804,1003.052
4.049761772,0.1868154,-0.07077847,-0.2643785,-0.004849291,-0.0005758172,1.000431,36.78835,-13.15907,-21.10139,1003.047
4.069576740,0.1252091,0.05015868,-0.2639644,-0.004830215,-0.003984289,1.000413,36.78835,-13.15907,-21.10139,1003.047
4.114161491,0.1242916,0.1098387,-0.1403038,-0.0009772005,0.001875425,0.9989743,37.16464,-13.52178,-21.0963,1003.05
4.129023075,0.001590623,0.1095748,-0.1400011,-0.002886538,-0.003975393,0.9999202,37.16464,-13.52178,-21.0963,1003.051
4.148838520,0.1237269,0.1092998,-0.07831442,-0.003406676,0.000886648,0.9980173,36.41781,-13.16306,-21.10001,1003.051
4.168653965,0.06227896,0.04843676,-0.1390883,-0.002391457,-0.003477749,1.003299,36.41781,-13.16306,-21.10001,1003.05
4.188469887,0.000754687,0.2297773,-0.3222073,-0.005817631,-0.003999868,0.9960747,36.41781,-13.16306,-21.10001,1003.05
4.208284855,0.0005990099,0.04787132,-0.1382951,-0.002917091,-0.0005751241,0.996559,36.80068,-13.88404,-20.64508,1003.047
4.228100777,0.2453199,0.1686056,-0.32132,-0.007801077,0.004273639,0.9985414,36.80068,-13.88404,-20.64508,1003.047
4.247915745,0.1224101,0.04725191,-0.0151426,-0.004397348,0.002335357,0.9951341,36.41781,-13.16306,-21.10001,1003.046
4.270208359,0.1221028,0.16784,-0.136945,-0.006307194,-0.001071464,0.9999539,36.41781,-13.16306,-21.10001,1003.046
4.290023327,0.183145,0.3488998,-0.136486,-0.007792371,0.001835502,0.9970807,36.41781,-13.16306,-21.10001,1003.045
4.309839249,0.0603721,0.0458402,-0.2583722,-0.001449905,-0.0005617146,0.9989644,36.79411,-13.52577,-21.09491,1003.045
4.329654217,-0.1848862,0.2270923,-0.07437065,-0.003381574,-0.001539772,1.001383,36.79411,-13.52577,-21.09491,1003.044
4.349470139,0.05987762,0.04513594,-0.257345,-0.002417645,-0.0005632329,1.000418,36.80068,-13.88404,-20.64508,1003.044
4.369285107,0.1822135,0.2868454,-0.07338427,-0.001922032,-0.001042953,1.002343,36.80068,-13.88404,-20.64508,1003.043
4.389101029,0.120734,0.1048341,-0.1340937,-0.00290723,0.0008985393,1.001876,36.80068,-13.88404,-20.64508,1003.043
4.408915997,0.1816835,0.1650077,-0.194977,-0.006317009,0.0003881375,0.9994786,36.41206,-12.79636,-21.10649,1003.044
4.428731918,0.1200516,0.04360613,-0.1945835,-0.00385481,-0.002999547,1.002826,36.41206,-12.79636,-21.10649,1003.044
4.448547363,0.1197502,-0.07779461,-0.1329134,-0.001474453,0.002353973,0.9965662,36.79411,-13.52577,-21.09491,1003.046
4.468362808,0.1194304,0.0428944,-0.1936846,-0.004860723,0.002349245,1.001894,36.79411,-13.52577,-21.09491,1003.046
4.488178253,0.1192075,0.1637171,-0.1319975,-0.0009521204,-0.002017628,0.9999197,36.79411,-13.52577,-21.09491,1003.046
4.532763004,0.1183626,0.1625282,-0.3142994,0.001481211,0.0009293937,1.005231,36.79493,-13.51735,-20.65156,1003.049
4.550101757,0.1792975,0.04120269,-0.1303519,-0.004853125,-0.001067429,0.9984978,37.15397,-12.77997,-20.66591,1003.049
4.569916725,0.05645738,0.04098535,-0.1297559,-0.004843287,-0.001060398,1.001394,37.15397,-12.77997,-20.66591,1003.052
4.589732647,0.05629639,-0.01982015,-0.3128023,-0.002417114,-0.001540598,0.9989647,37.15397,-12.77997,-20.66591,1003.052
4.609547615,-0.005251376,0.2218056,-0.128952,-0.004388619,0.001363852,0.9960944,36.41781,-13.16306,-21.10001,1003.052
4.629363537,0.2394074,0.160907,-0.128513,-0.004853125,-0.001067429,0.9984978,36.41781,-13.16306,-21.10001,1003.052
4.649178505,0.1778227,0.2209397,-0.1280559,-0.005348715,0.0008789239,0.9989932,36.7826,-12.79238,-21.10787,1003.053
4.668994427,0.2998623,0.2205939,-0.2500018,-0.007273273,0.0003948216,1.004311,36.7826,-12.79238,-21.10787,1003.053
4.688809395,0.1155821,0.2200021,-0.1272604,-0.004844904,0.0004050625,1.003332,36.7826,-12.79238,-21.10787,1003.054
4.708625317,0.2377781,0.2195827,-0.249285,-0.003869589,-0.004476726,0.9960616,36.41935,-13.14742,-20.27663,1003.054
4.728440762,0.1761782,0.09834792,-0.248832,-0.005814307,-0.00106426,1.001882,36.41935,-13.14742,-20.27663,1003.059
4.748256207,0.1145986,0.098025,-0.2484185,-0.0004761603,-0.001044777,0.998474,36.41935,-13.14742,-20.27663,1003.059
4.768071652,0.3592447,0.0374942,-0.2480637,-0.003869543,-0.001543461,1.000903,36.42861,-13.90366,-21.46706,1003.056
4.790363789,-0.1309649,-0.0232573,-0.1862392,-0.004343333,-0.003492504,1.001379,36.42861,-13.90366,-21.46706,1003.056
4.810179711,0.1750123,0.1581112,-0.1244939,-0.007747616,-0.00204349,1.003818,36.78835,-13.15907,-21.10139,1003.057
4.829994679,0.3584272,0.09729655,-0.2464678,-0.003424135,0.002829659,0.9960967,36.78835,-13.15907,-21.10139,1003.057
4.849810600,0.1130931,0.157565,-0.1848977,-0.003379957,-0.003005233,0.9994451,36.78835,-13.15907,-21.10139,1003.056
4.869626045,0.2351224,0.09669463,-0.3067967,-0.0009799483,0.0008957169,0.996556,36.06453,-14.26712,-21.07918,1003.056
4.889441490,0.1121805,0.09629993,-0.1839895,-0.002396376,-0.003481264,1.001851,36.06453,-14.26712,-21.07918,1003.055
4.909256935,0.2956954,0.03548848,-0.2446709,-0.004376633,-0.001071943,0.9955991,36.41289,-12.78794,-20.66313,1003.055
4.929072857,0.05053809,0.1561398,-0.1219429,-0.00487929,0.00331372,0.9980378,36.41289,-12.78794,-20.66313,1003.055
4.973657608,0.1110452,0.03463208,-0.4267415,-0.0048722,0.002341043,0.9985155,36.41781,-13.16306,-21.10001,1003.055
4.988518715,0.1108361,0.1555352,-0.0593087,-0.005364556,0.001356474,0.9951344,36.41781,-13.16306,-21.10001,1003.055
5.008334637,0.04949729,0.09482208,-0.2423209,-0.003897925,0.0008806156,0.9965718,35.67099,-12.80433,-21.10371,1003.055
5.028149605,-0.01209094,0.1550397,-0.1193685,0.002463085,-0.003947707,0.999891,35.67099,-12.80433,-21.10371,1003.055
5.047965527,-0.01248339,0.2152201,-0.2412017,-0.008245953,-0.001076845,1.001895,35.67099,-12.80433,-21.10371,1003.058
5.070258141,-0.07395072,0.09385283,-0.2406549,-0.003863562,-0.003494674,0.9994453,36.04728,-13.16704,-21.09862,1003.058
5.090073109,0.04820219,0.09352226,-0.2401658,-0.001454246,0.001390671,1.000905,36.04728,-13.16704,-21.09862,1003.059
5.109889030,0.109257,-0.08825065,-0.3619646,-0.002394159,-0.001524192,1.005722,37.15972,-13.14667,-20.65943,1003.059
5.129703999,0.1088867,0.2142305,-0.2391916,-0.007782556,0.0003758997,0.997556,37.15972,-13.14667,-20.65943,1003.058
5.149519920,0.1086518,0.2139207,-0.1776398,-0.003415383,0.003324786,0.9994779,37.15972,-13.14667,-20.65943,1003.058
5.169334888,0.1083021,0.1531367,-0.1160122,-0.004334004,-0.001041476,1.008149,36.78835,-13.15907,-21.10139,1003.059
5.189150810,0.169206,0.213322,-0.2380266,-0.004353125,-0.0005662695,1.003325,36.78835,-13.15907,-21.10139,1003.059
5.208965778,0.1689158,0.1525966,-0.1152576,-0.003424135,0.002829659,0.9960967,36.78906,-13.15185,-20.72138,1003.06
5.228781700,0.2299367,0.09187162,0.007471815,-0.003861345,-0.001537602,1.003317,36.78906,-13.15185,-20.72138,1003.06
5.248597145,0.2908042,0.2125714,-0.2979369,-0.002878849,-0.001525537,1.006207,36.78906,-13.15185,-20.72138,1003.064
5.268412590,0.04548621,-0.02988015,-0.1139895,-0.005829018,0.001858459,1.00238,36.05878,-13.90043,-21.08566,1003.064
5.288228035,0.1676275,0.03042265,-0.1748658,-0.007261818,-0.001063608,1.005268,36.05878,-13.90043,-21.08566,1003.063
5.308043480,0.04481662,0.1512577,-0.05210194,-0.008745931,-0.000111371,0.9994894,36.04799,-13.15982,-20.7186,1003.063
5.330336094,0.2281983,0.1510773,0.07063885,-0.006311027,-0.001563076,0.9980205,36.04799,-13.15982,-20.7186,1003.064
5.350151062,0.1665457,0.150888,-0.2960333,-0.00388975,-0.0005801579,0.9965643,36.04799,-13.15982,-20.7186,1003.064
5.369966984,0.105144,0.2111548,0.01021493,-0.001924226,-0.001533393,1.000893,36.79411,-13.52577,-21.09491,1003.063
5.414552212,0.1045515,-0.03149873,-0.2335725,-0.005823013,0.001373878,1.003343,36.42439,-13.52133,-20.65017,1003.068
5.429413319,0.1042392,-0.0316294,-0.1109805,-0.00241873,-7.513631E-05,1.000903,36.42439,-13.52133,-20.65017,1003.068
5.449229241,0.1650765,0.0286589,-0.1715764,0.0004784856,0.0004139994,0.9955801,36.42439,-13.52133,-20.65017,1003.068
5.469044209,0.1035246,0.08913772,0.01228422,-0.003397901,0.002848407,1.003819,36.78835,-13.15907,-21.10139,1003.068
5.488860130,0.286869,0.08868597,-0.2320316,-0.006324122,-0.0001058178,0.9965801,36.78835,-13.15907,-21.10139,1003.069
5.508675575,0.04154151,0.02795061,-0.1092778,-0.005809941,-0.001550013,1.002362,36.78835,-13.15907,-21.10139,1003.069
5.528491020,0.1636928,0.1486588,-0.1089267,-0.0014548,0.0009014029,0.9999374,36.78835,-13.15907,-21.10139,1003.072
5.548306942,0.1021061,0.08782996,-0.1697197,-0.003399563,0.001380603,1.000916,36.78835,-13.15907,-21.10139,1003.072
5.568121910,0.2855501,-0.03337792,0.07529856,-0.0004706644,0.000914639,1.003311,36.42439,-13.52133,-20.65017,1003.071
5.587937832,0.04022604,0.08744639,-0.1689835,-0.0048204,-0.005443891,1.000889,36.42439,-13.52133,-20.65017,1003.071
5.610229969,0.03984333,0.1477692,-0.1686215,-0.006317541,0.001365502,1.000932,37.15972,-13.14667,-20.65943,1003.07
5.630045414,-0.02162473,0.08711343,-0.2295142,-0.006780983,-0.003020507,1.000429,37.15972,-13.14667,-20.65943,1003.07
5.649861336,0.1004928,0.2682808,-0.106709,-0.006288073,-0.001546671,1.004778,37.15972,-13.14667,-20.65943,1003.07
5.669676304,-0.02214947,0.08641106,-0.1064987,1.836708E-05,-0.001036401,1.000885,36.79482,-13.51855,-20.7149,1003.07
5.689492226,-0.02236292,0.1467448,-0.1061545,-0.001932424,-0.001539252,0.9984794,36.79482,-13.51855,-20.7149,1003.07
5.709307194,0.1610669,-0.0955604,-0.2281553,-0.002408915,-0.001534739,1.001378,36.79985,-13.89246,-21.08843,1003.07
5.729123116,-0.08425213,0.08574279,-0.1664392,-0.001967341,0.00234677,0.9946381,36.79985,-13.89246,-21.08843,1003.074
5.748938084,0.2216848,-0.03547882,-0.1660406,-0.005322526,-0.002035593,1.001874,36.79985,-13.89246,-21.08843,1003.074
5.768754006,0.2213397,0.02474295,-0.2268437,-0.004835665,-0.00301044,1.000418,37.16464,-13.52178,-21.0963,1003.073
5.788569927,0.0984132,0.1454214,-0.3486759,-0.003405059,-0.0005788126,0.996079,37.16464,-13.52178,-21.0963,1003.073
5.808384896,0.0982046,0.1450754,-0.2869836,-0.004870052,-0.0001017821,0.9951242,37.16535,-13.51457,-20.71629,1003.072
5.852969647,0.1589036,0.1444845,-0.2250461,-0.0009777544,0.001386157,0.9980065,37.16535,-13.51457,-20.71629,1003.073
5.870308399,0.09743641,-0.03735207,-0.1636196,0.001958788,0.0004367835,1.001847,37.52521,-12.76878,-20.28728,1003.073
5.890124321,0.09717248,0.1439759,-0.1018737,-0.004869498,0.0003874856,0.996092,37.52521,-12.76878,-20.28728,1003.072
5.909939289,0.09712076,0.1437664,0.0208798,-0.002395267,-0.002502728,1.003786,37.16535,-13.51457,-20.71629,1003.072
5.929755211,-0.02574383,0.08300674,-0.1625064,-0.003338482,-0.006886567,1.005217,37.16535,-13.51457,-20.71629,1003.071
5.949570179,0.27995,0.2039376,-0.1009745,-0.003905014,0.001853293,0.9960943,37.16535,-13.51457,-20.71629,1003.071
5.969386101,0.09577742,0.08264723,-0.1618259,-0.007272232,-0.003026539,0.9989836,36.78906,-13.15185,-20.72138,1003.07
5.989202023,-0.02691081,0.1429334,-0.1002764,-0.002429145,-0.002038068,0.9946181,36.78906,-13.15185,-20.72138,1003.07
6.009016991,0.09546986,0.263714,-0.09994785,-0.0009881007,0.003823123,0.9989844,36.78906,-13.15185,-20.72138,1003.072
6.028832912,0.09521102,0.2028431,-0.1606675,-0.001932955,-0.0005618876,0.9999325,36.79493,-13.51735,-20.65156,1003.072
6.048647881,0.1561286,-0.03945111,-0.1602834,-0.00679842,0.0003891359,1.000929,36.79493,-13.51735,-20.65156,1003.073
6.068463802,0.03334663,-0.03967496,-0.09883369,-0.004341139,-0.003002064,1.002829,37.1596,-13.14787,-20.72276,1003.073
6.088278770,0.09418897,0.08127901,-0.3431394,-0.002443301,0.001373919,0.9960838,37.1596,-13.14787,-20.72276,1003.074
6.108094692,0.155186,0.02069514,-0.2814611,-0.004835134,-0.003987805,0.9989653,37.1596,-13.14787,-20.72276,1003.074
6.127910614,0.2161261,0.1415356,-0.1586215,-0.006807126,0.002827274,1.00239,37.17122,-13.88006,-20.64647,1003.073
6.150203228,0.154609,0.02012954,-0.2194704,-0.005836684,0.0008752354,0.9985132,37.17122,-13.88006,-20.64647,1003.073
6.170018196,0.03184999,0.2014842,-0.2191498,0.001952761,-0.0005452679,0.9984633,37.16464,-13.52178,-21.0963,1003.07
6.189834118,-0.02967491,0.2012632,0.02593498,-0.008731751,-0.002056726,1.000445,37.16464,-13.52178,-21.0963,1003.07
6.209649086,0.09252055,0.1405112,0.02634976,-0.006782645,-0.004488311,0.9975255,37.16464,-13.52178,-21.0963,1003.07
6.229465008,0.03111236,0.01913296,-0.1568966,-0.002906168,-0.00105619,0.9989699,36.78906,-13.15185,-20.72138,1003.07
6.249279976,0.03086117,0.2610218,-0.1564067,-0.003411063,-9.423145E-05,0.9951162,36.78906,-13.15185,-20.72138,1003.071
6.293865681,-0.03052706,0.07895952,-0.03302709,-0.00241492,-0.001050157,1.000415,36.7826,-12.79238,-21.10787,1003.072
6.308726788,-0.03062336,-0.1027654,0.02844718,-0.005843797,0.00038128,0.9956146,36.7826,-12.79238,-21.10787,1003.072
6.328542709,0.03045634,0.07870781,-0.03232601,-0.004860723,0.002349245,1.001894,36.78414,-12.77674,-20.2845,1003.071
6.348357678,0.09142125,0.01799753,-0.09317694,-0.003862431,-0.001049505,1.003802,36.78414,-12.77674,-20.2845,1003.071
6.368173599,0.152502,0.320326,0.02955473,-0.007770016,-0.001570626,0.9980285,36.78989,-13.14343,-20.27802,1003.07
6.387989521,0.09103955,-0.04294651,-0.1536804,-0.004337883,-0.004466353,1.001374,36.78989,-13.14343,-20.27802,1003.07
6.410281658,0.02949127,-0.04318604,-0.09212246,-0.003866241,-7.448439E-05,1.00429,36.78989,-13.14343,-20.27802,1003.071
6.430097103,0.1519418,0.1985933,-0.03072864,-0.006275556,-0.004959829,1.00283,37.16535,-13.51457,-20.71629,1003.071
6.449913025,0.1516372,-0.04372816,-0.09152593,-0.004382061,0.001368539,0.9980251,37.16535,-13.51457,-20.71629,1003.07
6.469727993,0.09011918,0.07700823,-0.1522475,-0.005818672,-0.0005785075,1.001402,37.16535,-13.51457,-20.71629,1003.07
6.489543915,0.02871704,0.07683389,-0.2129126,-0.007766205,-0.002545647,0.9975408,37.16535,-13.51457,-20.71629,1003.068
6.509358883,0.2120763,0.1372488,-0.09024516,-0.003894114,-9.440491E-05,0.9960842,37.16535,-13.51457,-20.71629,1003.068
6.529174805,0.1505218,0.07654341,-0.1510467,-0.005826824,0.002348899,1.00383,36.78835,-13.15907,-21.10139,1003.068
6.548990727,0.08906429,0.136883,-0.02845768,4.164875E-06,-0.000557679,0.9975085,36.78835,-13.15907,-21.10139,1003.068
6.568805695,-0.09501342,0.01568479,-0.02817516,-0.000960873,-0.002512755,0.9965383,37.1596,-13.14787,-20.72276,1003.068
6.588621617,-0.09510167,0.07596821,-0.08903658,-0.0009569936,0.0009121222,1.003314,37.1596,-13.14787,-20.72276,1003.068
6.608436585,0.1497057,0.01530278,-0.3945678,-0.001452075,0.0004144781,0.9999349,37.1596,-13.14787,-20.72276,1003.069
6.628252506,0.2106401,0.1964226,-0.2108193,-0.006325716,0.002826276,1.000939,37.16535,-13.51457,-20.71629,1003.069
6.648068428,0.02668,0.1355306,-0.08817622,-0.001929699,-0.002026177,0.9984769,37.16535,-13.51457,-20.71629,1003.068
6.667883396,-0.03477424,0.01422193,-0.08778211,-0.007765075,-0.0001004785,1.001898,36.43002,-13.88923,-20.70703,1003.068
6.690176010,0.1488515,0.3165553,-0.1485815,-0.001944433,-0.0005700905,0.9965537,36.43002,-13.88923,-20.70703,1003.07
6.734760761,0.1482422,0.07387622,-0.1478782,-0.001915982,0.001405731,1.008148,37.15467,-12.77276,-20.28589,1003.071
6.749622822,-0.03566051,-0.04742129,-0.2087621,-0.008752998,0.002327938,1.001433,37.15467,-12.77276,-20.28589,1003.071
6.769438267,0.1480333,0.2549004,-0.2083532,-0.002422564,-0.0005667484,0.9989697,36.78906,-13.15185,-20.72138,1003.066
6.789253712,0.08650515,0.2544694,-0.2079453,-0.006294654,-0.00301799,1.000426,36.78906,-13.15185,-20.72138,1003.066
6.809069634,0.02505451,0.1332799,-0.08529034,-0.005853035,0.003796782,0.9985283,36.78906,-13.15185,-20.72138,1003.064
6.828885079,0.2697525,0.1329075,-0.2683907,-0.007771079,0.0003841021,1.000935,36.05949,-13.89321,-20.70564,1003.064
6.848700524,0.08575932,0.2536753,-0.3293978,-0.007291884,-0.001573968,0.9956124,36.05949,-13.89321,-20.70564,1003.063
6.868515969,0.02432983,0.1930006,-0.2066491,-0.003370651,-0.002020838,1.003794,36.78906,-13.15185,-20.72138,1003.063
6.888331413,0.2079307,0.1322502,-0.145179,-0.005815414,-0.002042796,0.9999462,36.78906,-13.15185,-20.72138,1003.063
6.908147335,0.2079084,0.07150039,-0.0225665,-0.001911686,-0.003479919,1.001365,36.78906,-13.15185,-20.72138,1003.063
6.927962780,0.02403193,-0.04970453,-0.08340358,-0.009231152,0.0008646478,1.001428,36.80056,-13.88524,-20.70842,1003.062
6.950255394,0.02377197,0.1921448,-0.08314883,-0.003865733,-0.002518482,1.000416,36.80056,-13.88524,-20.70842,1003.062
6.970070362,0.3296874,0.01023818,-0.0827865,-0.002914897,-8.4684E-05,0.9980096,37.1711,-13.88126,-20.7098,1003.061
6.989886284,0.02309603,0.1310099,-0.02128178,-0.001911132,-0.002990651,1.002333,37.1711,-13.88126,-20.7098,1003.061
7.009702206,-0.03832988,0.07020628,-0.1432654,-0.006314861,-0.002054688,0.9960874,37.1711,-13.88126,-20.7098,1003.062
7.029517174,-0.09983233,0.1910934,-0.2040682,-0.006807149,0.001360642,0.9999691,36.42427,-13.52253,-20.71351,1003.062
7.049333096,0.08369586,0.1304238,-0.1426237,-0.008745953,-0.001578004,0.9970685,36.42427,-13.52253,-20.71351,1003.061
7.069148064,-0.03892348,-0.1118025,-0.08110323,-0.001936235,-0.0005642315,0.9989671,36.42427,-13.52253,-20.71351,1003.061
7.088963985,-0.03901792,0.009009764,-0.08082282,-0.005802852,-0.00252269,1.00284,37.1596,-13.14787,-20.72276,1003.062
7.108779907,0.1444729,0.06930998,-0.2027721,-0.009238819,-0.0001185751,0.9975614,37.1596,-13.14787,-20.72276,1003.062
7.128594875,0.2053436,0.06907889,-0.2026662,-0.007262926,-0.002042145,1.003333,37.1596,-13.14787,-20.72276,1003.061
7.173180103,0.08229442,0.008081757,0.04266655,-0.007766714,-0.0001016506,1.001415,36.79564,-13.51013,-20.27154,1003.062
7.188041687,0.1434114,0.1894906,-0.2630341,-0.007753043,0.0003969918,1.006244,36.79564,-13.51013,-20.27154,1003.062
7.210334301,-0.1019083,-0.05281047,-0.0178718,-0.005332387,-0.003509256,0.9965572,36.79564,-13.51013,-20.27154,1003.062
7.230150223,0.1428778,0.0680626,-0.139864,-0.005799041,-0.00349771,1.002352,36.04728,-13.16704,-21.09862,1003.062
7.249966145,0.08147797,0.1283854,-0.0783504,-0.008760665,0.001344715,0.9975663,36.04728,-13.16704,-21.09862,1003.063
7.269781113,0.02013606,0.007151648,-0.3227651,-0.004340608,-0.003979429,1.001376,36.04728,-13.16704,-21.09862,1003.063
7.289597035,-0.04134011,0.1280642,-0.1388704,-0.004835621,-7.717474E-05,1.00526,36.77685,-12.42568,-21.11435,1003.064
7.309412003,0.01972806,0.06741989,-0.1997035,-0.007275488,-0.001562251,1.000439,36.77685,-12.42568,-21.11435,1003.064
7.329227924,-0.04192006,0.1884089,0.04531325,-0.009229535,-0.0006008125,0.9994895,37.16464,-13.52178,-21.0963,1003.064
7.349043846,0.08038303,0.0671194,-0.1991048,-0.003868458,-0.002031557,1.000418,37.16464,-13.52178,-21.0963,1003.064
7.368858814,0.08018123,0.1274635,-0.01529034,-0.006798974,-0.0001001318,0.9999616,37.16464,-13.52178,-21.0963,1003.061
7.388674736,0.1412902,0.006080184,0.04614083,-0.004835134,-0.003987805,0.9989653,36.80056,-13.88524,-20.70842,1003.061
7.408490181,0.2022267,0.1270523,-0.01479194,-0.005833936,0.001854943,1.000932,36.80056,-13.88524,-20.70842,1003.063
7.428305626,0.07946345,0.1268283,-0.1369069,0.0009948362,-0.002006389,1.000392,36.41852,-13.15584,-20.71999,1003.063
7.448121548,0.07928322,-0.2364524,-0.1978025,-0.005346498,0.002835996,1.002865,36.41852,-13.15584,-20.71999,1003.063
7.467936993,0.0791034,0.1266856,-0.0139145,-0.002922541,0.0003987248,0.996564,36.41852,-13.15584,-20.71999,1003.063
7.490229607,0.2625419,0.06598592,-0.0137024,-0.007746021,-0.004975582,0.9994589,36.04728,-13.16704,-21.09862,1003.063
7.510044575,0.1398386,0.005326532,-0.1357625,-0.005829085,-0.002541438,0.9951169,36.04728,-13.16704,-21.09862,1003.063
7.529860497,0.07838853,0.06561691,-0.1355368,-0.001936766,0.0004131328,1.00042,36.41852,-13.15584,-20.71999,1003.062
7.549676418,0.01707362,0.1865346,-0.1351966,-0.00290723,0.0008985393,1.001876,36.41852,-13.15584,-20.71999,1003.062
7.747831822,0.1380316,-0.05763052,-0.1322011,-0.005799019,-0.002031079,1.004773,36.80714,-14.24352,-20.25858,1003.068
7.750308991,0.07675479,0.06341298,-0.1321596,-0.005806708,-0.004480934,0.9984856,36.80714,-14.24352,-20.25858,1003.068
7.770124436,0.1376994,0.1236526,0.05162115,-0.00392081,0.005264108,0.9970772,36.80714,-14.24352,-20.25858,1003.067
7.789939881,0.1373921,0.3048613,0.05179872,-0.006318139,-0.002057031,0.995122,37.1596,-13.14787,-20.72276,1003.067
7.809755802,0.1984536,0.06267179,-0.1315499,-0.001959697,0.00186336,0.9960837,37.1596,-13.14787,-20.72276,1003.068
7.829571247,0.01448565,0.1228751,-0.1924397,-0.00338319,-7.431116E-05,1.003322,36.8049,-14.26637,-21.46197,1003.068
7.849386692,0.1367625,0.1225097,-0.06995797,-0.001959674,0.003329993,0.9985046,36.8049,-14.26637,-21.46197,1003.067
7.869202614,0.01402914,0.06178441,-0.06978235,-0.003895708,0.002837688,1.000443,36.8049,-14.26637,-21.46197,1003.067
7.889018059,0.01393629,-0.05947208,-0.008329578,-0.0009717504,0.0009015759,0.9989693,37.15314,-12.78839,-21.10926,1003.066
7.908833504,-0.04750516,0.06147472,0.05294974,-0.002428591,-0.0015488,0.995586,37.15314,-12.78839,-21.10926,1003.066
7.928649426,0.1973366,-0.05983792,-0.06920091,-0.00337938,-0.001049332,1.002834,36.78906,-13.15185,-20.72138,1003.065
7.948464394,0.1358961,0.06116675,-0.1912369,-0.003898479,0.0003913476,0.995604,36.78906,-13.15185,-20.72138,1003.065
7.968280316,-0.04804935,-0.0601831,-0.1297479,-0.005368344,0.003798128,0.9980429,36.78906,-13.15185,-20.72138,1003.064
7.988096237,-0.0482169,0.181639,-0.06829805,-0.001941639,0.003342883,1.003814,36.78331,-12.78516,-20.72786,1003.064
8.007911205,0.01288785,0.06046153,-0.1904514,-0.002913211,0.002849753,1.003334,36.78331,-12.78516,-20.72786,1003.065
8.030204296,-0.04857419,-0.1211904,-0.006502971,-0.01065742,-0.003519364,1.003826,36.78331,-12.78516,-20.72786,1003.065
8.050019741,0.1349406,-0.0002405234,-0.1895709,-0.004850976,-0.003510254,0.9951065,36.78331,-12.78516,-20.72786,1003.065
8.069835663,0.01217334,0.06023477,-0.06705808,-0.003393582,-0.0005706099,0.9994577,36.78331,-12.78516,-20.72786,1003.065
8.089651108,0.01216199,-0.0004101433,-0.1891955,-0.000955377,-0.0005533388,1.001375,37.15467,-12.77276,-20.28589,1003.064
8.109466553,0.01211227,0.1808821,0.05589092,-0.005830104,0.002346555,1.002865,37.15467,-12.77276,-20.28589,1003.064
8.129281998,0.1344335,0.0595925,-0.06630559,-0.004359107,0.001384944,1.004782,37.16535,-13.51457,-20.71629,1003.063
8.149097919,0.0116291,0.2409239,-0.004899822,-0.006309941,-0.002051172,0.9975354,37.16535,-13.51457,-20.71629,1003.063
8.168913364,0.1339323,0.05917981,-0.1269245,-0.005325805,-0.002037936,1.000909,37.16535,-13.51457,-20.71629,1003.068
8.188728809,0.1336153,-0.1225069,-0.1877491,-0.00631537,0.0003893094,0.9999614,36.78835,-13.15907,-21.10139,1003.068
8.208544731,0.07218098,0.1192627,0.05714178,-0.004871115,0.001852946,0.9980302,36.78835,-13.15907,-21.10139,1003.069
8.228360176,0.01076627,-0.06242293,-0.187421,-0.001918244,-0.003484606,0.9994347,36.78835,-13.15907,-21.10139,1003.069
8.248175621,0.1329948,0.2399554,-0.1260568,-0.006297334,0.0004021989,1.005271,36.41711,-13.17027,-21.48002,1003.07
8.267991543,0.01027079,0.0581568,-0.186922,-0.005339962,0.001374051,1.002375,36.41711,-13.17027,-21.48002,1003.07
8.290284157,-0.05108777,0.178923,-0.1865093,-0.007768885,0.0008745424,1.002385,36.78835,-13.15907,-21.10139,1003.07
8.310099602,-0.05113247,0.05767632,-0.2473762,-0.002423649,-7.865159E-05,0.999455,36.78835,-13.15907,-21.10139,1003.07
8.329915047,-0.1125067,0.1179302,-0.2471007,-0.005320909,-0.003501053,0.999936,36.78835,-13.15907,-21.10139,1003.069
8.349730969,0.1323252,0.0572354,-0.06328099,-0.006790798,-0.001560905,0.999954,36.42427,-13.52253,-20.71351,1003.069
8.369546414,0.009737507,-0.06393363,0.05922198,-0.01069229,0.003299922,1.004827,36.42427,-13.52253,-20.71351,1003.07
8.389361858,0.0707735,0.117575,-0.1852117,-0.005812645,0.0004035439,1.004785,36.42427,-13.52253,-20.71351,1003.07
8.409177780,0.07059579,0.1778875,-0.1237954,-0.005374903,0.00379344,0.9961123,36.42427,-13.52253,-20.71351,1003.069
8.428993225,0.009165861,0.1171941,-0.1847431,-0.0009455394,-0.0005463078,1.004271,36.42427,-13.52253,-20.71351,1003.069
8.448808670,0.008989073,0.05648202,-0.1232705,-0.005825208,0.000883438,1.001892,36.42356,-13.52975,-21.09352,1003.068
8.468624115,0.07008462,-0.06479913,-0.0006168857,-0.007272232,-0.003026539,0.9989836,36.42356,-13.52975,-21.09352,1003.068
8.488440037,0.06996636,0.05600911,-0.2450923,-0.004833494,-0.003986632,0.9994481,36.7826,-12.79238,-21.10787,1003.071
8.508255959,0.06990609,0.1768749,-0.1834682,-0.005834491,0.001365675,0.9999638,36.7826,-12.79238,-21.10787,1003.071
8.528070927,0.06973055,0.1766208,-0.3055245,-0.005332896,-0.001065259,1.000431,36.7826,-12.79238,-21.10787,1003.072
8.547886849,0.1920224,-0.1259682,-0.06052997,-0.006301722,-0.0005786805,1.00237,36.41852,-13.15584,-20.71999,1003.072
8.570179463,0.06932061,-0.0050999,-0.1214256,-0.005342133,0.002350244,1.003345,36.41852,-13.15584,-20.71999,1003.073
8.589995384,0.1915174,0.1157295,-0.1211974,-0.001928036,-0.0005583726,1.00138,37.1596,-13.14787,-20.72276,1003.073
8.609810829,0.06883868,0.1155149,-0.2432948,0.000968694,0.003841393,1.002353,37.1596,-13.14787,-20.72276,1003.07
8.629626274,0.007374659,-0.06623718,0.00160104,-0.002411086,-0.0005585456,1.002349,37.1596,-13.14787,-20.72276,1003.07
8.649441719,0.2520979,0.1151633,-0.12044,-0.005315436,-0.003008269,1.002352,36.41781,-13.16306,-21.10001,1003.071
8.669257641,-0.05420273,-0.006170213,0.002187319,-0.006332275,0.002821588,0.9990085,36.41781,-13.16306,-21.10001,1003.071
8.689073086,0.2519085,0.05414909,-0.1199128,-0.0004548682,-0.002496176,1.002328,36.78414,-12.77674,-20.2845,1003.07
8.708888531,0.06803688,-0.0669363,-0.1196886,-0.004376079,-0.0005826748,0.996567,36.78414,-12.77674,-20.2845,1003.07
8.728704453,0.06798149,0.296099,-0.1806273,-0.002897438,-0.002027695,0.9999303,36.78414,-12.77674,-20.2845,1003.069
8.748520374,0.1291019,0.05377976,-0.05796408,-0.006812091,-0.0001095063,0.9961001,36.42427,-13.52253,-20.71351,1003.069
8.768335343,0.006541431,0.05347376,-0.05766506,-0.001438982,-0.00104278,1.001375,36.42427,-13.52253,-20.71351,1003.07
8.788151264,0.1902061,0.05326349,-0.05748191,-0.005339985,-9.258115E-05,0.9999536,36.78906,-13.15185,-20.72138,1003.07
8.807967186,0.06745389,-0.00745894,-0.1182697,-0.003871205,-0.003011265,0.9979998,36.78906,-13.15185,-20.72138,1003.07
8.830259800,0.2510214,0.2343661,-0.05688854,-0.003872845,-0.003012437,0.9975172,36.78906,-13.15185,-20.72138,1003.07
8.850075245,0.1282702,-0.06850087,-0.1789747,-0.005327468,-0.00350574,0.9980052,36.41781,-13.16306,-21.10001,1003.073
8.869890690,-0.05563687,0.1128673,-0.1788133,-0.004842179,-8.186186E-05,1.00333,36.41781,-13.16306,-21.10001,1003.073
8.889706135,0.1279342,0.1127169,-0.05625057,-0.00532144,-0.002523689,1.001389,36.78989,-13.14343,-20.27802,1003.073
8.909522057,0.06653327,-0.1294081,-0.05601343,-0.005827401,0.0003929979,1.000441,36.78989,-13.14343,-20.27802,1003.073
8.929337502,0.06640474,0.2335942,-0.1780057,-0.002416559,-0.001051329,0.9999326,36.78989,-13.14343,-20.27802,1003.07
8.949152947,0.1275292,0.1728559,0.005832627,-0.003384853,-0.001542116,1.000418,36.41206,-12.79636,-21.10649,1003.07
8.968968868,0.06599483,-0.009059206,-0.05494138,-0.0004728811,-0.001042433,0.9994393,36.41206,-12.79636,-21.10649,1003.069
8.988784790,0.06584837,0.05115333,-0.1772244,-0.002882151,-0.002994513,1.002821,36.41206,-12.79636,-21.10649,1003.069
9.008599758,0.2494411,-0.009487741,-0.3604204,-0.0009815877,0.0008945453,0.9960734,36.41206,-12.79636,-21.10649,1003.07
9.028415680,0.06551794,0.1112955,-0.1766042,-0.002891434,-0.002512276,1.000893,36.41206,-12.79636,-21.10649,1003.07
9.048231602,0.06537277,0.111092,-0.05404709,-0.004838922,-0.001546151,1.001874,36.41206,-12.79636,-21.10649,1003.07
9.068047524,0.003821433,-0.01004142,-0.1762556,-0.000955954,-0.002509239,0.9979864,36.41206,-12.79636,-21.10649,1003.07
9.090339661,0.1873957,0.1109363,-0.05354813,-0.002433441,0.002847582,1.001401,36.80632,-14.25194,-20.70194,1003.07
9.110155582,0.2484086,0.1107148,-0.2368434,-0.008744313,-0.001576832,0.9975512,36.80632,-14.25194,-20.70194,1003.07
9.129970551,0.1869936,0.1711586,-0.1753552,0.0005188757,-0.002979239,1.001837,36.80632,-14.25194,-20.70194,1003.068
9.149786472,0.1868702,0.1709188,0.008476332,-0.003420856,0.002832002,0.997062,36.4251,-13.51411,-20.27015,1003.068
9.169602394,0.1255712,-0.01085852,-0.05255388,-0.005319247,-0.002033249,1.002839,36.4251,-13.51411,-20.27015,1003.073
9.189418316,0.1253712,0.1100612,-0.1747085,-0.007274381,-0.0005837143,1.002375,37.15889,-13.15509,-21.10278,1003.073
9.209233284,-0.05854789,0.1100318,-0.05207927,-0.003885916,-8.854596E-05,0.9984976,37.15889,-13.15509,-21.10278,1003.07
9.229049206,0.06375845,-0.07180156,-0.1131686,2.106908E-05,-0.002989958,0.9984613,37.15889,-13.15509,-21.10278,1003.07
9.248865128,0.002345704,0.1096319,-0.05170278,-0.004854786,-0.002535234,0.9955942,36.41277,-12.78914,-20.72647,1003.071
9.268680096,0.1248066,-0.07202955,-0.1737635,1.236284E-05,-0.00055182,0.9999219,36.41277,-12.78914,-20.72647,1003.071
9.288496018,-0.05901489,0.1699172,-0.05119421,-0.005314905,-0.003985634,1.000899,36.41277,-12.78914,-20.72647,1003.074
9.308311462,0.002136111,0.1696426,-0.1734098,-0.003890281,0.0003972065,0.9980174,36.41852,-13.15584,-20.71999,1003.074
9.328127384,-0.05908345,-0.01222648,-0.2954913,-0.008241611,-0.003029229,0.9999544,36.41852,-13.15584,-20.71999,1003.073
9.347942829,0.00202927,0.2902157,-0.1116077,-0.002923026,0.004309354,1.002859,36.7826,-12.79238,-21.10787,1003.073
9.370235920,0.1241639,-0.01255956,0.07219484,-0.005335044,0.001377566,1.003822,36.7826,-12.79238,-21.10787,1003.072
9.390050888,0.06273404,0.04787068,-0.111205,-0.006821329,0.003305996,0.9990137,36.78906,-13.15185,-20.72138,1003.072
9.409866810,0.1238676,0.1082822,-0.2332124,-0.002408893,-6.810552E-05,1.003799,36.78906,-13.15185,-20.72138,1003.071
9.429682732,0.06255385,-0.01290123,-0.2942694,-0.006304978,0.0008856083,1.003825,36.78906,-13.15185,-20.72138,1003.071
9.449498177,0.06233916,0.04760578,-0.04936069,-0.00439788,0.003312721,0.9965871,36.42931,-13.89645,-21.08705,1003.07
9.469313622,0.06218275,0.1684546,-0.1714849,-0.007762904,-0.001076671,1.000927,36.42931,-13.89645,-21.08705,1003.07
9.489129067,0.3070182,0.1075761,-0.1713232,-0.00729401,0.002335489,1.001425,36.42931,-13.89645,-21.08705,1003.07
9.508944988,0.0007912368,0.04700228,0.134612,-0.0009646832,-0.001537734,0.9970261,36.43578,-14.25592,-20.70055,1003.07
9.528760910,0.1843936,0.04684635,0.01235236,-0.003407253,-0.001069252,0.9946284,36.43578,-14.25592,-20.70055,1003.071
9.548576832,0.0003456175,-0.1347333,-0.2320021,-0.006824031,0.005259553,1.001437,36.79482,-13.51855,-20.7149,1003.071
9.568391800,0.2452401,0.1071429,-0.04810503,-0.003870629,-0.001055364,1.001389,36.79482,-13.51855,-20.7149,1003.073
9.588207722,0.06134683,0.2278803,-0.1091082,-0.005823013,0.001373878,1.003343,36.79482,-13.51855,-20.7149,1003.073
9.608023644,0.1836213,0.1670424,0.01341383,-0.002908916,-0.002035898,0.9965515,36.42931,-13.89645,-21.08705,1003.072
9.630315781,-0.0003671646,0.1668175,0.01370233,-0.002406745,-0.002510931,1.000408,36.42931,-13.89645,-21.08705,1003.072
9.650131703,0.1218892,0.0455823,-0.04732178,0.0005003088,-0.002014764,0.997981,36.78906,-13.15185,-20.72138,1003.072
9.669947624,-0.06190578,0.04550583,-0.1695279,-0.002905613,-0.0005669212,0.9999378,36.78906,-13.15185,-20.72138,1003.072
9.689762592,-0.2457005,0.04537261,0.01425075,-0.003379403,-0.002515965,1.000413,36.78906,-13.15185,-20.72138,1003.073
9.709578514,0.06062245,0.1663031,-0.04681309,-0.003863539,-0.002028042,1.001866,36.80056,-13.88524,-20.70842,1003.073
9.729394436,0.1216846,0.2267022,-0.1078196,-0.006293524,-0.0005728218,1.004783,36.80056,-13.88524,-20.70842,1003.074
9.749210358,-0.06216753,0.1658293,-0.1077024,-0.007751471,-0.004001733,0.999464,37.16464,-13.52178,-21.0963,1003.074
9.769025326,-0.0009894297,-0.01601117,-0.1074704,-1.541944E-05,0.005294789,1.0014,37.16464,-13.52178,-21.0963,1003.075
9.788841248,0.2438701,0.04433291,-0.1072582,-0.005854675,0.003795611,0.9980456,37.16464,-13.52178,-21.0963,1003.075
9.808657170,-0.001137994,0.1046205,-0.04596076,-0.003417023,0.003323614,0.9989951,36.43002,-13.88923,-20.70703,1003.074
9.828472614,-0.001269706,0.04405395,-0.1069694,-0.002892543,-0.003490812,0.9989572,36.43002,-13.88923,-20.70703,1003.074
9.848288536,0.1211235,0.0439243,-0.04569199,-0.003379934,-0.0015386,1.001866,37.16535,-13.51457,-20.71629,1003.074
9.868103504,0.1209731,0.1041938,-0.106567,-0.001472236,0.004311046,1.000438,37.16535,-13.51457,-20.71629,1003.074
9.887919426,0.05947439,0.04343853,-0.04517534,-0.008281447,0.0008532768,0.994665,37.16535,-13.51457,-20.71629,1003.075
9.910212040,0.05936399,0.04331595,0.01634503,-0.004860192,0.001371881,1.000441,36.05374,-13.52652,-20.71212,1003.075
9.930027962,-0.06325197,0.1642136,-0.04464727,-0.003384299,-0.001052848,1.001386,36.05374,-13.52652,-20.71212,1003.076
9.949843407,-0.0633814,0.1639721,-0.1666296,-0.008744868,-0.0020661,0.9965832,36.78906,-13.15185,-20.72138,1003.076
9.969659329,-0.002123296,-0.01778769,-0.1052024,-0.00240074,-0.002995512,1.001371,36.78906,-13.15185,-20.72138,1003.072
9.989474773,-0.06342825,0.2241747,-0.04377582,-0.003389795,-0.003012264,0.9965491,36.78906,-13.15185,-20.72138,1003.072
10.009290218,0.1200469,0.2844854,-0.2269037,-0.006327955,-0.0005974292,0.9946468,36.80127,-13.87803,-20.3284,1003.073
10.029106140,0.1199184,0.1632206,-0.1655171,-0.002873421,-0.003966019,1.003782,36.80127,-13.87803,-20.3284,1003.073
10.048922062,0.1197326,0.1630387,-0.1040927,-0.006809297,0.003803466,1.00336,37.15314,-12.78839,-21.10926,1003.076
10.068737984,0.05833308,0.1023637,-0.2873763,-0.002434549,0.001869046,0.999465,37.15314,-12.78839,-21.10926,1003.076
10.088552952,-0.00300847,0.04178397,0.0188311,-0.004389705,0.001851948,0.9965795,37.15314,-12.78839,-21.10926,1003.075
10.108368874,-0.06421518,0.1021917,-0.04214828,-0.008245376,0.0008790561,1.005284,36.41781,-13.16306,-21.10001,1003.075
10.128184795,-0.003031917,-0.01893831,-0.103109,-0.002433995,0.002358314,1.000433,36.41781,-13.16306,-21.10001,1003.075
10.148000240,0.05801688,0.1019827,-0.04191799,-0.006814793,0.001844051,0.9985235,36.79552,-13.51133,-20.33488,1003.075
10.170292854,0.1190673,0.1017136,-0.1639902,-0.004849291,-0.0005758172,1.000431,36.79552,-13.51133,-20.33488,1003.076
10.190108776,-0.00339099,0.1015722,-0.1026848,-0.004317699,-0.006896288,1.003292,36.79552,-13.51133,-20.33488,1003.076
10.209924221,-0.003324844,0.04086136,0.01984034,-0.002397992,-0.002015804,1.003789,36.79411,-13.52577,-21.09491,1003.076
10.229739666,0.1190543,0.1618221,-0.1023809,-0.004387002,-0.0001016087,0.9941562,36.79411,-13.52577,-21.09491,1003.076
10.249555588,0.05752186,-0.01983728,-0.1022198,-0.004355387,-0.005456606,0.9946111,37.15314,-12.78839,-21.10926,1003.079
10.269371033,0.1183994,0.101143,-0.1631065,-0.003874439,-8.034334E-05,1.001876,37.15314,-12.78839,-21.10926,1003.079
10.289186955,-0.00409577,0.04050925,-0.1629081,-0.004853079,0.001865836,1.00334,37.15314,-12.78839,-21.10926,1003.08
10.309002876,0.05710957,0.161376,-0.162691,-0.005835599,0.0003871389,0.998028,36.41781,-13.16306,-21.10001,1003.08
10.328817844,0.1183534,0.04013539,-0.1624745,-0.004836773,-0.003988976,0.9984828,36.41781,-13.16306,-21.10001,1003.08
10.348633766,0.05684207,0.03995869,-0.1622394,-0.004842755,-0.002037763,0.9999409,36.42931,-13.89645,-21.08705,1003.08
10.368449688,0.1791663,-0.02055929,0.02140577,-0.005332918,-0.002531891,0.9980102,36.42931,-13.89645,-21.08705,1003.081
10.388265610,0.05661464,0.2214861,-0.03959931,-0.005329639,-0.002529548,0.9989755,36.42931,-13.89645,-21.08705,1003.081
10.408081055,0.05653019,0.3423355,-0.03934636,-0.003880974,0.001381602,1.002367,36.79552,-13.51133,-20.33488,1003.082
10.427896500,0.1177178,0.03965323,-0.03907489,-0.002448751,0.002347768,0.9960889,36.79552,-13.51133,-20.33488,1003.082
10.450189591,0.1788303,-0.02074359,-0.100031,-0.004334049,-0.003974741,1.003307,37.16464,-13.52178,-21.0963,1003.083
10.470005512,-0.1274208,-0.02082444,-0.03879011,-0.0009493954,-0.002504552,0.9999171,37.16464,-13.52178,-21.0963,1003.083
10.489820480,-0.004999109,0.03958859,0.02246975,-0.009708752,-0.0001093741,1.002391,37.16464,-13.52178,-21.0963,1003.085
10.509636402,-0.005159542,0.2209323,0.0226053,-0.004358552,0.001874212,1.005751,37.1596,-13.14787,-20.72276,1003.085
10.529452324,-0.005281083,0.09978914,-0.03846031,-0.00290723,0.0008985393,1.001876,37.1596,-13.14787,-20.72276,1003.086
10.549267769,-0.005363874,-0.02152477,-0.03834455,-0.002438891,0.003821431,1.001406,37.1596,-13.14787,-20.72276,1003.086
10.569083691,-0.005369678,0.1598965,-0.09937225,-0.006779897,-0.003508603,0.9999439,36.79482,-13.51855,-20.7149,1003.086
10.588898659,0.1781329,0.03865958,-0.1603619,-0.001914897,0.0009176345,1.007663,36.79482,-13.51855,-20.7149,1003.086
10.608714581,-0.1282703,0.03841068,-0.09900803,-0.002914874,0.001381948,1.00043,36.78906,-13.15185,-20.72138,1003.089
10.628530502,-0.005885005,0.03806724,-0.09887469,-0.000472327,-0.0005531653,1.000407,36.78906,-13.15185,-20.72138,1003.089
10.648346424,0.1165198,-0.02252194,-0.09866486,-0.003858066,-0.001535258,1.004282,36.78906,-13.15185,-20.72138,1003.09
10.668161869,0.1163233,0.1587878,0.08495512,-0.004368436,-0.001066084,0.9980125,37.15385,-12.78118,-20.72924,1003.09
10.687977791,0.1161274,0.09812334,-0.09851516,-0.00385698,-0.002023355,1.003797,37.15385,-12.78118,-20.72924,1003.089
10.710270405,0.05473895,0.09803613,-0.03711274,-0.0009586562,-0.0005556822,1.00041,36.79482,-13.51855,-20.7149,1003.089
10.730086327,0.1158735,0.03739126,-0.1592869,-0.001438427,-0.0005535118,1.002343,36.79482,-13.51855,-20.7149,1003.089
10.749901295,-0.006769054,0.0373734,-0.03673486,-0.004371669,0.001864838,1.001889,36.79482,-13.51855,-20.7149,1003.089
10.769717217,-0.06823542,0.09764034,-0.1587948,-0.002899655,-0.003984767,0.9960588,36.42427,-13.52253,-20.71351,1003.088
10.789533138,-0.007215008,0.1580029,-0.09746405,-0.004803451,-0.004942905,1.006683,36.42427,-13.52253,-20.71351,1003.088
10.809348583,-0.06871863,0.1579861,0.02502872,-0.003877164,0.000406581,1.001879,37.15889,-13.15509,-21.10278,1003.087
10.829164505,0.1150775,-0.02379657,-0.1584639,-0.006278812,-0.00349554,1.004285,37.15889,-13.15509,-21.10278,1003.087
10.848980427,-0.007486209,0.09713663,-0.03602915,-0.004362985,-0.002039933,0.9980074,37.15889,-13.15509,-21.10278,1003.088
10.868795395,-0.007544324,-0.1452151,-0.1580717,-0.004875502,0.0008720668,0.9951292,37.1596,-13.14787,-20.72276,1003.088
10.888611317,-0.007563896,-0.024281,-0.09666595,-0.002391966,-0.001033752,1.007173,37.1596,-13.14787,-20.72276,1003.089
10.908427239,0.05349636,-0.0849797,-0.09648086,-0.002401826,-0.002507416,1.001856,36.78906,-13.15185,-20.72138,1003.089
10.928243160,0.1146147,0.09658177,-0.09633459,-0.005829063,-0.001074806,0.9975378,36.78906,-13.15185,-20.72138,1003.088
10.948058605,-0.007986248,0.2781433,-0.1573896,-0.004359152,-0.001548321,0.9999408,36.78906,-13.15185,-20.72138,1003.088
10.967874527,0.1756381,0.2174262,-0.03491919,-0.005302319,-0.002998895,1.006213,36.7826,-12.79238,-21.10787,1003.087
10.990167141,0.2367983,0.03563486,-0.09588695,-0.002905613,-0.0005669212,0.9999378,36.7826,-12.79238,-21.10787,1003.087
11.009983063,0.05298378,-0.1460117,-0.03465651,-0.0004816104,-7.09279E-05,0.9984791,36.41781,-13.16306,-21.10001,1003.087
11.029798508,-0.008344255,-0.0854364,-0.1569135,-0.00581918,0.001865489,1.005276,36.41781,-13.16306,-21.10001,1003.087
11.049613953,0.05279488,0.03540465,0.02675661,-0.007292394,0.0008700285,0.9994864,36.41781,-13.16306,-21.10001,1003.088
11.069429398,0.05270074,-0.02534891,-0.09528983,-0.002899055,-0.0005622341,1.001868,37.16464,-13.52178,-21.0963,1003.088
11.089245319,-0.008607358,0.09549325,0.0272168,-0.003401226,-8.72009E-05,0.9980122,37.16464,-13.52178,-21.0963,1003.091
11.109061241,0.1748264,0.1558613,-0.03380281,-0.001921501,-0.002020318,1.00089,36.79411,-13.52577,-21.09491,1003.091
11.128877163,0.05220873,0.337236,-0.09470755,-0.002410001,-0.001046642,1.001863,36.79411,-13.52577,-21.09491,1003.093
11.148693085,-0.131469,-0.1471996,0.027836,-0.004364048,-8.520391E-05,1.000914,36.79411,-13.52577,-21.09491,1003.093
11.168508053,0.05210022,0.09484095,-0.1556062,-0.005333449,-0.001554527,0.9994633,36.41781,-13.16306,-21.10001,1003.094
11.188323975,-0.1318655,0.2157044,-0.03302504,-0.004835643,-0.001543808,1.002839,36.41781,-13.16306,-21.10001,1003.094
11.208139420,0.05174312,0.155049,-0.1552096,-0.00824757,0.000388616,1.003833,36.41852,-13.15584,-20.71999,1003.096
11.227955341,0.1129236,0.1549256,-0.03272538,-0.005793014,-0.002515659,1.005736,36.41852,-13.15584,-20.71999,1003.096
11.250247955,0.1126431,0.09422226,-0.09362267,-0.00434599,0.001394318,1.008644,36.41852,-13.15584,-20.71999,1003.095
11.270063877,0.1126101,-0.1479892,-0.2768749,-0.0009935959,0.001863707,0.9941477,36.79411,-13.52577,-21.09491,1003.095
11.289879322,-0.00994733,-0.1480545,0.02909493,-0.005333404,0.001378738,1.004305,36.79411,-13.52577,-21.09491,1003.094
11.309695244,0.05121502,0.1543679,-0.2153592,-0.003853193,-0.004465008,1.000888,37.15314,-12.78839,-21.10926,1003.094
11.329511166,0.05102878,0.09384754,-0.09295426,-0.002915405,0.002359313,1.001884,37.15314,-12.78839,-21.10926,1003.097
11.349327087,0.05084302,0.03306121,-0.09289376,-0.004377119,0.002838687,1.001894,37.15314,-12.78839,-21.10926,1003.097
11.369142056,0.1118336,0.03303522,0.02970288,-0.0004575932,-0.002009252,1.00233,36.78906,-13.15185,-20.72138,1003.096
11.388957977,0.1116489,0.09348394,0.02985864,-0.005821419,-0.001558215,0.9989832,36.78906,-13.15185,-20.72138,1003.096
11.408773899,-0.07210122,-0.3303017,0.03005242,-0.008753021,0.0008613057,0.9990117,36.79552,-13.51133,-20.33488,1003.096
11.428589344,0.17286,-0.1486371,-0.09217528,-0.0009242473,-0.001997707,1.008125,36.79552,-13.51133,-20.33488,1003.096
11.448405266,0.05015119,-0.02767542,-0.1531639,-0.009224616,-0.0005972972,1.000938,36.79552,-13.51133,-20.33488,1003.097
11.468221188,0.05006368,-0.02768192,-0.2143065,-0.004379867,0.001858979,0.9994756,37.15314,-12.78839,-21.10926,1003.097
11.488037109,0.04997643,0.1539257,-0.15299,-0.0009248247,-0.003953608,1.004736,37.15314,-12.78839,-21.10926,1003.098
11.507852554,0.1111036,-0.02767597,-0.03045379,-0.005815414,-0.002042796,0.9999462,37.15314,-12.78839,-21.10926,1003.098
11.530145168,0.04969086,0.03287682,-0.03032944,-0.005354719,0.001363505,0.9980304,36.78402,-12.77794,-20.34784,1003.095
11.549961090,0.04968137,-0.02773739,0.03110113,-0.005303982,-0.004466699,1.00331,36.78402,-12.77794,-20.34784,1003.095
11.569777012,0.2332186,-0.148921,-0.09110993,-0.005815946,-0.001065432,1.001399,36.78835,-13.15907,-21.10139,1003.094
11.589591980,0.04925947,0.03247815,-0.213398,0.0004643516,0.005292619,0.9994667,36.78835,-13.15907,-21.10139,1003.094
11.609407902,0.04919342,0.03243464,-0.09092122,-0.007753088,-0.002536273,1.001402,36.41781,-13.16306,-21.10001,1003.095
11.629223824,0.1103418,-0.08857723,-0.09055854,-0.000952675,-0.002506896,0.9989517,36.41781,-13.16306,-21.10001,1003.095
11.649039269,0.1103531,0.1532021,-0.1515321,-0.005361278,0.001358818,0.9960997,36.41781,-13.16306,-21.10001,1003.095
11.668855190,-0.01223718,0.0924378,-0.02903798,-0.0004761145,0.001888488,1.003316,36.78906,-13.15185,-20.72138,1003.095
11.688671112,0.1101067,-0.08914252,-0.151194,0.0005276049,-0.003950744,1.002798,36.78906,-13.15185,-20.72138,1003.095
11.708487034,0.1711214,0.03182187,-0.1510448,-0.002877809,-0.004946899,1.00088,36.78906,-13.15185,-20.72138,1003.095
11.728302479,0.1709994,0.03189388,-0.08961834,-0.001473322,0.004799142,1.000923,36.78331,-12.78516,-20.72786,1003.095
11.748117924,-0.07403715,0.03173785,-0.02828845,-1.382525E-05,0.002362696,0.9970409,36.78331,-12.78516,-20.72786,1003.095
11.767933846,-0.07400493,0.1526266,0.03306017,-0.002909978,-8.116849E-05,0.9994576,36.41206,-12.79636,-21.10649,1003.094
11.790226937,0.04840209,0.2129742,0.03327381,-0.004346058,-0.00300558,1.001381,36.41206,-12.79636,-21.10649,1003.094
11.810042381,-0.01297207,-0.08982013,-0.02779953,-0.005793591,-0.004471559,1.002347,36.41206,-12.79636,-21.10649,1003.095
11.829857826,-0.0132471,0.03122178,-0.08868109,-0.00628156,-0.004475248,1.001867,36.78906,-13.15185,-20.72138,1003.095
11.849673748,0.04798116,0.03110549,-0.2108986,-0.0072902,0.001360468,1.000937,36.78906,-13.15185,-20.72138,1003.096
11.869489193,0.2315419,-0.02965625,-0.08837059,-0.000448864,-0.002980757,1.003291,36.79903,-13.90088,-21.53179,1003.096
11.889305115,-0.1973085,0.03083601,0.0952426,-0.003380974,0.001882761,1.007193,36.79903,-13.90088,-21.53179,1003.096
11.909121037,0.04760175,-0.02975417,-0.02689913,-0.001448288,-0.002027175,0.9970262,36.79903,-13.90088,-21.53179,1003.096
11.928936959,-0.01369352,0.03070028,-0.1490221,-0.004868412,-0.0001006105,0.9956068,36.79411,-13.52577,-21.09491,1003.097
11.948752403,0.0474783,0.2121043,-0.08763923,-0.006776087,-0.004483624,0.9994562,36.79411,-13.52577,-21.09491,1003.097
11.968568325,-0.0752616,-0.03002319,-0.1485817,-0.003397924,0.001381775,1.001398,37.1711,-13.88126,-20.7098,1003.098
11.988384247,-0.01403136,0.2724447,-0.1484775,-0.002920878,0.001866529,0.9994677,37.1711,-13.88126,-20.7098,1003.098
12.008199215,0.047122,-0.0907077,-0.02602939,-0.0004859522,0.001881457,1.00042,37.1711,-13.88126,-20.7098,1003.097
12.028015137,0.1081795,0.151286,-0.1482889,-0.005827401,0.0003929979,1.000441,36.42427,-13.52253,-20.71351,1003.097
12.047831059,0.1080039,0.03007071,-0.08683099,-0.005830171,-0.002053343,0.995602,36.42427,-13.52253,-20.71351,1003.097
12.070124149,0.04654238,0.02990985,-0.08677775,-0.001467318,0.004314561,1.001886,36.41852,-13.15584,-20.71999,1003.097
12.089939117,-0.01471186,0.02981577,-0.1477799,-0.008732283,-0.001079361,1.001898,36.41852,-13.15584,-20.71999,1003.098
12.109755039,0.04634713,-0.09136049,-0.02516083,-0.003885362,0.000400722,0.9994654,36.41852,-13.15584,-20.71999,1003.098
12.129570961,-0.01486814,-0.03090335,-0.02494408,-0.002921409,0.002843894,1.000921,37.16535,-13.51457,-20.71629,1003.097
12.149386883,-0.01492687,0.02944003,-0.08596714,-0.005843243,0.0008705481,0.9965824,37.16535,-13.51457,-20.71629,1003.097
12.169202328,0.1074045,0.02938515,-0.1470098,-0.002405082,-0.001043126,1.003311,36.79482,-13.51855,-20.7149,1003.096
12.189018250,0.04597837,0.2107166,-0.02454631,-0.002416559,-0.001051329,0.9999326,36.79482,-13.51855,-20.7149,1003.096
12.208834171,0.04578616,0.02908634,0.03679297,-0.003402334,-0.001065737,0.9960765,36.79482,-13.51855,-20.7149,1003.097
12.228650093,-0.01558153,0.08948809,0.03698856,-0.002883813,-0.004462318,0.9999177,36.78906,-13.15185,-20.72138,1003.097
12.248465538,0.2293145,0.08930138,-0.08517961,-0.006292991,-0.001550186,1.00333,36.78906,-13.15185,-20.72138,1003.094
12.268281460,-0.1996264,0.2102736,-0.08500418,-0.002419839,-0.001053673,0.9989672,36.41852,-13.15584,-20.71999,1003.094
12.288096905,-0.01588608,0.0286254,-0.14603,-0.0009711958,0.001390844,0.9999373,36.41852,-13.15584,-20.71999,1003.094
12.307912350,0.1063901,0.08883839,0.1598609,-0.000525811,0.004297331,0.9927096,36.41852,-13.15584,-20.71999,1003.094
12.330205441,-0.1387289,-0.1532925,-0.02354038,-0.004815482,-0.005440375,1.002337,36.42427,-13.52253,-20.71351,1003.093
12.350021362,0.1061497,-0.032243,0.0377771,-0.00289088,-0.002023008,1.001861,36.42427,-13.52253,-20.71351,1003.093
12.369837284,-0.01654535,-0.09282667,-0.1456131,-0.002438382,0.001377435,0.9975318,36.41852,-13.15584,-20.71999,1003.092
12.389652252,-0.01659987,0.08873548,0.03795186,0.0005057817,-0.001521981,1.000397,36.41852,-13.15584,-20.71999,1003.092
12.409468174,0.1058127,0.1491014,0.03816368,-0.00289797,-0.001050331,1.001383,36.41852,-13.15584,-20.71999,1003.093
12.429284096,-0.1391754,0.2093916,-0.08402669,-0.004386425,0.001854292,0.9975449,36.80056,-13.88524,-20.70842,1003.093
12.449100018,0.166861,0.1486382,-0.2061022,-0.004860169,0.002838513,1.002862,36.80056,-13.88524,-20.70842,1003.094
12.468915463,0.04430185,-0.03298821,-0.1447296,-0.006321883,0.003317887,1.002872,37.17039,-13.88848,-21.08982,1003.094
12.488731384,0.1053856,0.1484807,0.03902514,-0.002438914,0.002354799,0.9989848,37.17039,-13.88848,-21.08982,1003.089
12.508547306,0.105198,-0.03314518,-0.02196653,-0.004371691,0.0003982051,0.999468,37.17039,-13.88848,-21.08982,1003.089
12.528363228,0.04396942,0.08783037,0.03923181,-0.001904019,-0.002496696,1.005232,36.79411,-13.52577,-21.09491,1003.089
12.548178673,0.1051117,0.0272871,0.0394597,-0.00240619,-0.002021663,1.001376,36.79411,-13.52577,-21.09491,1003.089
12.567994595,-0.07864111,-0.0332942,-0.08281073,-0.007792371,0.001835502,0.9970807,37.1596,-13.14787,-20.72276,1003.09
12.590287209,-0.01747377,0.08759725,-0.08265369,-0.006790821,-0.003027538,0.997533,37.1596,-13.14787,-20.72276,1003.09
12.610103130,-0.07866331,-0.0335342,-0.08240782,-0.001465701,0.002849101,0.9999475,37.1596,-13.14787,-20.72276,1003.091
12.629918575,0.1050232,-0.03367789,-0.08229688,-0.004846035,-0.002040107,0.9989754,36.79411,-13.52577,-21.09491,1003.091
12.649734497,-0.01759205,0.02678645,0.1014355,-0.006314284,-9.878678E-05,0.9994761,36.79411,-13.52577,-21.09491,1003.09
12.669550419,-0.01768239,-0.03386944,0.04032557,-0.004354765,-0.0005674413,1.002842,36.79482,-13.51855,-20.7149,1003.09
12.689366341,-0.07904442,0.02657626,-0.02074611,-0.004854765,-0.001068601,0.9980151,36.79482,-13.51855,-20.7149,1003.091
12.709182263,0.1659341,0.1474779,0.04046842,-0.007296759,0.001355781,0.9990063,36.79482,-13.51855,-20.7149,1003.091
12.728997708,0.04337729,0.1473166,-0.1427943,-0.005838855,0.001851428,0.9994835,36.41348,-12.78193,-20.34645,1003.095
12.748813152,0.1044826,-0.03432547,-0.0815613,-0.00192037,0.0004248507,1.005247,36.41348,-12.78193,-20.34645,1003.095
12.768628597,-0.07942248,-0.2158154,-0.02025162,-0.004848228,-0.002530546,0.997525,36.41348,-12.78193,-20.34645,1003.09
12.788444519,-0.01841244,0.08687202,0.04109611,-0.004849314,-0.00204245,0.9980101,36.04869,-13.1526,-20.33858,1003.09
12.808260441,0.1653535,0.02614123,-0.1423601,-0.007282579,-0.0005895733,0.9999617,36.04869,-13.1526,-20.33858,1003.089
12.828076363,-0.01849294,0.146968,0.04136945,-0.003354809,-0.002498388,1.007653,37.17039,-13.88848,-21.08982,1003.089
12.847892285,0.226449,-0.0347681,-0.01989688,-0.0004526975,-0.003472369,1.001357,37.17039,-13.88848,-21.08982,1003.09
12.870185375,-0.01870161,-0.03461289,0.1025418,-0.00536839,0.0008648626,0.9932011,36.79482,-13.51855,-20.7149,1003.09
12.890000820,-0.01886604,-0.1556274,-0.01965663,-0.002893074,-0.002513448,1.00041,36.79482,-13.51855,-20.7149,1003.091
12.909816265,-0.1412088,0.08637721,0.04165111,-0.004360237,-0.001060225,1.000426,36.79482,-13.51855,-20.7149,1003.091
12.929632187,0.1648711,0.08638829,-0.2028154,-0.006307726,-9.40999E-05,1.001407,36.79328,-13.53419,-21.53827,1003.091
12.949447632,0.1646878,0.2074058,-0.08036532,0.0005358029,-0.003944885,1.005211,36.79328,-13.53419,-21.53827,1003.091
12.969263554,0.04213414,0.02563176,0.1644862,-0.004330216,-0.003483129,1.00524,36.79328,-13.53419,-21.53827,1003.092
12.989079475,0.04198989,0.0860801,-0.01883821,3.310037E-05,-0.002492488,1.002808,36.41852,-13.15584,-20.71999,1003.092
13.008895397,0.0419229,0.08605398,-0.01875252,-0.002405105,-0.002509759,1.00089,36.41852,-13.15584,-20.71999,1003.091
13.028710842,-0.01951185,0.08585696,-0.1408959,-0.001910555,-0.001034751,1.005722,36.78835,-13.15907,-21.10139,1003.091
13.048526764,-0.01952065,0.08579341,0.1037238,-0.001423185,-0.004453595,1.000392,36.78835,-13.15907,-21.10139,1003.09
13.068342686,0.1641519,0.267287,0.0427039,-0.001465169,0.001871736,0.9984944,36.78835,-13.15907,-21.10139,1003.09
13.088158608,-0.01967233,0.02505895,-0.07947865,-0.003877187,-0.001060051,0.9994578,36.05374,-13.52652,-20.71212,1003.091
13.107974052,0.1639045,-0.03544067,-0.01834707,-0.003411572,0.002349765,0.9989901,36.05374,-13.52652,-20.71212,1003.091
13.130266666,-0.01989367,0.1461025,-0.140505,0.0005091291,0.002880261,1.008625,36.78906,-13.15185,-20.72138,1003.092
13.150082588,-0.01984371,-0.09599213,-0.07900906,-0.006286456,-0.003012131,1.00284,36.78906,-13.15185,-20.72138,1003.092
13.169898510,-0.0198515,0.08552103,0.04355248,-0.001940599,-7.84786E-05,0.998487,36.78906,-13.15185,-20.72138,1003.092
13.189713955,-0.01991705,-0.09611778,0.0436543,0.002434195,0.000920366,0.9994335,36.79411,-13.52577,-21.09491,1003.092
13.209529877,0.04125111,0.08537684,-0.07866506,-0.002434018,0.0008916818,0.9980119,36.79411,-13.52577,-21.09491,1003.091
13.229345799,0.1024195,0.08529533,-0.017497,-0.0009570394,-0.002021143,0.9984716,36.79482,-13.51855,-20.7149,1003.091
13.249161720,0.04108263,0.2061256,0.1049679,1.291698E-05,-6.255205E-05,1.00089,36.79482,-13.51855,-20.7149,1003.094
13.268977165,-0.02033085,0.02431694,0.04379147,-0.006307748,-0.001560732,0.9989858,36.79482,-13.51855,-20.7149,1003.094
13.288793087,0.1633054,-0.03623793,-0.139633,-0.003873908,-0.001057708,1.000423,36.04799,-13.15982,-20.7186,1003.097
13.308609009,0.1018733,-0.0968117,-0.0170152,0.001481166,-0.002003872,1.000389,36.04799,-13.15982,-20.7186,1003.097
13.328424931,0.0405187,0.1452353,-0.2004022,-0.005328553,-0.003017644,0.9984905,36.78835,-13.15907,-21.10139,1003.092
13.348240852,0.04037851,0.1450796,0.04442436,-0.0009690705,-0.002518613,0.9941251,36.78835,-13.15907,-21.10139,1003.092
13.368056297,0.040181,-0.1577151,-0.07776254,-0.004818229,-0.006420083,0.9999182,36.78835,-13.15907,-21.10139,1003.091
13.387872219,-0.02126864,-0.03665473,0.1058241,-0.002414942,-0.00251679,0.9979943,35.74566,-13.52262,-20.33095,1003.091
13.410164833,-0.0213431,0.02365757,-0.01649265,-0.00290559,0.0008997112,1.002359,35.74566,-13.52262,-20.33095,1003.09
13.429980755,0.03984783,-0.09740822,0.04474954,-0.003870606,0.0004112681,1.003809,37.1596,-13.14787,-20.72276,1003.09
13.449796200,0.0397862,0.02338695,-0.200051,-0.006289667,0.001385422,1.009137,37.1596,-13.14787,-20.72276,1003.087
13.469612122,0.03968639,0.08374585,-0.1997983,-0.001921546,-0.004953583,0.9960485,37.1596,-13.14787,-20.72276,1003.087
13.489428043,0.100801,0.08374455,-0.07747087,-0.00193187,-0.001049984,0.9994473,36.05374,-13.52652,-20.71212,1003.088
13.509243965,0.1005863,-0.03735818,-0.1995822,-0.005357975,0.002827794,0.9994859,36.05374,-13.52652,-20.71212,1003.088
13.529059410,0.1618749,0.02302045,-0.07704413,-0.004815436,-0.002507111,1.007178,36.04799,-13.15982,-20.7186,1003.087
13.548875332,0.03925132,0.2650324,-0.1380324,-0.003391965,-0.002036071,0.9975196,36.04799,-13.15982,-20.7186,1003.087
13.568691254,-0.144682,-0.158614,-0.07661933,-0.003398455,0.002359139,1.002851,36.04799,-13.15982,-20.7186,1003.084
13.588507176,0.1613874,0.02279048,-0.1374936,-0.004348806,-0.003985288,0.9989627,36.80056,-13.88524,-20.70842,1003.084
13.608322621,0.1000755,0.1438916,-0.1373788,-0.001956418,0.001865704,0.997049,36.80056,-13.88524,-20.70842,1003.087
13.628138542,-0.02248897,0.02267593,-0.01478569,8.506468E-06,-0.002510065,0.9955677,36.41206,-12.79636,-21.10649,1003.087
13.647954464,0.1609796,-0.03787468,-0.1369199,-0.006301189,-0.001556045,1.000917,36.41206,-12.79636,-21.10649,1003.081
13.670247078,-0.1453732,-0.159002,-0.01441962,-0.003856427,-0.001534087,1.004765,36.41206,-12.79636,-21.10649,1003.081
13.690062523,0.03832699,0.02261236,0.04685584,-0.001430275,-0.003480918,0.9999148,36.78906,-13.15185,-20.72138,1003.082
13.709878445,-0.1455081,-0.03814712,-0.2587669,-0.00287998,-0.003970706,1.001851,36.78906,-13.15185,-20.72138,1003.082
13.729694367,-0.0843129,0.08268915,-0.07499459,-0.006292438,-0.001060918,1.004298,36.7826,-12.79238,-21.10787,1003.081
13.749510288,-0.02306,0.02198784,-0.01345189,-0.00339252,-0.002525339,0.9965516,36.7826,-12.79238,-21.10787,1003.081
13.769326210,0.03809685,-0.03865604,-0.01343729,-0.003412104,0.003327129,1.000443,36.7826,-12.79238,-21.10787,1003.084
13.789141655,0.03798193,-0.0992426,-0.07445087,-0.0004777771,0.0004206835,1.000412,36.79482,-13.51855,-20.7149,1003.084
13.808957577,-0.08461879,-0.03870863,-0.1966274,-0.003393051,-0.001547975,0.9980047,36.79482,-13.51855,-20.7149,1003.084
13.828773499,0.03773387,0.02180639,-0.07411595,0.000970819,-6.806455E-05,0.9965403,36.42356,-13.52975,-21.09352,1003.084
13.848589421,-0.02361346,0.1427201,0.1095192,-0.007766183,-0.001079015,0.9999618,36.42356,-13.52975,-21.09352,1003.085
13.868404865,0.0374487,0.08202004,-0.07393591,-0.005796294,-0.002518003,1.00477,36.42356,-13.52975,-21.09352,1003.085
13.888220787,0.1598217,-0.0391352,-0.2572569,-0.004356359,0.002364652,1.007201,36.80127,-13.87803,-20.3284,1003.08
13.908036709,0.09849448,0.08177955,-0.0735459,-0.005831765,0.0008787509,0.9999613,36.80127,-13.87803,-20.3284,1003.08
13.927852631,0.03712911,-0.09990689,-0.0122373,-0.002919816,-8.819951E-05,0.9965615,36.80127,-13.87803,-20.3284,1003.081
13.950145722,0.09829617,0.08170454,-0.07321163,0.0004948815,0.0004257173,1.000407,36.79411,-13.52577,-21.09491,1003.081
13.969961167,-0.02428298,0.1419931,-0.07293181,-0.006302298,-0.002534581,0.9989808,36.79411,-13.52577,-21.09491,1003.082
13.989777088,0.03691536,0.1419785,-0.1339496,-0.003853724,-0.003487643,1.002341,36.78835,-13.15907,-21.10139,1003.082
14.009593010,-0.02444921,-0.0396881,-0.1336901,-0.003895731,0.001371055,0.9980224,36.78835,-13.15907,-21.10139,1003.086
14.029408932,0.0367111,0.1418737,-0.133508,-0.0058165,-0.0015547,1.000431,36.78835,-13.15907,-21.10139,1003.086
14.049224854,-0.02453765,-0.1002294,-0.133384,-0.006286966,-0.0005681345,1.006714,36.7826,-12.79238,-21.10787,1003.087
14.069040298,-0.02468748,0.1417691,-0.01095468,-0.001914411,-0.002992995,1.001368,36.7826,-12.79238,-21.10787,1003.087
14.088856220,-0.1473038,0.141603,-0.1330793,-0.006781492,-0.0005765103,1.004303,36.41852,-13.15584,-20.71999,1003.082
14.108672142,-0.1472608,0.02050703,-0.07175548,-0.001449905,-0.0005617146,0.9989644,36.41852,-13.15584,-20.71999,1003.082
14.128488064,0.09775442,-0.04005711,0.05084551,-0.003407762,0.001374744,0.9985025,36.41852,-13.15584,-20.71999,1003.081
14.148303509,-0.08611451,0.08084083,-0.07145342,-0.004841094,-0.0005699582,1.002844,37.15385,-12.78118,-20.72924,1003.081
14.168119431,0.1589971,0.08071375,0.05093571,-0.004854233,-0.002045966,0.9965621,37.15385,-12.78118,-20.72924,1003.08
14.187935352,0.1588477,0.08064403,-0.1324683,-0.005800658,-0.00203225,1.00429,37.15889,-13.15509,-21.10278,1003.08
14.210227966,0.03635494,0.01980845,-0.009865358,0.0005166591,-0.004936311,0.9979659,37.15889,-13.15509,-21.10278,1003.086
14.230043411,0.03624446,0.1408411,-0.07081112,-0.00386407,-0.001050677,1.003319,37.15889,-13.15509,-21.10278,1003.086
14.249859333,0.09734852,0.1408104,-0.1929391,-0.005308324,-0.002514315,1.00525,37.15807,-13.16351,-21.54613,1003.087
14.269675255,-0.08650024,0.0801532,-0.07039854,-0.007282002,0.001366327,1.00335,37.15807,-13.16351,-21.54613,1003.087
14.289491177,-0.08657134,-0.04099741,-0.07027937,-0.003379934,-0.0015386,1.001866,36.42427,-13.52253,-20.71351,1003.086
14.309306622,-0.02529347,0.07994101,-0.1924086,-0.005832896,-0.001566418,0.9956045,36.42427,-13.52253,-20.71351,1003.086
14.329122543,0.03583053,0.07974039,0.0524746,-0.007237824,-0.004468564,1.006699,36.42427,-13.52253,-20.71351,1003.083
14.348938465,-0.02553127,0.01908448,-0.06975159,-0.002893028,0.0004198172,1.005252,36.79482,-13.51855,-20.7149,1003.083
14.368754387,0.03557409,0.1400429,-0.1306814,-0.00728475,0.000386619,1.000932,36.79482,-13.51855,-20.7149,1003.088
14.388570309,-0.02586407,0.07936854,-0.1304493,-0.005330148,-8.555059E-05,1.00285,37.15385,-12.78118,-20.72924,1003.088
14.408385754,0.2190386,-0.04183709,-0.1303138,-0.003862453,-0.002516138,1.001381,37.15385,-12.78118,-20.72924,1003.083
14.428201676,-0.0871789,0.01851474,0.05332794,-0.002911618,-8.234056E-05,0.9989749,37.15385,-12.78118,-20.72924,1003.083
14.448017597,0.09650971,0.1394367,0.0534245,-0.002920878,0.001866529,0.9994677,36.41852,-13.15584,-20.71999,1003.086
14.467833519,-0.2098421,-0.04216652,-0.007737741,-0.004368966,-8.871919E-05,0.9994655,36.41852,-13.15584,-20.71999,1003.086
14.490126610,-0.02608711,-0.102617,-0.00767757,-0.003871714,-0.0005672679,1.001874,36.78906,-13.15185,-20.72138,1003.081
14.509942055,0.157429,0.1998623,-0.1299256,-0.0004766686,0.00139922,1.002348,36.78906,-13.15185,-20.72138,1003.081
14.529757977,0.0959924,0.1390948,-0.1297913,-0.00584763,-0.0001103315,0.9936814,36.78906,-13.15185,-20.72138,1003.08
14.549573898,-0.08777606,0.01796713,-0.06841826,-0.004844881,0.001871695,1.005753,36.41206,-12.79636,-21.10649,1003.08
14.569389820,0.0346806,0.01788401,0.05404001,3.056368E-06,-0.001536215,0.9955727,36.41206,-12.79636,-21.10649,1003.079
14.589205742,0.03453594,0.01782019,-0.06820939,-0.004335158,-0.004953278,1.001371,36.41277,-12.78914,-20.72647,1003.079
14.609021187,0.2793062,0.01768059,-0.0680957,-0.003888087,0.0008876466,0.9994679,36.41277,-12.78914,-20.72647,1003.08
14.628837109,-0.02688965,-0.04291439,-0.06796306,-0.001944433,-0.0005700905,0.9965537,36.41277,-12.78914,-20.72647,1003.08
14.648653031,0.1567245,0.07823772,-0.006706819,-0.0009673627,0.001882456,1.001871,36.79482,-13.51855,-20.7149,1003.079
14.668468952,0.03419074,0.07807922,-0.0677948,-0.005367813,0.002820763,0.9965898,36.79482,-13.51855,-20.7149,1003.079
14.688284397,0.1565718,0.138339,-0.06764379,-0.006816987,0.001353611,0.9970729,36.41852,-13.15584,-20.71999,1003.079
14.708100319,0.2176621,-0.0433185,-0.1285789,-0.002935058,0.003811884,0.9985124,36.41852,-13.15584,-20.71999,1003.079
14.727916241,0.1562858,0.01720801,-0.1895337,-0.005346013,-0.001074633,0.9965698,36.41852,-13.15584,-20.71999,1003.078
14.750208855,0.09486085,-0.04346722,-0.06703837,-0.006801145,0.0008760606,1.000932,36.04799,-13.15982,-20.7186,1003.078
14.770025253,0.09485331,-0.1040417,-0.1281093,-0.0004761603,-0.001044777,0.998474,36.04799,-13.15982,-20.7186,1003.079
14.789841175,-0.02767875,-0.04372361,-0.127922,-0.006344283,0.00379075,0.9970829,36.41781,-13.16306,-21.10001,1003.079
14.809656620,0.03343199,0.07737351,-0.1890704,-0.004380421,0.001369711,0.9985078,36.41781,-13.16306,-21.10001,1003.08
14.829472542,-0.02788547,0.07736916,0.05551662,-0.004356936,0.0004087512,1.003812,36.41781,-13.16306,-21.10001,1003.08
14.849288464,0.03312965,0.1377446,0.05556924,-0.001420992,-0.003963155,1.001843,36.04799,-13.15982,-20.7186,1003.081
14.869104386,0.03308481,0.01658224,-0.1278465,-0.005327999,-0.002528376,0.9994583,36.04799,-13.15982,-20.7186,1003.081
14.888919831,-0.1506602,0.07701533,-0.1277559,-0.0009761376,-7.930375E-05,0.9960683,37.15385,-12.78118,-20.72924,1003.083
14.908735752,-0.08943292,0.01640425,-0.06640713,-0.006768952,-0.002523037,1.004776,37.15385,-12.78118,-20.72924,1003.083
14.928551674,-0.02818638,0.01630609,-0.06625965,-0.003889218,-0.001557522,0.9951113,37.15385,-12.78118,-20.72924,1003.082
14.948367596,0.1554887,-0.04443751,-0.1272558,-0.004390767,0.003806677,0.9994857,37.16606,-13.50735,-20.33627,1003.082
14.968183041,0.03290046,0.1370793,-0.004745767,-0.001470665,-8.76796E-05,0.9936576,37.16606,-13.50735,-20.33627,1003.081
14.987998962,-0.08968749,-0.04453709,0.1175335,-0.009245909,0.000854102,0.9970837,37.16606,-13.50735,-20.33627,1003.081
15.007814884,0.09402671,0.01597343,-0.1270083,-1.437939E-05,0.001873428,0.9960731,37.1596,-13.14787,-20.72276,1003.08
15.030107975,0.03279675,0.1973714,-0.1879081,-0.002913257,-8.351216E-05,0.9984923,37.1596,-13.14787,-20.72276,1003.08
15.049923897,0.03273366,-0.04477606,-0.004140973,-0.002901803,-0.001541942,0.99945,37.16464,-13.52178,-21.0963,1003.073
15.069739819,0.1551184,-0.0448915,0.05703191,-0.006310474,-0.001073808,0.9989884,37.16464,-13.52178,-21.0963,1003.073
15.089555264,-0.02870241,-0.04504467,-0.1875883,-0.006812091,-0.0001095063,0.9961001,37.16464,-13.52178,-21.0963,1003.072
15.109371185,0.09379809,0.07586583,0.05724458,-0.005350908,0.0003884842,0.9975427,37.1596,-13.14787,-20.72276,1003.072
15.129187107,-0.2124509,-0.04535007,0.05733117,-0.005840495,0.001850256,0.9990008,37.1596,-13.14787,-20.72276,1003.071
15.149003029,-0.09002712,-0.04538815,-0.00366804,-0.004875502,0.0008720668,0.9951292,36.78331,-12.78516,-20.72786,1003.071
15.168818474,0.09357265,0.1360549,-0.1259069,-0.00439079,0.002340044,0.9970647,36.78331,-12.78516,-20.72786,1003.072
15.188634396,0.03246948,0.07531454,-0.06469725,-0.0009586334,0.0009109504,1.002831,36.78331,-12.78516,-20.72786,1003.072
15.208450317,0.03244559,0.2567205,0.05788604,-0.006294631,-0.001551358,1.002847,36.41852,-13.15584,-20.71999,1003.071
15.228266239,-0.09006436,0.1355824,-0.06429617,-0.007291817,0.002825929,1.002875,36.41852,-13.15584,-20.71999,1003.071
15.248082161,0.03249425,0.1356408,-0.1254124,-0.003897347,0.002836516,0.9999607,36.79552,-13.51133,-20.33488,1003.07
15.267897606,-0.0900927,0.1355092,0.0581787,-0.005799551,-0.001053714,1.006226,36.79552,-13.51133,-20.33488,1003.07
15.290190697,-0.3963706,1.164013,-0.1863668,0.01271713,0.004934236,1.026428,36.79552,-13.51133,-20.33488,1003.069
15.310006619,-0.3346613,0.9197629,-0.002680406,-0.009731706,-0.0001257793,0.9956332,36.41852,-13.15584,-20.71999,1003.069
15.329822540,-0.02817282,0.3131248,-1.102522,-0.0127245,0.00322775,0.9792558,36.41852,-13.15584,-20.71999,1003.066
15.349638462,-0.0902576,0.01323059,-3.667925,-0.02221919,0.05481854,0.9897091,36.43002,-13.88923,-20.70703,1003.066
15.369453907,-0.02902413,-0.04728211,0.001822725,-0.004851417,0.00333364,1.006243,36.43002,-13.88923,-20.70703,1003.065
15.389269829,-0.0902576,-0.04728211,0.1241476,-0.0049452,0.0174439,1.001972,36.43002,-13.88923,-20.70703,1003.065
15.409085751,-0.0902576,0.07374329,6.056906,0.01781406,0.02775832,0.9898336,37.15385,-12.78118,-20.72924,1003.064
15.428901672,-0.1514911,-0.2288202,8.13643,-0.002512073,-0.06823888,1.003932,37.15385,-12.78118,-20.72924,1003.064
15.448717117,-0.02902413,0.134256,9.665491,-0.01259567,-0.005968741,1.001894,36.41852,-13.15584,-20.71999,1003.063
15.468533039,0.1546763,0.1947687,1.897859,-0.02243895,0.01100805,0.99576,36.41852,-13.15584,-20.71999,1003.063
15.488348961,0.1546763,-0.1077948,-0.05933973,-0.004817167,-0.008374812,0.997012,36.41852,-13.15584,-20.71999,1003.062
15.508164883,0.0934428,0.134256,0.1241476,-0.00339469,-0.001549146,0.9975221,36.80127,-13.87803,-20.3284,1003.062
15.527980805,-0.02902413,0.2552814,-0.05933973,-0.004841071,0.0008966742,1.005265,36.80127,-13.87803,-20.3284,1003.063
15.547797203,-0.0902576,0.134256,0.1853101,-0.002431801,0.002848754,1.001884,36.80127,-13.87803,-20.3284,1003.063
15.570089340,0.0934428,0.07374329,0.001822725,-0.00191769,-0.002995339,1.000402,36.80127,-13.87803,-20.3284,1003.063
15.589905262,-0.02902413,-0.1683075,0.1853101,-0.003889727,0.0008864745,0.9989852,36.80127,-13.87803,-20.3284,1003.063
15.609721184,0.03220934,0.1947687,-0.05933973,-0.004849314,-0.00204245,0.9980101,36.79482,-13.51855,-20.7149,1003.064
15.629537106,0.03220934,-0.1077948,-0.1205022,-0.0004766914,-6.741239E-05,0.9999271,36.79482,-13.51855,-20.7149,1003.064
15.649352551,-0.0902576,0.01323059,-0.1816646,-0.0067826,-0.001555046,1.002367,36.79482,-13.51855,-20.7149,1003.063
15.669169426,-0.0902576,0.1947687,-0.05933973,-0.00726348,-0.002531412,1.002365,36.79482,-13.51855,-20.7149,1003.063
15.688984871,-0.3351915,0.3157941,-1.099101,-0.002495609,0.01160285,0.9975847,36.79482,-13.51855,-20.7149,1003.065
15.708800793,0.1546763,-0.2893329,-11.98602,0.08875664,-0.03219327,1.014719,37.16535,-13.51457,-20.71629,1003.065
15.728616715,-0.1514911,0.8604085,-5.747448,-0.02073195,-0.0318279,0.9979441,37.16535,-13.51457,-20.71629,1003.066
15.748432636,0.03220934,-0.4103583,-2.444675,0.06956846,0.003726925,1.009217,37.16535,-13.51457,-20.71629,1003.066
15.768248081,0.767011,-2.165227,2.081346,0.03417058,-0.01007077,1.017545,37.16535,-13.51457,-20.71629,1003.068
15.788064003,-0.2127245,-0.2893329,4.405519,0.03006037,0.03326178,1.024548,37.16535,-13.51457,-20.71629,1003.068
15.807879925,-0.1514911,0.2552814,0.2464726,0.05346045,-0.07916158,0.9982601,36.41852,-13.15584,-20.71999,1003.063
15.830173016,0.03220934,0.07374329,9.665491,0.03258292,0.009384595,1.011862,36.41852,-13.15584,-20.71999,1003.063
15.849988938,0.2771432,-0.04728211,0.2464726,-0.09498181,0.01106488,0.9734716,36.80056,-13.88524,-20.70842,1003.066
15.869804859,-0.02902413,-0.2893329,0.3687975,0.06887268,-0.04545631,1.009451,36.80056,-13.88524,-20.70842,1003.066
15.889620304,-0.02902413,0.6183577,3.732733,0.02973416,-0.003291714,1.011329,36.80056,-13.88524,-20.70842,1003.065
15.909436226,-0.2127245,0.5578449,7.830617,0.05397119,-0.01544444,0.9676933,36.42427,-13.52253,-20.71351,1003.065
15.929252148,-0.3351915,1.647074,-5.80861,-0.06188472,0.005877515,0.9722983,36.42427,-13.52253,-20.71351,1003.066
15.949068070,-0.5188919,1.586561,3.977382,-0.01085932,0.01638009,0.9773825,36.127,-14.25924,-20.69939,1003.066
15.968883515,-0.5801253,1.283997,-6.114423,-0.02942402,-0.02498478,1.02747,36.127,-14.25924,-20.69939,1003.065
15.988699436,0.03220934,0.134256,-4.157224,-0.05104089,0.02510223,1.046188,36.127,-14.25924,-20.69939,1003.065
16.008515835,0.3383767,-0.7734345,4.405519,0.07336118,-0.001700509,0.9715191,36.10974,-13.15916,-20.71883,1003.069
16.028331757,0.03220934,0.134256,-7.52116,0.0904537,-0.00547266,0.9858865,36.10974,-13.15916,-20.71883,1003.069
16.048147678,0.2159097,-0.1077948,-9.233708,-0.01489219,0.04265739,0.9789876,36.10974,-13.15916,-20.71883,1003.068
16.067963600,0.1546763,-0.470871,-13.27043,0.02788565,-0.03354266,0.9899463,35.38592,-14.26721,-20.69662,1003.068
16.087779045,-0.1514911,1.041947,-10.76277,0.0252893,-0.01118484,0.9784911,35.38592,-14.26721,-20.69662,1003.069
16.110071659,0.4608436,-0.8944599,-7.398835,-0.06743789,0.06045802,1.002535,36.11549,-13.52585,-20.71235,1003.069
16.129888058,-0.02902413,0.07374329,-13.08694,0.006910346,-0.01707436,0.9988338,36.11549,-13.52585,-20.71235,1003.07
16.149703980,-0.3351915,0.07374329,-19.69249,-0.01037048,0.0374059,1.012723,35.7392,-13.16314,-20.71744,1003.07
16.169519901,0.0934428,-0.7734345,-7.154185,0.07647607,-0.02598828,0.9892364,35.7392,-13.16314,-20.71744,1003.07
16.189335823,0.03220934,-0.1077948,-11.31323,0.02891409,-0.06674105,0.9516385,35.7392,-13.16314,-20.71744,1003.07
16.209151268,0.2771432,-0.9549726,-12.53648,-0.01692796,0.02498329,0.9233999,35.36784,-13.17554,-21.15941,1003.073
16.228967190,0.1546763,0.6183577,-4.463037,0.1069061,-0.06278811,1.009636,35.36784,-13.17554,-21.15941,1003.073
16.248783112,0.1546763,-0.8944599,10.88874,0.07366825,-0.006858646,1.053064,35.36784,-13.17554,-21.15941,1003.073
16.268599033,-0.02902413,-1.136511,0.8580971,-0.09333567,-0.00883757,0.9955635,35.73416,-12.78923,-20.34391,1003.073
16.288414478,0.3996102,0.01323059,10.64409,-0.0057159,-0.03423723,0.976129,35.73416,-12.78923,-20.34391,1003.072
16.308231354,-0.0902576,1.102459,3.243433,0.01232353,-0.04193373,0.9764733,35.73991,-13.15592,-20.33743,1003.072
16.328046799,0.5833105,-1.015485,10.27712,0.04584219,0.005633322,1.043144,35.73991,-13.15592,-20.33743,1003.072
16.347862721,-0.4576584,0.1947687,3.121108,0.03019016,0.0147774,1.032175,35.73991,-13.15592,-20.33743,1003.072
16.370155335,0.3996102,-0.3498456,13.57989,-0.01150368,-0.02934428,0.998389,33.88147,-12.80914,-20.33697,1003.071
16.389971733,-0.3964249,0.9209212,1.592047,0.004834583,-0.04113238,0.9210105,33.88147,-12.80914,-20.33697,1003.071
16.409787655,-0.02902413,-0.04728211,6.362718,0.05053556,0.008959157,0.9987288,34.25201,-12.80516,-20.33835,1003.071
16.429603577,-0.2127245,1.465536,6.485043,-0.01797949,0.008645291,1.015996,34.25201,-12.80516,-20.33835,1003.071
16.449419022,0.2771432,-0.5918964,-8.316272,-0.04332197,0.05687461,1.080096,34.25201,-12.80516,-20.33835,1003.072
16.469234943,0.5220771,-0.470871,-22.38364,-0.02475296,0.01939036,1.044084,33.21436,-13.54262,-19.94144,1003.072
16.489050865,0.767011,-0.2288202,-23.54572,-0.02719483,-0.00556201,1.000045,33.21436,-13.54262,-19.94144,1003.071
16.508866787,0.5833105,-0.7734345,-8.132784,0.04147106,0.02956957,1.084318,33.52173,-13.55373,-20.70263,1003.071
16.528682232,0.1546763,-0.8339472,7.40248,-0.02203033,0.0393096,1.019554,33.52173,-13.55373,-20.70263,1003.07
16.548498154,-0.02902413,-0.3498456,9.237353,0.0150667,0.03373161,1.049731,33.52173,-13.55373,-20.70263,1003.07
16.568314552,-0.5188919,0.4973322,6.118068,-0.03899063,0.005044224,0.9813397,33.50518,-12.44643,-20.34206,1003.071
16.588130474,0.03220934,-0.3498456,12.72361,-0.05684211,0.08488306,1.012256,33.50518,-12.44643,-20.34206,1003.071
16.607946396,-0.5188919,-0.8944599,15.90406,-0.08153665,0.01233518,1.067527,32.46107,-12.82441,-20.33164,1003.071
16.630239010,0.03220934,0.134256,11.13339,0.01644872,-0.07058941,0.9980242,32.46107,-12.82441,-20.33164,1003.071
16.650055409,-0.3964249,0.5578449,6.852018,-0.1533309,0.01565905,0.9849161,32.46107,-12.82441,-20.33164,1003.072
16.669870854,0.5220771,-0.4103583,-2.200026,0.13798,-0.01524302,1.072458,32.45462,-12.46493,-20.71814,1003.072
16.689686775,0.3383767,-0.5918964,10.4606,0.03995463,-0.009588799,1.003036,32.45462,-12.46493,-20.71814,1003.073
16.709502697,0.2159097,0.3763068,12.54013,-0.03229766,-0.02056835,1.047781,32.08983,-12.83561,-20.71027,1003.073
16.729318619,-0.0902576,0.134256,11.86734,0.005657189,-0.03062323,1.036903,32.08983,-12.83561,-20.71027,1003.075
16.749134541,-0.3964249,0.07374329,4.772494,-0.05200186,0.003595176,1.014226,32.08983,-12.83561,-20.71027,1003.075
16.768949986,0.3996102,0.07374329,3.182271,0.001159813,-0.006777203,1.040911,31.35521,-13.20305,-20.321,1003.078
16.788766384,-0.3964249,0.8604085,1.530884,-0.05903348,0.03664385,1.003332,31.35521,-13.20305,-20.321,1003.078
16.808582306,0.3996102,0.4973322,-11.25207,-0.04958964,0.09515677,1.016613,30.67589,-13.21036,-20.31845,1003.077
16.828398228,-0.02902413,-0.1683075,-21.03806,-0.08094709,0.04873183,1.015099,30.67589,-13.21036,-20.31845,1003.077
16.848214150,-0.1514911,0.5578449,-25.74757,0.06931851,-0.04792709,0.9935071,30.67589,-13.21036,-20.31845,1003.073
16.868030071,-0.1514911,1.041947,-18.0411,-0.0574187,0.003519447,0.9944651,30.67085,-12.83644,-19.94492,1003.073
16.887845516,0.2159097,-0.3498456,-12.29183,0.07857207,-0.03613683,1.016685,30.67085,-12.83644,-19.94492,1003.072
16.910138607,0.3996102,-0.1077948,4.099708,-0.02710834,0.04353082,0.9636132,30.97317,-12.47365,-20.33257,1003.072
16.929954529,-0.2127245,0.8604085,0.1241476,0.01468335,-0.02143985,0.9891154,30.97317,-12.47365,-20.33257,1003.073
16.949770451,-1.00876,1.162972,-3.851412,0.00741374,-0.009237695,1.016731,30.97317,-12.47365,-20.33257,1003.073
16.969586373,-0.273958,0.2552814,-6.114423,4.129834E-05,-0.002486629,1.005221,30.65864,-12.11027,-20.33789,1003.072
16.989401817,0.3383767,-0.2893329,11.13339,0.1018041,-0.01898538,1.01182,30.65864,-12.11027,-20.33789,1003.072
17.009218693,-0.5801253,1.526048,7.218993,0.02402933,-0.04087135,0.987999,30.65314,-11.81191,-20.72331,1003.071
17.029034138,0.2159097,-0.2893329,9.053866,-0.07434865,-0.01116935,0.9973783,30.65314,-11.81191,-20.72331,1003.071
17.048850060,0.2159097,-0.1683075,-0.4263145,-0.0006104249,-0.06483792,0.996699,30.65314,-11.81191,-20.72331,1003.068
17.068665981,-0.4576584,0.1947687,-1.649564,-0.02294227,0.007571277,0.9851262,29.54153,-11.82386,-20.71914,1003.068
17.088481903,-0.273958,0.01323059,0.6134473,-0.1029927,0.001917002,1.033803,29.54153,-11.82386,-20.71914,1003.067
17.108297825,0.4608436,-0.7129218,-2.628163,0.05354845,-0.002690837,1.007341,28.80595,-12.13018,-20.33095,1003.067
17.128113270,0.0934428,-0.470871,-10.57928,-0.08152747,0.04523999,0.981779,28.80595,-12.13018,-20.33095,1003.067
17.147929668,0.644544,-0.6524091,-16.63437,0.005867755,0.01953603,1.038607,28.80595,-12.13018,-20.33095,1003.067
17.170222282,0.0934428,-0.1077948,-18.5304,0.09834117,-0.02882234,0.9784833,28.42487,-11.46189,-20.34144,1003.068
17.190038204,-0.273958,0.8604085,-0.5486394,0.005043821,-0.01116165,1.031697,28.42487,-11.46189,-20.34144,1003.068
17.209854603,0.3996102,-0.2893329,1.102747,0.05250361,-0.005680694,0.9812664,28.41841,-11.10242,-20.72794,1003.069
17.229670525,-0.3351915,0.3763068,9.848978,0.01961431,-0.02821053,0.9977418,28.41841,-11.10242,-20.72794,1003.069
17.249486446,-0.6413588,1.34451,3.365758,0.03075938,-0.03209256,0.9793191,28.41841,-11.10242,-20.72794,1003.07
17.269301891,-0.7638257,0.5578449,10.64409,-0.05755637,0.04253082,1.018317,27.73251,-10.75144,-21.17523,1003.07
17.289117813,-0.8862927,0.6788703,12.4178,0.08452822,0.03696503,1.029578,27.73251,-10.75144,-21.17523,1003.07
17.308933735,0.03220934,-0.7129218,18.10591,0.01336728,0.07168426,1.04173,27.73251,-10.75144,-21.17523,1003.07
17.328750134,-0.1514911,0.739383,2.387159,-0.02170279,-0.0200987,1.017799,27.71609,-9.642935,-20.75132,1003.071
17.348566055,0.3383767,0.01323059,-8.622084,-0.01147309,-0.02981129,1.006592,27.71609,-9.642935,-20.75132,1003.071
17.368381977,0.2771432,0.9814339,-18.59156,0.006767794,-0.01130978,0.9665248,26.98652,-10.38429,-20.73558,1003.068
17.388197422,-0.4576584,0.2552814,-7.765809,0.07304899,-0.01428924,1.001865,26.98652,-10.38429,-20.73558,1003.068
17.408013344,-0.3351915,1.465536,-4.463037,0.02961309,-0.02195538,0.9451073,26.98652,-10.38429,-20.73558,1003.068
17.427829266,1.746746,-1.499587,-1.282589,0.07362144,-0.02938021,1.002267,26.96939,-9.353741,-21.19729,1003.068
17.450122357,0.1546763,-0.7129218,7.15783,-0.01915997,-0.04053929,1.016715,26.96939,-9.353741,-21.19729,1003.067
17.469938278,-0.2127245,-1.136511,-2.567,0.02020467,-0.05062177,0.9913487,26.59311,-8.991029,-21.20238,1003.067
17.489754200,-0.5801253,-0.470871,0.001822725,0.0167733,0.04139303,0.9923227,26.59311,-8.991029,-21.20238,1003.068
17.509570599,-0.5188919,0.739383,8.442242,-0.01069548,0.009164109,1.013545,26.59311,-8.991029,-21.20238,1003.068
17.529386044,-0.1514911,0.07374329,-6.236748,-0.02641882,0.03634548,1.011358,25.85203,-8.998995,-21.19961,1003.067
17.549201965,-0.5188919,0.9814339,-24.46316,-0.03495289,0.05126728,0.9579037,25.85203,-8.998995,-21.19961,1003.067
17.569017887,-0.02902413,0.1947687,-24.52432,-0.0286556,-0.01437053,0.9850448,25.46353,-7.910109,-21.59768,1003.066
17.588833809,1.011945,-1.257536,-34.12683,0.004403294,0.0190357,1.036199,25.46353,-7.910109,-21.59768,1003.066
17.608649731,0.8282444,-0.5918964,-40.67121,-0.01678744,-0.04643542,0.9896419,25.46353,-7.910109,-21.59768,1003.067
17.628466129,-0.6413588,0.9814339,4.711332,-0.01000172,-0.0420167,0.9901102,25.1497,-7.539515,-21.22298,1003.067
17.648281574,-0.0902576,0.2552814,16.27104,-0.03997433,-0.001812907,0.9668295,25.1497,-7.539515,-21.22298,1003.062
17.668097496,-0.273958,-0.3498456,15.41476,-0.09156077,-0.00308284,0.9550383,25.1212,-5.774372,-21.63432,1003.062
17.687913418,0.3996102,-0.5313838,10.4606,0.1365512,-0.04211695,1.037093,25.1212,-5.774372,-21.63432,1003.068
17.710206509,-0.5801253,1.34451,35.17023,-0.0748973,0.09745701,1.015316,25.1212,-5.774372,-21.63432,1003.068
17.730022431,0.3996102,-0.8339472,15.41476,0.03616415,-0.1108777,1.008328,25.12049,-5.781589,-22.01434,1003.067
17.749838352,-0.3351915,0.4973322,13.51873,-0.05445202,-0.02722958,0.9580899,25.12049,-5.781589,-22.01434,1003.067
17.769653797,0.2771432,-0.7734345,11.50036,0.03284804,-0.0574014,0.9796603,24.39092,-6.522945,-21.9986,1003.064
17.789470673,-0.1514911,0.2552814,21.28636,0.02024232,0.0204354,0.9767503,24.39092,-6.522945,-21.9986,1003.064
17.809286118,0.5220771,-1.439074,15.59825,0.02127514,-0.01178213,0.9413437,24.39092,-6.522945,-21.9986,1003.065
17.829102040,-0.8862927,0.7998958,23.67169,-0.05073113,0.02253419,0.9901819,24.38013,-5.782338,-21.63154,1003.065
17.848917961,-0.1514911,0.6183577,6.729693,0.03221321,-0.01204494,1.010788,24.38013,-5.782338,-21.63154,1003.065
17.868733883,-0.02902413,-0.3498456,1.530884,0.01394679,0.05415397,1.040189,24.0023,-5.435262,-22.46001,1003.065
17.888549328,0.2159097,-0.4103583,18.04475,0.06210632,0.04121282,1.022,24.0023,-5.435262,-22.46001,1003.067
17.908366204,-0.0902576,0.3157941,1.714372,0.09307341,-0.0361246,0.9905415,24.0023,-5.435262,-22.46001,1003.067
17.928181648,0.2771432,0.2552814,13.70221,-0.0002015817,0.05356008,1.026266,23.63259,-5.430825,-22.01526,1003.067
17.947997570,0.3383767,-0.8339472,5.567606,0.06100428,-0.09947858,1.037694,23.63259,-5.430825,-22.01526,1003.067
17.967813492,0.1546763,0.4368195,2.448321,-0.07317907,-0.03546719,1.015106,23.99163,-4.693452,-22.02961,1003.062
17.990106583,-0.273958,0.3157941,2.203671,0.01994772,-0.02147309,0.9639871,23.99163,-4.693452,-22.02961,1003.062
18.009922504,0.0934428,-0.7129218,5.567606,0.03003825,0.01662432,0.9906748,23.99163,-4.693452,-22.02961,1003.061
18.029737949,-0.5188919,-0.1683075,-8.316272,-0.05634102,0.009466005,1.035035,22.86289,-3.67485,-22.48716,1003.061
18.049553871,0.2159097,-0.5918964,-12.96462,0.07100552,0.0002967101,0.9971243,22.86289,-3.67485,-22.48716,1003.062
18.069370270,0.5220771,-0.5918964,-11.68021,0.02768053,-0.009245651,0.9697997,22.85797,-3.299735,-22.05029,1003.062
18.089186192,0.03220934,0.1947687,-20.9769,0.01747842,0.01759718,1.017296,22.85797,-3.299735,-22.05029,1003.061
18.109002113,0.4608436,-0.3498456,-12.71997,0.04290392,-0.03399492,0.9720026,22.85797,-3.299735,-22.05029,1003.061
18.128818035,-0.2127245,-0.5313838,-19.75365,-0.08725207,0.03648968,1.000107,22.83414,-1.841374,-22.51956,1003.062
18.148633480,0.5220771,-0.5918964,-31.0687,-0.03207484,-0.02613175,0.9613519,22.83414,-1.841374,-22.51956,1003.062
18.168450356,-0.0902576,-0.4103583,-30.64057,-0.05067147,-0.007244369,0.9586546,22.82289,-1.176316,-22.91146,1003.061
18.188265801,-0.7638257,0.3157941,-8.071622,0.04364683,-0.08807382,0.9582059,22.82289,-1.176316,-22.91146,1003.061
18.208081722,-0.273958,0.1947687,-2.995138,-0.07836417,0.005831782,0.9887993,22.82289,-1.176316,-22.91146,1003.061
18.227897644,0.2159097,-0.3498456,10.70525,0.01860949,-0.05805975,0.9391899,22.79343,0.6499434,-23.32388,1003.061
18.250190735,0.7057775,0.1947687,10.39944,-0.05851872,0.002445649,0.9553686,22.79343,0.6499434,-23.32388,1003.064
18.270006657,-0.3964249,0.3763068,11.31688,0.1115177,-0.0477878,0.9604547,22.78192,1.383334,-23.33684,1003.064
18.289822578,0.3996102,-0.4103583,7.64713,-0.02791605,0.03728835,1.001717,22.78192,1.383334,-23.33684,1003.066
18.309638977,0.3383767,-0.1077948,15.72057,-0.0602307,0.0755881,1.001608,22.78192,1.383334,-23.33684,1003.066
18.329454422,0.767011,-0.3498456,4.283195,-0.04995657,0.0007434578,1.038816,23.14838,1.700113,-22.96361,1003.069
18.349270344,0.1546763,0.134256,-3.790249,-0.06700697,0.006990072,1.040872,23.14838,1.700113,-22.96361,1003.069
18.369086266,0.767011,-0.5918964,-5.930935,0.0325398,0.08869488,0.9871699,23.13688,2.433504,-22.97657,1003.069
18.388902187,0.8282444,-0.6524091,-0.7932892,-0.04300325,0.03329149,0.9921257,23.13688,2.433504,-22.97657,1003.069
18.408718586,-0.3351915,-0.1683075,8.13643,0.05186807,-0.04651005,1.012917,23.13688,2.433504,-22.97657,1003.066
18.428534508,0.1546763,-1.5601,5.322957,-0.04094734,0.01089248,0.9876552,23.50166,2.804182,-22.98444,1003.066
18.448349953,0.1546763,-0.04728211,5.506444,-0.03419996,0.008928463,0.9663703,23.50166,2.804182,-22.98444,1003.063
18.468165875,-0.0902576,0.7998958,-0.6709643,0.02511762,0.0194914,0.9786496,23.50166,2.804182,-22.98444,1003.063
18.487982273,0.3996102,-0.1683075,9.604328,0.05849131,-0.01776384,1.005788,24.23053,3.538321,-23.38019,1003.064
18.507798195,0.2771432,0.9209212,2.264834,-0.1136397,0.02795301,0.9495265,24.23053,3.538321,-23.38019,1003.064
18.530091286,-0.1514911,0.07374329,-14.55484,-0.04464407,-0.03200982,0.9739401,24.23053,3.538321,-23.38019,1003.063
18.549907208,-0.02902413,0.6788703,-8.989058,0.09759973,-0.06190543,0.9918324,24.23053,3.538321,-23.38019,1003.063
18.569723129,0.0934428,0.01323059,15.53709,-0.02543521,0.03733608,1.016184,24.23053,3.538321,-23.38019,1003.058
18.589539051,0.1546763,0.134256,-0.365152,-0.07239179,0.06867894,0.9895722,24.22548,3.912233,-23.00665,1003.058
18.609354496,-0.1514911,-0.9549726,9.053866,0.02975162,-0.005234725,1.01325,24.22548,3.912233,-23.00665,1003.057
18.629171372,0.03220934,-0.1077948,9.726653,0.03642806,0.001061394,0.9847677,24.59123,4.221795,-23.01344,1003.057
18.648986817,-0.0902576,0.07374329,8.197592,-0.0002603261,-0.03902254,0.9992431,24.59123,4.221795,-23.01344,1003.056
18.668802738,0.2771432,-0.2893329,-4.157224,0.04674244,-0.1221528,0.9541525,24.59123,4.221795,-23.01344,1003.056
18.688619137,-0.1514911,0.9209212,-1.099101,-0.05439,-0.01007473,1.004515,25.26409,4.588576,-23.40248,1003.055
18.708435059,0.03220934,-0.04728211,-2.016538,0.001525389,0.07052462,0.9901424,25.26409,4.588576,-23.40248,1003.055
18.728250981,0.3383767,-0.5918964,1.897859,0.007763331,0.01902167,1.023149,25.26409,4.588576,-23.40248,1003.054
18.748066902,-0.0902576,-0.3498456,4.16087,-0.01667939,0.0188056,0.9861151,25.26409,4.588576,-23.40248,1003.054
18.767882347,0.1546763,-0.1683075,-0.7932892,0.01295445,0.01795833,0.9748468,25.26409,4.588576,-23.40248,1003.056
18.790175438,0.2159097,-0.6524091,-6.05326,-0.08427162,0.01210582,0.9782451,25.26409,4.588576,-23.40248,1003.055
18.809991360,0.4608436,-0.7734345,-7.215347,0.02117731,-0.05208337,0.9889225,25.26409,4.588576,-23.40248,1003.055
18.829807282,0.2159097,-0.5313838,-24.8913,-0.03790759,0.004150403,1.012221,25.62312,5.325949,-23.41683,1003.055
18.849623680,0.2771432,-0.1683075,-29.78429,-0.01481277,-0.05667069,0.981373,25.62312,5.325949,-23.41683,1003.052
18.869439602,0.1546763,-0.2893329,-22.99526,0.06530365,-0.09853364,1.016438,25.62312,5.325949,-23.41683,1003.052
18.889255524,-0.02902413,0.1947687,4.099708,-0.05541995,-0.004254247,0.9973102,25.6338,4.584138,-23.84723,1003.051
18.909070969,-0.2127245,0.01323059,5.017144,-0.03068324,-0.001728761,0.9817421,25.6338,4.584138,-23.84723,1003.051
18.928887844,-0.2127245,0.3157941,0.06298519,-0.06986263,-0.02769041,1.002096,26.35916,5.707827,-23.04607,1003.052
18.948703289,0.03220934,-0.1683075,-6.420235,0.08316875,0.004763044,1.005769,26.35916,5.707827,-23.04607,1003.052
18.968519211,0.3383767,-0.2893329,-7.27651,-0.05118067,0.1087433,1.000281,26.35916,5.707827,-23.04607,1003.052
18.988335133,-0.02902413,0.3763068,-17.73529,0.04565012,-0.08460021,0.9808986,26.73474,5.337898,-23.421,1003.052
19.008151531,0.5220771,0.2552814,-15.96158,-0.03523656,-0.03037584,1.025544,26.73474,5.337898,-23.421,1003.051
19.027967453,-0.0902576,0.9209212,-11.92486,-0.05362238,0.01862721,0.9916257,27.10445,5.333461,-23.86574,1003.051
19.047783375,0.0934428,-0.7734345,-9.417195,0.0004567758,-0.06525418,1.023721,27.10445,5.333461,-23.86574,1003.052
19.070076466,-0.4576584,0.6183577,-11.80253,-0.0159763,0.04550594,0.9510127,27.10445,5.333461,-23.86574,1003.053
19.089891911,0.5220771,-0.1077948,-37.98006,-0.06357138,0.02037341,0.9294236,26.35916,5.707827,-23.04607,1003.053
19.109707832,0.3383767,-0.7129218,-44.40212,-0.03690456,0.06445222,0.9777719,26.35916,5.707827,-23.04607,1003.053
19.129524231,0.2159097,0.07374329,-47.76606,0.03707242,-0.02864434,0.9821982,27.0872,6.433547,-23.88518,1003.052
19.149340153,-0.0902576,-0.1077948,-38.28587,-0.06043077,0.0332583,1.015872,27.0872,6.433547,-23.88518,1003.052
19.169156075,0.7057775,-0.3498456,-45.50304,-0.02430071,0.006657842,1.013124,27.0872,6.433547,-23.88518,1003.05
19.188971996,0.1546763,-0.2288202,-29.66197,0.0957663,-0.07161297,1.008686,26.70765,7.117475,-23.0723,1003.05
19.208788395,0.7057775,-0.6524091,-35.9617,-0.08642762,0.1401735,0.9847068,26.70765,7.117475,-23.0723,1003.049
19.228604317,0.2159097,-0.2288202,-57.91903,-0.02107332,0.09224545,0.9594863,25.95354,7.827263,-23.90585,1003.049
19.248419762,0.2159097,-0.1683075,-59.93739,-0.03572002,0.05336462,1.021632,25.95354,7.827263,-23.90585,1003.05
19.268235684,0.3383767,-0.1077948,-63.48481,0.03148672,-0.06809434,0.9907145,25.95354,7.827263,-23.90585,1003.05
19.288052082,0.5833105,-0.3498456,-47.09327,0.0278136,-0.1031578,0.9968293,26.30107,9.298027,-23.93316,1003.051
19.307868004,0.2771432,-0.1683075,-33.27055,0.02615088,-0.06029021,1.007678,26.30107,9.298027,-23.93316,1003.051
19.330161095,0.3996102,-0.2893329,-25.56409,-0.05564093,0.01905368,0.9708838,25.92082,9.974739,-23.5003,1003.053
19.349977017,-0.02902413,0.01323059,-17.18483,0.02838193,-0.02619995,1.004944,25.92082,9.974739,-23.5003,1003.054
19.369792938,-0.02902413,0.1947687,-33.08707,-0.01197242,0.0529401,0.9964008,25.92082,9.974739,-23.5003,1003.054
19.389608383,0.3383767,-0.2288202,-40.97702,0.04374337,0.01040227,1.006014,25.53303,11.07084,-23.51835,1003.054
19.409425259,0.4608436,-0.470871,-62.99551,-0.03683452,0.06987987,1.007243,25.53303,11.07084,-23.51835,1003.056
19.429240704,0.5220771,0.07374329,-76.75706,0.007814234,-0.01125201,0.9882398,25.16249,11.06686,-23.51696,1003.056
19.449056625,0.3383767,-0.1683075,-71.74174,0.03520038,-0.02615768,1.007803,25.16249,11.06686,-23.51696,1003.057
19.468873024,0.7057775,-0.8944599,-80.42681,0.01846581,0.01614613,1.019214,25.16249,11.06686,-23.51696,1003.057
19.488688946,0.5220771,-0.5313838,-80.91611,-0.002464829,0.02286891,1.025155,24.82509,12.82748,-23.99048,1003.057
19.508504868,0.1546763,0.4973322,-80.18216,-0.02688928,0.07805225,0.9420688,24.82509,12.82748,-23.99048,1003.057
19.528320789,0.3996102,0.2552814,-97.79694,-0.05063635,0.002069302,0.9842842,24.82509,12.82748,-23.99048,1003.06
19.548137188,0.8282444,-0.9549726,-112.9652,0.0007016151,0.05009336,1.000178,22.94365,14.64104,-24.01594,1003.06
19.567953110,1.195645,-0.470871,-125.9317,0.02617637,0.03764623,1.033762,22.94365,14.64104,-24.01594,1003.061
19.587768555,0.767011,0.07374329,-119.9989,0.04166289,-0.04117978,1.024102,23.29367,16.06633,-23.2188,1003.061
19.610061646,0.3996102,0.3763068,-85.44213,0.05255402,-0.1074739,0.9710897,23.29367,16.06633,-23.2188,1003.059
19.629877567,0.3383767,-0.1683075,-55.65601,0.06083129,-0.08298057,1.014129,21.10287,17.79982,-24.06539,1003.06
19.649693489,0.3383767,0.3763068,-26.66501,0.09271235,-0.06439216,0.9807448,21.10287,17.79982,-24.06539,1003.06
19.669509888,-0.1514911,0.2552814,-6.909535,-0.01703967,0.005693623,1.001495,21.10287,17.79982,-24.06539,1003.06
19.689325810,0.2159097,0.1947687,-11.19091,0.04295602,-0.02271363,1.005848,19.59924,19.2663,-23.26238,1003.062
19.709141731,0.2159097,0.4368195,-42.3226,-0.06999013,0.07258106,0.9871656,19.59924,19.2663,-23.26238,1003.062
19.728958130,0.644544,0.4368195,-41.71097,-0.0255667,-0.05872063,0.9621143,19.59924,19.2663,-23.26238,1003.063
19.748774052,0.5220771,-0.2288202,-52.04743,-0.001961314,0.003328821,0.9980219,19.59854,19.25908,-23.6424,1003.063
19.768589497,1.011945,-1.197023,-46.7263,0.03315601,-0.07478069,1.041352,19.59854,19.25908,-23.6424,1003.062
19.788405419,0.3383767,-0.2288202,-60.7325,-0.01125266,0.09725174,0.9951764,19.26771,20.66143,-23.66609,1003.062
19.808221817,0.644544,-1.136511,-63.30132,0.09096112,0.01605531,1.027505,19.26771,20.66143,-23.66609,1003.067
19.828037739,0.5833105,-0.04728211,-49.11163,-0.04937258,-0.009939414,1.04986,19.26771,20.66143,-23.66609,1003.067
19.847853661,1.073178,-0.7129218,-51.55813,0.1242492,-0.04619362,0.9883885,18.52734,20.66068,-23.28329,1003.067
19.870146752,0.3996102,1.041947,-18.34691,-0.03406331,-0.0644485,1.028258,18.52734,20.66068,-23.28329,1003.07
19.889962673,0.644544,-0.7129218,-36.63449,-0.01758586,0.02226998,1.011237,17.02148,22.10431,-23.68368,1003.07
19.909779072,0.5220771,-0.1077948,-73.45428,0.007339405,0.06565043,0.9756052,17.02148,22.10431,-23.68368,1003.07
19.929594994,1.011945,-0.5313838,-60.67133,-0.04229914,-0.0957564,0.9861495,17.02148,22.10431,-23.68368,1003.07
19.949410439,0.7057775,-0.6524091,-61.03831,0.06726369,-0.02601618,0.9974923,16.70037,22.82597,-24.13883,1003.07
19.969226837,0.644544,-0.6524091,-64.34108,0.007345197,0.08667607,1.011914,16.70037,22.82597,-24.13883,1003.071
19.989042759,0.7057775,-0.2288202,-99.93763,-0.002210243,0.132357,0.9948246,15.94382,23.86539,-23.71106,1003.071
20.008858681,0.5220771,1.041947,-124.5861,-0.09304391,0.02622468,0.9962246,15.94382,23.86539,-23.71106,1003.074
20.028674603,0.8894778,-0.04728211,-122.2008,0.09807966,-0.1270713,1.025283,15.94382,23.86539,-23.71106,1003.074
20.048491001,0.7057775,0.3157941,-98.83671,0.08736126,0.02274214,0.9812216,13.39527,24.94548,-23.341,1003.074
20.068306923,0.9507114,-1.136511,-99.69299,0.1261552,-0.04181178,0.9840564,13.39527,24.94548,-23.341,1003.074
20.088122845,0.4608436,-0.5313838,-83.42377,0.01490888,-0.03350047,1.035389,11.22159,25.64842,-23.72588,1003.073
20.107939243,0.7057775,-0.4103583,-82.44517,0.03142819,0.03955951,1.008162,11.22159,25.64842,-23.72588,1003.073
20.130231380,0.767011,0.134256,-98.46973,-0.0002026821,-0.05755848,0.9856327,11.22159,25.64842,-23.72588,1003.068
20.150048256,0.5220771,0.01323059,-75.16684,0.09903519,-0.1393003,1.000115,9.717391,27.03815,-23.74516,1003.07
20.169863701,0.4608436,-0.2288202,-37.06263,0.04031595,0.000101821,0.9823281,9.717391,27.03815,-23.74516,1003.07
20.189679623,0.3996102,0.3763068,-36.81798,-0.01336522,0.05640195,1.021525,7.555095,27.0065,-24.18042,1003.073
20.209496021,0.2771432,-0.6524091,-66.9099,-0.05467624,-0.04171094,1.011111,7.555095,27.0065,-24.18042,1003.073
20.229311943,0.3996102,-0.4103583,-64.40224,0.0008988366,0.0101468,0.9922491,7.555095,27.0065,-24.18042,1003.073
20.249127865,0.3996102,0.01323059,-43.24004,0.002067305,-0.01512957,1.008041,6.07377,26.99899,-23.73151,1003.075
20.268944264,0.2159097,0.4368195,-24.03502,-0.04927537,-0.04995745,1.012488,6.07377,26.99899,-23.73151,1003.075
20.288760185,0.0934428,0.07374329,-21.71085,-0.01653166,-0.005532418,0.989368,4.641047,27.70869,-24.18251,1003.078
20.308575630,0.2159097,-0.4103583,-46.90978,-0.1265431,0.1073887,1.004548,4.641047,27.70869,-24.18251,1003.078
20.328391552,0.5833105,0.4973322,-70.76314,0.0003986994,-0.07458427,0.991334,4.641047,27.70869,-24.18251,1003.08
20.348207951,-0.0902576,0.9814339,-69.96803,-0.06834573,0.0468109,0.9990913,3.906547,27.34245,-23.7299,1003.08
20.368023872,0.2771432,0.9209212,-74.55521,0.01614878,-0.02876077,0.9789335,3.906547,27.34245,-23.7299,1003.079
20.387839794,0.4608436,0.1947687,-56.8181,0.09188452,-0.06380483,1.024193,2.473825,28.05215,-24.18089,1003.079
20.410132885,0.3996102,-0.470871,-34.73845,0.06068854,0.05590089,1.058284,2.473825,28.05215,-24.18089,1003.08
20.429949284,-0.4576584,-0.4103583,-40.48772,-0.09104896,0.06014621,0.9239862,2.473825,28.05215,-24.18089,1003.081
20.449765205,0.4608436,-0.7129218,-39.75377,0.1924265,-0.05213144,1.004396,-0.06297684,28.33052,-24.1768,1003.081
20.469581127,0.644544,-1.499587,-14.55484,0.05399027,-0.05810649,1.045668,-0.06297684,28.33052,-24.1768,1003.081
20.489396572,0.0934428,-2.407278,-12.35299,0.0007972647,-0.02477952,1.047578,0.2458048,28.33384,-24.17796,1003.08
20.509213448,-0.02902413,-0.5313838,-6.603723,-0.01569081,-0.01197692,0.940097,0.2458048,28.33384,-24.17796,1003.08
20.529028893,0.3996102,0.9209212,-9.600683,0.01757393,0.009354616,1.031733,0.2458048,28.33384,-24.17796,1003.076
20.548844814,0.5220771,-0.6524091,-8.927896,0.03117427,0.013324,1.033127,-0.4278965,28.02937,-23.72666,1003.076
20.568661213,0.0934428,0.2552814,-7.27651,0.004515394,-0.012172,1.017697,-0.4278965,28.02937,-23.72666,1003.077
20.588477135,0.3996102,0.5578449,-8.010459,-0.002505234,-0.08534451,0.9777796,-1.168972,28.02141,-23.72388,1003.077
20.608293057,-0.1514911,0.3157941,-13.08694,-0.0785748,0.02670274,0.9613951,-1.168972,28.02141,-23.72388,1003.077
20.628109455,0.2771432,-1.681125,-35.16659,-0.0257125,-0.01531521,0.9908159,-1.168972,28.02141,-23.72388,1003.077
20.647925377,-0.02902413,0.3763068,-37.30728,-0.04078044,-0.08641759,1.019011,-0.8032265,28.33097,-23.73067,1003.078
20.670218468,0.03220934,-0.7129218,-21.71085,0.04456169,0.1072375,0.9775458,-0.8032265,28.33097,-23.73067,1003.079
20.690034390,0.0934428,0.9209212,-26.23687,-0.008020023,0.01780558,0.9566191,-1.545129,28.31459,-24.17125,1003.079
20.709850788,0.8894778,-1.923176,-22.75061,0.102237,0.1004076,1.050079,-1.545129,28.31459,-24.17125,1003.08
20.729666710,0.2771432,0.3763068,-26.3592,-0.0499495,0.1491644,0.9999989,-1.545129,28.31459,-24.17125,1003.08
20.749482155,0.767011,-2.104714,-33.63753,0.1040699,0.07491592,0.9751233,-2.285378,28.31504,-23.72512,1003.08
20.769299030,0.03220934,1.162972,-29.84546,0.0405025,-0.02323071,0.9986183,-2.285378,28.31504,-23.72512,1003.08
20.789114475,0.2159097,0.6788703,2.081346,0.001004006,0.06560833,0.9717782,-2.285378,28.31504,-23.72512,1003.08
20.808930397,-0.273958,-1.80215,-8.683246,-0.08852462,-0.03036011,0.9447454,-3.330443,27.99817,-23.71579,1003.075
20.828746796,-0.2127245,1.223485,3.793895,-0.02553327,-0.01763149,1.039554,-3.330443,27.99817,-23.71579,1003.075
20.848562718,0.767011,-0.2893329,-1.160264,0.1003086,0.02253509,1.06948,-3.705773,28.29977,-23.7198,1003.076
20.868378639,0.3996102,-0.8339472,-0.1205022,0.03036031,0.06686326,1.025201,-3.705773,28.29977,-23.7198,1003.076
20.888195038,0.0934428,0.6183577,9.176191,-0.01572375,0.01390976,0.9730524,-3.705773,28.29977,-23.7198,1003.078
20.908010960,-0.6413588,0.5578449,11.25571,-0.0723867,-0.03119115,0.9692695,-3.701807,27.98577,-24.15775,1003.078
20.927826405,0.0934428,1.162972,10.58293,0.0003187463,-0.04970893,1.008839,-3.701807,27.98577,-24.15775,1003.079
20.950119972,0.4608436,1.223485,-0.6098018,0.07726564,-0.06634541,1.011711,-2.966231,28.2921,-24.54594,1003.08
20.969935417,-0.273958,1.041947,3.91622,0.04945539,-0.09197417,0.9436737,-2.966231,28.2921,-24.54594,1003.08
20.989751816,0.3383767,0.8604085,-2.689325,0.06621516,0.01547869,1.043566,-2.966231,28.2921,-24.54594,1003.081
21.009567738,0.03220934,-0.8339472,-12.04718,-0.007710969,-6.180978E-05,1.017826,-3.331269,27.98975,-24.15914,1003.081
21.029383659,-1.131227,-0.470871,1.408559,-0.005266583,0.0157476,0.9049469,-3.331269,27.98975,-24.15914,1003.081
