Time (s),Gyroscope X (deg/s),Gyroscope Y (deg/s),Gyroscope Z (deg/s),Accelerometer X (g),Accelerometer Y (g),Accelerometer Z (g),Magnetometer X (uT),Magnetometer Y (uT),Magnetometer Z (uT),Barometer (hPa)
0.000000000,-0.04723396,0.2430426,-0.1597527,-0.00921981,-0.007926944,0.990281,18.99004,-37.49208,-30.11045,1013.044
0.007433414,-0.1697009,0.1825299,-0.1597527,-0.01068046,-0.009402299,0.9873853,18.99004,-37.49208,-30.11045,1013.044
0.027256489,-0.2309344,0.3035553,-0.09859026,-0.01168961,-0.001122585,0.9903295,18.99004,-37.49208,-30.11045,1013.049
0.049557686,-0.04723396,0.0615045,-0.09859026,-0.008758076,-0.007942004,0.9830382,19.73604,-37.85923,-30.5501,1013.049
0.069380760,-0.2309344,0.3035553,-0.09859026,-0.01363008,-0.005529035,0.9845253,19.73604,-37.85923,-30.5501,1013.044
0.089204311,-0.04723396,0.2430426,-0.03742781,-0.008749878,-0.007936145,0.9854516,19.73604,-37.85923,-30.5501,1013.044
0.109027863,0.0139995,0.1220172,-0.03742781,-0.009688128,-0.009383204,0.993172,19.74344,-38.20908,-29.65691,1013.044
0.128850937,-0.04723396,0.1825299,-0.03742781,-0.01166074,-0.007457291,0.9883659,19.74344,-38.20908,-29.65691,1013.044
0.148674011,-0.1084674,0.0615045,-0.09859026,-0.01069734,-0.005503388,0.9888535,19.74344,-38.20908,-29.65691,1013.043
0.168497086,-0.1697009,-0.1200336,0.02373465,-0.01069951,-0.004527195,0.9898238,19.73687,-37.85081,-30.10674,1013.043
0.188320160,-0.1697009,0.0615045,-0.2209152,-0.01313823,-0.00210047,0.9917804,19.73687,-37.85081,-30.10674,1013.046
0.208143234,-0.1697009,0.2430426,-0.09859026,-0.01263613,-0.0069754,0.9883738,19.72454,-37.12584,-30.56306,1013.046
0.227966785,-0.1697009,0.1220172,-0.09859026,-0.01364211,-0.006026505,0.9801786,19.72454,-37.12584,-30.56306,1013.048
0.247789860,-0.1084674,0.1825299,-0.09859026,-0.01019466,-0.008422418,0.9888357,19.72454,-37.12584,-30.56306,1013.048
0.267612934,-0.1084674,0.1220172,-0.1597527,-0.01506777,-0.006987985,0.988387,19.37054,-38.23713,-30.92225,1013.049
0.287436009,-0.1084674,0.0615045,-0.1597527,-0.01266229,-0.002594252,0.9879138,19.37054,-38.23713,-30.92225,1013.049
0.307259083,-0.1084674,0.0615045,-0.2209152,-0.01459895,-0.007975722,0.9816219,19.73111,-37.48411,-30.11322,1013.045
0.329560280,-0.2309344,0.0009917939,0.02373465,-0.015082,-0.007975895,0.9825899,19.73111,-37.48411,-30.11322,1013.045
0.349384308,-0.1697009,0.0615045,-0.09859026,-0.007793569,-0.005009565,0.9854614,19.73111,-37.48411,-30.11322,1013.044
0.369207382,-0.1084674,0.0009917939,0.08489711,-0.01070171,-0.005017635,0.9883732,19.00154,-38.22547,-30.09749,1013.044
0.389030457,-0.04723396,0.1825299,0.1460596,-0.007275048,-0.008406144,0.9893025,19.00154,-38.22547,-30.09749,1013.047
0.408853531,-0.04723396,0.1825299,0.08489711,-0.01504161,-0.01136913,0.9888471,18.98512,-37.11697,-29.67357,1013.047
0.428676605,-0.1084674,0.1825299,0.08489711,-0.008753134,-0.006471857,0.9869072,18.98512,-37.11697,-29.67357,1013.049
0.448499680,-0.1697009,0.364068,0.02373465,-0.01020011,-0.007448569,0.9888408,18.98512,-37.11697,-29.67357,1013.049
0.468322754,0.0139995,0.2430426,-0.1597527,-0.0121509,-0.00795142,0.9864354,19.3655,-37.86321,-30.54871,1013.047
0.488146305,0.0139995,0.1825299,0.08489711,-0.01409183,-0.006980608,0.9893472,19.3655,-37.86321,-30.54871,1013.047
0.507969380,-0.1697009,0.1220172,-0.03742781,-0.009726878,-0.005988794,0.9873976,19.73029,-37.49253,-30.55658,1013.048
0.527792454,-0.1084674,0.2430426,-0.03742781,-0.01114658,-0.01036812,0.9917271,19.73029,-37.49253,-30.55658,1013.048
0.547615528,0.0139995,0.3035553,0.08489711,-0.01069302,-0.008922406,0.9844918,19.73029,-37.49253,-30.55658,1013.044
0.567439556,-0.1084674,0.1825299,-0.2209152,-0.007765188,-0.007433641,0.9897928,19.37208,-38.22149,-30.09888,1013.044
0.587262631,-0.1697009,0.1220172,-0.2209152,-0.01024542,-0.004058846,0.9811356,19.37208,-38.22149,-30.09888,1013.041
0.609563828,-0.1084674,0.0009917939,-0.2209152,-0.01116564,-0.005493015,0.9941656,19.37125,-38.22991,-30.54223,1013.041
0.629386902,-0.1697009,0.1220172,-0.03742781,-0.01314375,-0.005526518,0.9845226,19.37125,-38.22991,-30.54223,1013.041
0.649209976,-0.04723396,0.1220172,-0.03742781,-0.009727987,-0.00696733,0.9854619,19.37125,-38.22991,-30.54223,1013.041
0.669033051,0.0139995,0.0009917939,-0.03742781,-0.006799064,-0.005966661,0.9902778,19.37208,-38.22149,-30.09888,1013.038
0.688856125,0.0139995,0.0615045,0.02373465,-0.01167113,-0.00795359,0.9845021,19.37208,-38.22149,-30.09888,1013.038
0.708679199,-0.1084674,0.1220172,-0.1597527,-0.009261264,-0.002578977,0.98693,19.36633,-37.85479,-30.10535,1013.04
0.728502274,-0.04723396,0.2430426,-0.1597527,-0.008253179,-0.008903963,0.9868919,19.36633,-37.85479,-30.10535,1013.04
0.748325825,0.0139995,0.3035553,-0.1597527,-0.01167441,-0.007955933,0.9835368,19.36633,-37.85479,-30.10535,1013.039
0.768149376,-0.1084674,0.1825299,-0.2209152,-0.009207825,-0.01036274,0.9897857,19.73194,-37.47569,-29.66987,1013.039
0.787972450,-0.1084674,0.4245807,-0.03742781,-0.01117769,-0.007457118,0.987398,19.73194,-37.47569,-29.66987,1013.039
0.807795525,-0.1697009,0.1220172,-0.03742781,-0.01505248,-0.007954803,0.9912781,19.36633,-37.85479,-30.10535,1013.039
0.827619076,-0.1697009,0.2430426,-0.03742781,-0.01072353,-0.002588871,0.9859726,19.36633,-37.85479,-30.10535,1013.038
0.847442150,-0.1697009,0.1825299,-0.03742781,-0.0121727,-0.004056024,0.9864556,19.36633,-37.85479,-30.10535,1013.038
0.867265225,-0.1697009,0.0615045,-0.1597527,-0.009226924,-0.0084209,0.9873824,19.36633,-37.85479,-30.10535,1013.036
0.889566422,-0.2921678,0.3035553,-0.03742781,-0.01312682,-0.006492165,0.9878964,19.36633,-37.85479,-30.10535,1013.036
0.909389496,-0.1697009,0.0615045,0.08489711,-0.01116732,-0.008427451,0.988841,19.37125,-38.22991,-30.54223,1013.038
0.929212570,-0.1697009,0.1220172,-0.09859026,-0.01459292,-0.00699367,0.9850057,19.37125,-38.22991,-30.54223,1013.038
0.949035645,-0.04723396,0.0615045,-0.2209152,-0.01310391,-0.009409025,0.9898119,19.37125,-38.22991,-30.54223,1013.037
0.968859673,-0.04723396,0.1825299,-0.2209152,-0.01070009,-0.006483097,0.986435,19.36633,-37.85479,-30.10535,1013.037
0.988682747,0.07523298,0.0615045,-0.09859026,-0.0102061,-0.005497355,0.9902989,19.36633,-37.85479,-30.10535,1013.035
1.008505821,-0.04723396,0.1825299,-0.09859026,-0.01019683,-0.007446225,0.9898061,19.37208,-38.22149,-30.09888,1013.035
1.028328896,-0.1084674,0.1825299,-0.03742781,-0.01167933,-0.007959449,0.9820887,19.37208,-38.22149,-30.09888,1013.037
1.048151970,-0.1697009,-0.05952091,-0.03742781,-0.01554918,-0.006986986,0.9898378,19.37208,-38.22149,-30.09888,1013.037
1.067975044,0.07523298,0.0615045,-0.03742781,-0.008765674,-0.00452533,0.9864345,18.99496,-37.8672,-30.54732,1013.037
1.087798595,-0.04723396,0.0615045,-0.03742781,-0.009749278,-0.005515931,0.981608,18.99496,-37.8672,-30.54732,1013.037
1.107621670,-0.04723396,0.1220172,-0.2820776,-0.009230711,-0.005979246,0.9902911,19.73687,-37.85081,-30.10674,1013.037
1.127444744,-0.2309344,0.2430426,-0.1597527,-0.005834604,-0.005967487,0.9878591,19.73687,-37.85081,-30.10674,1013.037
1.147268295,0.0139995,0.0009917939,-0.09859026,-0.009220942,-0.01037211,0.9859244,19.73687,-37.85081,-30.10674,1013.039
1.169569492,-0.04723396,0.0009917939,-0.03742781,-0.007273454,-0.01133824,0.9849433,19.73604,-37.85923,-30.5501,1013.039
1.189392567,-0.1084674,0.3035553,0.02373465,-0.01413601,-0.001145716,0.9859987,19.73604,-37.85923,-30.5501,1013.039
1.209216118,-0.1084674,0.1220172,-0.03742781,-0.01261922,-0.009407679,0.9893267,19.3655,-37.86321,-30.54871,1013.039
1.229039192,0.0139995,0.0009917939,-0.03742781,-0.01069792,-0.007459288,0.9854647,19.3655,-37.86321,-30.54871,1013.039
1.248862267,-0.1084674,0.3035553,-0.09859026,-0.01019305,-0.009887879,0.9868975,19.3655,-37.86321,-30.54871,1013.039
1.268685341,-0.1084674,0.0615045,-0.09859026,-0.01166183,-0.006969195,0.9888512,19.73111,-37.48411,-30.11322,1013.039
1.288508415,-0.1697009,0.0009917939,-0.03742781,-0.01307989,-0.01134735,0.9936633,19.73111,-37.48411,-30.11322,1013.039
1.308332443,-0.04723396,0.0615045,-0.1597527,-0.009234545,-0.006470858,0.9883577,20.10083,-37.48855,-30.55796,1013.038
1.328155518,-0.04723396,0.2430426,-0.09859026,-0.009240549,-0.005986277,0.9873949,20.10083,-37.48855,-30.55796,1013.038
1.347978592,0.0139995,0.3035553,-0.03742781,-0.01652838,-0.005530074,0.9903333,20.10083,-37.48855,-30.55796,1013.038
1.367801666,-0.1084674,0.2430426,0.08489711,-0.008714361,-0.008399634,0.9951026,19.73111,-37.48411,-30.11322,1013.042
1.387624741,-0.04723396,0.0009917939,-0.2209152,-0.01068155,-0.008914203,0.9878705,19.73111,-37.48411,-30.11322,1013.042
1.407447815,-0.1697009,0.1825299,-0.03742781,-0.01313169,-0.003562415,0.9912902,19.73111,-37.48411,-30.11322,1013.04
1.427271366,0.1364664,0.0615045,-0.1597527,-0.008253155,-0.007437329,0.9893129,19.73111,-37.48411,-30.11322,1013.04
1.449572086,-0.1084674,0.1220172,0.02373465,-0.01262904,-0.007948077,0.9888515,19.73111,-37.48411,-30.11322,1013.04
1.469395638,-0.1084674,0.0615045,-0.03742781,-0.006805091,-0.006948714,0.9868941,19.73604,-37.85923,-30.5501,1013.04
1.489219189,-0.1084674,0.0009917939,-0.09859026,-0.01315679,-0.001135995,0.987924,19.73604,-37.85923,-30.5501,1013.038
1.509042263,-0.2921678,0.364068,-0.09859026,-0.009738378,-0.007463629,0.981598,19.36633,-37.85479,-30.10535,1013.038
1.528865337,-0.04723396,0.0615045,0.02373465,-0.01069406,-0.005501044,0.9898188,19.36633,-37.85479,-30.10535,1013.043
1.548688889,-0.1084674,0.1825299,0.02373465,-0.01262686,-0.00892427,0.9878811,19.36633,-37.85479,-30.10535,1013.043
1.568511963,0.0139995,0.0615045,-0.1597527,-0.01411308,-0.002595944,0.9903352,19.3655,-37.86321,-30.54871,1013.043
1.588335037,0.07523298,0.0009917939,0.08489711,-0.01506228,-0.005028569,0.9932238,19.3655,-37.86321,-30.54871,1013.043
1.608158112,-0.04723396,0.1825299,-0.03742781,-0.01020339,-0.007450912,0.9878755,19.35892,-37.50494,-30.99854,1013.041
1.627982140,-0.04723396,0.1825299,-0.03742781,-0.008293546,-0.004044091,0.9830557,19.35892,-37.50494,-30.99854,1013.041
1.647805214,-0.1084674,0.1220172,-0.1597527,-0.00827334,-0.005007394,0.9873947,19.35892,-37.50494,-30.99854,1013.041
1.667628288,-0.1084674,0.1220172,-0.03742781,-0.01166019,-0.006968023,0.9893339,19.37125,-38.22991,-30.54223,1013.041
1.687451363,0.0139995,0.2430426,-0.1597527,-0.01165691,-0.006965679,0.9902993,19.37125,-38.22991,-30.54223,1013.041
1.707274437,-0.1084674,0.1825299,-0.09859026,-0.009738333,-0.004530364,0.9864398,19.73687,-37.85081,-30.10674,1013.041
1.729575634,-0.1084674,0.1220172,-0.03742781,-0.01216725,-0.005029873,0.9864505,19.73687,-37.85081,-30.10674,1013.045
1.749398709,-0.1084674,0.0009917939,0.02373465,-0.01314206,-0.002592082,0.9898471,19.73687,-37.85081,-30.10674,1013.045
1.769221783,-0.04723396,0.0615045,0.1460596,-0.01115478,-0.01037398,0.9893137,19.73521,-37.86765,-30.99345,1013.045
1.789045811,-0.04723396,0.0615045,-0.09859026,-0.007767891,-0.005480084,0.9922163,19.73521,-37.86765,-30.99345,1013.045
1.808868885,0.0139995,0.1220172,-0.1597527,-0.01066628,-0.01134765,0.9883405,19.74344,-38.20908,-29.65691,1013.043
1.828691960,-0.2309344,0.0009917939,-0.1597527,-0.01458578,-0.005033083,0.9903253,19.74344,-38.20908,-29.65691,1013.043
1.848515034,-0.04723396,0.1825299,-0.03742781,-0.007784263,-0.004025169,0.9898105,19.74344,-38.20908,-29.65691,1013.043
1.868338108,-0.04723396,0.0615045,-0.03742781,-0.01165695,-0.009898944,0.9854574,19.74919,-38.57578,-29.65043,1013.043
1.888161659,-0.04723396,0.0009917939,0.02373465,-0.01168584,-0.005030871,0.9849998,19.74919,-38.57578,-29.65043,1013.043
1.907985211,0.0139995,0.1220172,-0.03742781,-0.009733437,-0.005993481,0.985467,19.37125,-38.22991,-30.54223,1013.043
1.927808285,0.0139995,0.1220172,-0.09859026,-0.01117988,-0.007947558,0.9859475,19.37125,-38.22991,-30.54223,1013.047
1.947631359,-0.1084674,0.0009917939,-0.1597527,-0.01115908,-0.005488328,0.9960963,19.37125,-38.22991,-30.54223,1013.047
1.967454911,-0.1084674,-0.05952091,-0.09859026,-0.00971487,-0.006957956,0.9893233,19.36058,-37.4881,-30.11184,1013.046
1.987277985,-0.1697009,0.1825299,-0.1597527,-0.00972794,-0.004034065,0.9903038,19.36058,-37.4881,-30.11184,1013.046
2.009579182,-0.2309344,0.1220172,-0.2209152,-0.01312518,-0.006490993,0.9883789,19.00154,-38.22547,-30.09749,1013.046
2.029402256,-0.1697009,0.0615045,-0.03742781,-0.01409183,-0.006980608,0.9893472,19.00154,-38.22547,-30.09749,1013.046
2.049225330,-0.04723396,0.0615045,-0.03742781,-0.016542,-0.003095452,0.9903459,19.00154,-38.22547,-30.09749,1013.046
2.069048882,-0.2309344,0.1220172,0.02373465,-0.007776157,-0.00988584,0.9825401,19.3655,-37.86321,-30.54871,1013.046
2.088872433,-0.1084674,0.1825299,0.02373465,-0.01896603,-0.005058078,0.9893838,19.3655,-37.86321,-30.54871,1013.046
2.108695507,0.0139995,0.2430426,0.08489711,-0.01506341,-0.007473738,0.9888672,18.98921,-37.5005,-30.5538,1013.046
2.128518581,-0.1084674,0.0615045,-0.03742781,-0.009244913,-0.005500524,0.9869148,18.98921,-37.5005,-30.5538,1013.049
2.148341656,-0.04723396,0.1825299,-0.2209152,-0.009714846,-0.005491323,0.9917443,18.98921,-37.5005,-30.5538,1013.049
2.168164730,-0.1084674,0.0009917939,-0.03742781,-0.01120496,-0.004054505,0.9850022,19.00729,-38.59217,-30.09101,1013.048
2.187988758,0.0139995,0.0009917939,-0.03742781,-0.01019249,-0.00939861,0.9878654,19.00729,-38.59217,-30.09101,1013.048
2.207811832,0.07523298,0.0615045,-0.09859026,-0.01310878,-0.006479275,0.9932057,19.00729,-38.59217,-30.09101,1013.048
2.227634907,0.1364664,0.0615045,-0.09859026,-0.01214053,-0.008921754,0.9878785,19.36633,-37.85479,-30.10535,1013.048
2.247457981,0.0139995,0.0615045,0.02373465,-0.01266342,-0.00503942,0.9835572,19.36633,-37.85479,-30.10535,1013.049
2.267281056,-0.1084674,0.1825299,0.02373465,-0.009212721,-0.008899622,0.9907585,18.99004,-37.49208,-30.11045,1013.049
2.289582253,-0.04723396,0.1220172,0.08489711,-0.01164765,-0.008914549,0.9898065,18.99004,-37.49208,-30.11045,1013.048
2.309405327,-0.04723396,0.1825299,-0.03742781,-0.01170979,0.00130735,0.9884112,19.37043,-38.23833,-30.98558,1013.048
2.329229355,-0.04723396,0.3035553,-0.03742781,-0.01312573,-0.006980261,0.9874111,19.37043,-38.23833,-30.98558,1013.048
2.349052429,-0.04723396,0.1220172,-0.03742781,-0.01022958,-0.004536396,0.9849944,19.37043,-38.23833,-30.98558,1013.048
2.368875504,-0.04723396,0.2430426,0.02373465,-0.01262197,-0.01038739,0.9869082,19.36058,-37.4881,-30.11184,1013.048
2.388698578,-0.1084674,0.1220172,-0.03742781,-0.01363555,-0.006021818,0.9821094,19.36058,-37.4881,-30.11184,1013.048
2.408521652,0.0139995,0.1220172,-0.03742781,-0.008765697,-0.005991963,0.9840136,19.36058,-37.4881,-30.11184,1013.05
2.428345203,-0.2309344,0.1220172,0.02373465,-0.0131246,-0.004535092,0.9917678,19.36633,-37.85479,-30.10535,1013.05
2.448168755,-0.04723396,0.0615045,0.02373465,-0.01072023,-0.001119895,0.9893588,19.36633,-37.85479,-30.10535,1013.05
2.467991829,-0.1084674,0.1220172,-0.03742781,-0.01458853,-0.00601279,0.9879068,19.73604,-37.85923,-30.5501,1013.05
2.487814903,-0.04723396,0.1825299,-0.09859026,-0.01362839,-0.002594599,0.9898498,19.73604,-37.85923,-30.5501,1013.05
2.507638455,-0.1084674,0.0615045,0.02373465,-0.00728648,-0.005481082,0.9907656,19.73604,-37.85923,-30.5501,1013.05
2.527461529,-0.1084674,0.4850934,-0.03742781,-0.01263941,-0.006977744,0.9874085,19.36633,-37.85479,-30.10535,1013.048
2.547284603,-0.2309344,0.1220172,-0.03742781,-0.01309569,-0.007936534,0.9946462,19.36633,-37.85479,-30.10535,1013.048
2.569586277,-0.04723396,0.0009917939,0.02373465,-0.01263178,-0.008927786,0.986433,19.73111,-37.48411,-30.11322,1013.048
2.589409351,-0.1697009,0.1220172,-0.1597527,-0.009229117,-0.00891134,0.9859319,19.73111,-37.48411,-30.11322,1013.048
2.609232426,0.1364664,0.2430426,-0.1597527,-0.01798191,-0.006511475,0.9903362,19.73111,-37.48411,-30.11322,1013.048
2.629055977,-0.04723396,0.0615045,-0.09859026,-0.009721451,-0.008429276,0.9849716,19.37783,-38.58818,-30.0924,1013.048
2.648879051,0.0139995,0.0615045,-0.03742781,-0.01311918,-0.006975574,0.9893419,19.37783,-38.58818,-30.0924,1013.051
2.668702126,-0.04723396,0.2430426,0.02373465,-0.007297403,-0.005000017,0.9883547,19.3655,-37.86321,-30.54871,1013.051
2.688525677,-0.3534013,0.0615045,-0.03742781,-0.009236161,-0.005005397,0.9902961,19.3655,-37.86321,-30.54871,1013.049
2.708349228,-0.04723396,0.1220172,-0.2209152,-0.01022628,-0.00306742,0.9883806,19.3655,-37.86321,-30.54871,1013.049
2.728172302,0.0139995,0.0009917939,-0.03742781,-0.0145907,-0.005036599,0.9888772,19.37208,-38.22149,-30.09888,1013.048
2.747995377,-0.1697009,0.1220172,-0.03742781,-0.01555355,-0.006501234,0.9893577,19.37208,-38.22149,-30.09888,1013.048
2.767818451,-0.04723396,0.0009917939,-0.2209152,-0.01264102,-0.005512283,0.9893468,19.35975,-37.49652,-30.55519,1013.046
2.787641525,-0.04723396,0.3035553,0.02373465,-0.01313005,-0.003561243,0.9917729,19.35975,-37.49652,-30.55519,1013.046
2.807465553,-0.1697009,0.2430426,-0.03742781,-0.009254705,-0.00257429,0.9888606,19.35975,-37.49652,-30.55519,1013.05
2.827288628,-0.1084674,0.1825299,-0.03742781,-0.01166566,-0.007460807,0.986918,19.74754,-38.59262,-30.53714,1013.05
2.849589825,-0.1084674,0.0615045,-0.09859026,-0.01119409,-0.007468836,0.9825712,19.74754,-38.59262,-30.53714,1013.048
2.869412899,-0.1084674,0.3035553,-0.03742781,-0.01462126,-0.001636329,0.9855161,19.36058,-37.4881,-30.11184,1013.048
2.889235974,-0.1084674,0.0615045,0.02373465,-0.01357493,-0.008911727,0.9951265,19.36058,-37.4881,-30.11184,1013.046
2.909059048,-0.1697009,0.0615045,0.08489711,-0.0136022,-0.005509114,0.9927307,19.36058,-37.4881,-30.11184,1013.046
2.928883076,-0.1697009,0.0615045,-0.09859026,-0.009210019,-0.01085318,0.9883351,19.3655,-37.86321,-30.54871,1013.048
2.948706150,-0.04723396,0.0615045,0.02373465,-0.01214053,-0.008921754,0.9878785,19.3655,-37.86321,-30.54871,1013.048
2.968529225,-0.04723396,0.3035553,-0.09859026,-0.01021919,-0.004040097,0.9888583,18.62525,-37.86276,-30.10258,1013.05
2.988352299,-0.04723396,0.1220172,-0.03742781,-0.01265033,-0.006496679,0.9849976,18.62525,-37.86276,-30.10258,1013.05
3.008175373,-0.04723396,0.1220172,-0.09859026,-0.006331279,-0.003533037,0.9888397,18.62525,-37.86276,-30.10258,1013.049
3.027999401,-0.1084674,0.1220172,-0.03742781,-0.01409564,-0.006005587,0.9898348,19.36633,-37.85479,-30.10535,1013.049
3.047822475,-0.1697009,0.1825299,0.02373465,-0.009756301,-0.0001433562,0.9883931,19.36633,-37.85479,-30.10535,1013.049
3.067645550,-0.1697009,0.0615045,-0.03742781,-0.009231842,-0.008424414,0.9859344,19.74837,-38.5842,-30.09378,1013.049
3.087468624,0.07523298,0.2430426,-0.1597527,-0.008271123,-0.003050322,0.9912662,19.74837,-38.5842,-30.09378,1013.047
3.107291698,-0.04723396,0.0009917939,-0.03742781,-0.01020284,-0.006961645,0.9888433,19.74837,-38.5842,-30.09378,1013.047
3.129592896,-0.04721308,0.06131328,-0.1596289,-0.01216287,-0.004048993,0.9893517,19.73029,-37.49253,-30.55658,1013.049
3.149416924,-0.04697927,0.1216721,0.02414397,-0.01313499,-0.005031391,0.9879039,19.73029,-37.49253,-30.55658,1013.049
3.169239998,-0.1079219,0.1213096,0.08541864,-0.01407655,-0.007947426,0.9922382,20.10165,-37.48013,-30.11461,1013.049
3.189063072,-0.1076125,-9.635964E-05,-0.1590042,-0.01313502,-0.006498024,0.985483,20.10165,-37.48013,-30.11461,1013.049
3.208886147,-0.1073423,0.2416317,-0.09753853,-0.009700113,-0.00694741,0.9936674,20.10165,-37.48013,-30.11461,1013.049
3.228709221,-0.1071112,0.05971501,-0.09754318,-0.01118859,-0.00550942,0.987408,19.73604,-37.85923,-30.5501,1013.049
3.248533249,-0.04560893,0.1804766,-0.09750946,-0.00922637,-0.007931631,0.9883502,19.73604,-37.85923,-30.5501,1013.049
3.268356323,-0.1067471,0.05922601,-0.03617899,-0.01261645,-0.006961339,0.994166,19.36633,-37.85479,-30.10535,1013.049
3.288179398,0.01583407,0.1194381,0.02513183,-0.00972249,-0.005007914,0.9902987,19.36633,-37.85479,-30.10535,1013.049
3.308002472,-0.04517009,-0.002001125,-0.03588258,-0.01115802,-0.007443056,0.9931901,19.36633,-37.85479,-30.10535,1013.049
3.327825546,-0.04490294,0.2397128,-0.03573489,-0.01117492,-0.005010778,0.9922373,19.37043,-38.23833,-30.98558,1013.049
3.347649098,-0.2895894,-0.002749833,-0.03541475,-0.01311211,-0.009414883,0.9873985,19.37043,-38.23833,-30.98558,1013.049
3.367472649,-0.2894006,0.1785103,-0.03517218,-0.01554429,-0.008450103,0.9888648,19.37208,-38.22149,-30.09888,1013.052
3.387295723,-0.04402853,0.2388978,-0.09630394,-0.01020125,-0.009893738,0.9844841,19.37208,-38.22149,-30.09888,1013.052
3.409596920,-0.04369281,0.1780333,-0.09620459,-0.01264155,-0.004534919,0.9907997,19.37208,-38.22149,-30.09888,1013.052
3.429419994,0.1403479,-0.003799763,-0.03485818,-0.01215638,-0.008444203,0.9840195,19.36633,-37.85479,-30.10535,1013.052
3.449243069,-0.1044579,0.05645675,-0.03477063,-0.01118259,-0.005994,0.9883708,19.36633,-37.85479,-30.10535,1013.052
3.469067097,-0.04300062,-0.1858498,-0.09586503,-0.01262137,-0.006964854,0.9927179,19.36703,-37.84758,-29.72534,1013.052
3.488890171,-0.2264201,0.2373701,-0.1568445,-0.01068591,-0.008428451,0.9873903,19.36703,-37.84758,-29.72534,1013.052
3.508713246,-0.0424397,0.2975148,-0.03433697,-0.01165966,-0.007945387,0.9878809,19.36703,-37.84758,-29.72534,1013.052
3.528536320,-0.2870748,0.05513485,-0.09537486,-0.006320379,-0.005480736,0.9888296,19.73182,-37.47689,-29.73321,1013.05
3.548359871,-0.1641948,0.0547305,-0.09523147,-0.01020175,-0.007449741,0.988358,19.73182,-37.47689,-29.73321,1013.05
3.568183422,-0.1026836,0.2359033,-0.09505001,-0.009714315,-0.006468688,0.9902912,19.74261,-38.2175,-30.10026,1013.046
3.588006497,0.08129385,0.2357099,0.02730236,-0.01361368,-0.005517317,0.989352,19.74261,-38.2175,-30.10026,1013.046
3.607829571,-0.04110811,0.1144536,-0.09484152,-0.01506941,-0.006989157,0.9879044,19.74261,-38.2175,-30.10026,1013.046
3.627653122,0.08155817,0.2350967,-0.2169091,-0.007771746,-0.007438328,0.9878622,19.7384,-37.83517,-29.28337,1013.045
3.647476196,-0.04071001,0.1137091,-0.03316503,-0.009203969,-0.008404493,0.9941399,19.7384,-37.83517,-29.28337,1013.045
3.667299748,-0.2853495,0.1134235,-0.1552915,-0.009708334,-0.008419901,0.9888331,19.36633,-37.85479,-30.10535,1013.045
3.689600945,-0.2848896,0.1736161,0.1508442,-0.01072083,-0.004542428,0.9835491,19.36633,-37.85479,-30.10535,1013.047
3.709424019,-0.2234213,0.1126866,0.02860129,-0.01069951,-0.004527195,0.9898238,19.36633,-37.85479,-30.10535,1013.047
3.729247093,-0.2232447,0.1124417,-0.1548235,-0.01506449,-0.006985642,0.9893525,19.3655,-37.86321,-30.54871,1013.047
3.749070645,-0.1005056,-0.008847026,-0.03226344,-0.01458578,-0.005033083,0.9903253,19.3655,-37.86321,-30.54871,1013.047
3.768894196,-0.03913513,0.05136503,-0.1545841,-0.01215908,-0.006490647,0.986443,20.10741,-37.84682,-30.10813,1013.047
3.788717270,-0.1612923,0.2326603,-0.0932447,-0.0140913,-0.007957972,0.9878941,20.10741,-37.84682,-30.10813,1013.047
3.808540344,0.02269774,0.2926458,-0.09322172,-0.009229071,-0.005978074,0.9907736,20.10741,-37.84682,-30.10813,1013.047
3.828363896,-0.03836212,0.0502972,-0.1541886,-0.006785393,-0.005468019,0.9951071,18.63675,-38.59615,-30.08962,1013.044
3.848186970,0.08431647,0.1106077,0.02957069,-0.01119843,-0.005516451,0.984512,18.63675,-38.59615,-30.08962,1013.044
3.868010044,-0.09928811,0.0497793,0.02968842,-0.01166238,-0.007458462,0.9878834,19.74179,-38.22592,-30.54362,1013.046
3.887833595,-0.09905806,0.2309455,-0.09249997,-0.01361585,-0.004541124,0.9903225,19.74179,-38.22592,-30.54362,1013.046
3.907657147,-0.03749902,-0.01141927,-0.03122048,-0.01166894,-0.00746315,0.9859527,19.74179,-38.22592,-30.54362,1013.044
3.927480221,-0.1598141,0.4119705,0.02994359,-0.01311158,-0.01039225,0.9859456,19.73757,-37.84359,-29.72673,1013.044
3.947303295,0.02411466,0.04850571,-0.214551,-0.007771215,-0.008415692,0.9864091,19.73757,-37.84359,-29.72673,1013.044
3.969604492,0.0244117,0.3507234,-0.153109,-0.01314317,-0.003570617,0.9879115,19.74179,-38.22592,-30.54362,1013.044
3.989428043,-0.03669085,0.108343,-0.0307261,-0.01166836,-0.005507249,0.9893415,19.74179,-38.22592,-30.54362,1013.044
4.009251118,-0.09775534,0.1685457,-0.03062974,-0.008764566,-0.003546794,0.9883702,19.74179,-38.22592,-30.54362,1013.044
4.029074669,-0.158705,0.2287112,-0.2140978,-0.009711104,-0.01086624,0.9839937,19.73604,-37.85923,-30.5501,1013.043
4.048897743,-0.09722683,0.1680041,-0.09177292,-0.01264758,-0.00551697,0.987416,19.73604,-37.85923,-30.5501,1013.043
4.068721294,-0.2807407,-0.01376575,-0.0304377,-0.01115857,-0.007932324,0.9922222,19.74261,-38.2175,-30.10026,1013.041
4.088544369,-0.09681606,0.04670551,-0.03036134,-0.01166779,-0.003551349,0.9927303,19.74261,-38.2175,-30.10026,1013.041
4.108367920,0.02591314,0.1674996,0.09203976,-0.01019901,-0.006470033,0.9907764,19.74261,-38.2175,-30.10026,1013.043
4.128190994,-0.1575639,0.3486553,0.0309726,-0.01213834,-0.008431314,0.989329,19.37125,-38.22991,-30.54223,1013.043
4.148014069,-0.03497047,0.1668117,0.09224929,-0.01119734,-0.006004547,0.9840268,19.37125,-38.22991,-30.54223,1013.043
4.167837620,-0.09592396,0.1060131,-0.03000004,-0.007803938,-0.004039231,0.9840183,18.99496,-37.8672,-30.54732,1013.043
4.187661171,-0.1570127,-0.01524046,0.09253456,-0.009222582,-0.01037328,0.9854416,18.99496,-37.8672,-30.54732,1013.045
4.207484245,-0.156926,0.2265637,0.0315813,-0.009738887,-0.005019632,0.985472,18.99496,-37.8672,-30.54732,1013.045
4.227307320,-0.0953947,0.1051785,-0.151755,-0.01069189,-0.006477238,0.9888484,19.73687,-37.85081,-30.10674,1013.043
4.249608994,-0.1563972,0.2863436,-0.2127385,-0.01312899,-0.005515972,0.9888667,19.73687,-37.85081,-30.10674,1013.043
4.269432068,-0.09502086,0.2254729,-0.0290435,-0.01120115,-0.005029527,0.9845145,19.73687,-37.85081,-30.10674,1013.047
4.289255142,-0.1559581,0.1041853,-0.09017146,-0.008774934,-0.00257646,0.9869273,19.73687,-37.85081,-30.10674,1013.047
4.309078693,0.08932886,0.04346798,-0.02893628,-0.01265631,-0.004545465,0.9864557,19.73687,-37.85081,-30.10674,1013.047
4.328901768,-0.09423061,0.1038525,0.09353799,-0.007789737,-0.004517952,0.9873946,18.99088,-37.5544,-30.1727,1013.047
4.348724842,-0.03272212,-0.0173387,-0.1510587,-0.01314703,-0.005528862,0.9835573,18.99088,-37.5544,-30.1727,1013.045
4.368548393,-0.2163212,0.04287563,-0.0283545,-0.004836288,-0.007899605,0.9921878,19.74261,-38.2175,-30.10026,1013.045
4.388371468,-0.03248134,-0.01787767,-0.02803367,-0.01262033,-0.01038622,0.9873908,19.74261,-38.2175,-30.10026,1013.045
4.408195496,0.02896817,0.1029078,-0.02788643,-0.01168476,-0.005518967,0.9845147,19.74261,-38.2175,-30.10026,1013.045
4.428018093,0.09026346,0.1630293,0.03338442,-0.009762327,-0.001125408,0.9850094,20.10811,-37.83961,-29.72812,1013.045
4.447841644,-0.03198803,0.2232467,-0.02774663,-0.0141022,-0.006010273,0.9879042,20.10811,-37.83961,-29.72812,1013.045
4.467664719,-0.03171553,-0.07951632,-0.02756182,-0.009225838,-0.008908996,0.9868972,20.10811,-37.83961,-29.72812,1013.049
4.487488270,-0.03136669,0.1017656,-0.02751186,-0.01117113,-0.007452431,0.9893287,18.99017,-37.56161,-30.55272,1013.049
4.507311344,-0.03121109,0.2224975,-0.1497869,-0.01313504,-0.007964656,0.983062,18.99017,-37.56161,-30.55272,1013.048
4.529612541,-0.03093067,0.2222491,-0.2719575,-0.01213619,-0.01087414,0.9859378,19.3655,-37.86321,-30.54871,1013.048
4.549436093,-0.3369051,0.1614822,0.03415357,-0.01168365,-0.004540431,0.9864504,19.3655,-37.86321,-30.54871,1013.046
4.569259167,-0.09179816,0.100773,0.09530702,-0.01168421,-0.0050297,0.9854826,19.37125,-38.22991,-30.54223,1013.046
4.589082241,-0.09158687,0.1005201,-0.210399,-0.0131246,-0.004535092,0.9917678,19.37125,-38.22991,-30.54223,1013.049
4.608905792,0.03112932,0.03973602,-0.08789144,-0.01214654,-0.008437173,0.9869156,19.37125,-38.22991,-30.54223,1013.049
4.628728867,-0.2135367,0.09992104,-0.02664265,-0.01605406,-0.004558397,0.9884049,18.9965,-37.85156,-29.72395,1013.049
4.648552418,-0.2745991,0.09963211,0.03458666,-0.01070716,-0.004043786,0.9883782,18.9965,-37.85156,-29.72395,1013.049
4.668375492,-0.02934103,0.09945793,-0.08761394,-0.01363714,-0.003089726,0.9864686,18.9965,-37.85156,-29.72395,1013.049
4.688199043,-0.02919052,0.09920824,0.03498849,-0.006814929,-0.006955745,0.9839979,18.99004,-37.49208,-30.11045,1013.049
4.708022118,-0.02898276,0.2199276,0.03511181,-0.004853769,-0.007423227,0.9878463,18.99004,-37.49208,-30.11045,1013.049
4.727845669,-0.1513193,0.03821719,-0.148291,-0.01168201,-0.00453926,0.9869331,19.74179,-38.22592,-30.54362,1013.049
4.747668743,-0.3346782,0.2801531,-0.08692901,-0.01359188,-0.009412713,0.989332,19.74179,-38.22592,-30.54362,1013.047
4.767492294,-0.1506181,0.2194688,-0.08680682,-0.008735675,-0.008414867,0.9888278,19.74179,-38.22592,-30.54362,1013.047
4.787315369,-0.08910254,-0.02284816,0.1579842,-0.01067009,-0.01037263,0.9888283,19.7425,-38.2187,-30.1636,1013.051
4.809616566,-0.1501613,0.0977101,0.09697062,-0.0145689,-0.008931994,0.988857,19.7425,-38.2187,-30.1636,1013.051
4.829440117,-0.08874306,0.2184712,-0.08656824,-0.007289782,-0.006950059,0.9873793,19.35579,-37.18252,-30.11724,1013.051
4.849263191,-0.02726765,-0.1449255,0.03589721,-0.008761309,-0.005011083,0.9869147,19.35579,-37.18252,-30.11724,1013.051
4.869086266,-0.0882213,-0.02399225,-0.02520181,-0.01019517,-0.00597842,0.9927097,19.35579,-37.18252,-30.11724,1013.049
4.888909817,-0.0880383,0.03646667,-0.1473867,-0.01263668,-0.007464668,0.987406,19.36153,-37.54921,-30.11076,1013.049
4.908733368,-0.1489739,0.09679291,-0.0860654,-0.00971159,-0.006955612,0.9902887,19.36153,-37.54921,-30.11076,1013.049
4.928556442,-0.08746247,0.1570627,0.09754201,-0.01263398,-0.009418225,0.9849825,18.62525,-37.86276,-30.10258,1013.049
4.948379517,-0.02612474,0.1566684,-0.02477832,-0.0116564,-0.009409676,0.9864252,18.62525,-37.86276,-30.10258,1013.049
4.968203068,-0.1484684,0.1563891,-0.08585944,-0.01262031,-0.008919584,0.9898118,18.62525,-37.86276,-30.10258,1013.049
4.988026619,-0.2093675,-0.02552256,0.03660423,-0.008731265,-0.005967355,0.9941499,19.73675,-37.85201,-30.17008,1013.047
5.007849693,-0.02529524,0.1559087,-0.02445815,-0.006823612,-0.003050973,0.9878795,19.73675,-37.85201,-30.17008,1013.047
5.027672768,-0.08656131,0.1556692,-0.0245887,-0.008737292,-0.006949407,0.9907659,19.73675,-37.85201,-30.17008,1013.046
5.047496319,-0.08632484,0.09495565,-0.08567028,-0.00776027,-0.007430126,0.9912409,19.73675,-37.85201,-30.17008,1013.046
5.067319393,-0.02499001,0.09473629,0.03675454,-0.01218252,-0.002596422,0.9859805,19.73675,-37.85201,-30.17008,1013.048
5.089621067,-0.08594166,-0.0264996,-0.02428134,-0.01167439,-0.006489301,0.9859577,19.73687,-37.85081,-30.10674,1013.048
5.109444141,0.0978592,0.1550671,0.09816217,-0.009700645,-0.005970045,0.9951205,19.73687,-37.85081,-30.10674,1013.046
5.129267216,-0.2693452,0.2153994,-0.1464846,-0.006338347,-0.001093728,0.9907829,19.00729,-38.59217,-30.09101,1013.046
5.149090290,0.03707546,0.09411807,-0.02406071,-0.01020663,-0.004519991,0.991752,19.00729,-38.59217,-30.09101,1013.044
5.168914318,-0.1465258,0.2148123,0.03714294,-0.01169347,-0.00308083,0.9859754,19.00729,-38.59217,-30.09101,1013.044
5.188737392,0.0984107,0.03307675,0.03724157,-0.01071261,-0.003069937,0.9883833,19.36633,-37.85479,-30.10535,1013.043
5.208560467,-0.08513317,0.1538102,-0.02366887,-0.01119566,-0.00307011,0.9893514,19.36633,-37.85479,-30.10535,1013.043
5.228383541,-0.08470811,0.09329115,-0.0235519,-0.004371783,-0.005468324,0.9897844,19.37208,-38.22149,-30.09888,1013.045
5.248207092,-0.02331967,0.092962,-0.02343513,-0.01264483,-0.004537262,0.9898344,19.37208,-38.22149,-30.09888,1013.045
5.268030644,-0.08443693,0.0928235,-0.02326108,-0.009253688,-0.007462284,0.9811127,19.37208,-38.22149,-30.09888,1013.043
5.287853718,-0.02312606,0.03183082,0.03782542,-0.01164,-0.009397958,0.991252,19.73604,-37.85923,-30.5501,1013.043
5.307676792,-0.02287582,0.09214973,0.09908493,-0.01119349,-0.004046303,0.9883809,19.73604,-37.85923,-30.5501,1013.042
5.327500343,-0.02276075,0.09180443,-0.02314315,-0.01410442,-0.007967346,0.9840326,19.73207,-37.54523,-30.11214,1013.042
5.347323895,-0.08389854,0.03108033,-0.2676197,-0.008753156,-0.007938489,0.9844862,19.73207,-37.54523,-30.11214,1013.044
5.369625092,-0.08362313,0.2126258,-0.0229628,-0.009213807,-0.008411525,0.9912438,19.73207,-37.54523,-30.11214,1013.044
5.389448166,-0.02200686,0.212396,-0.1450957,-0.01020778,-0.008431792,0.9849743,19.37196,-38.22269,-30.16221,1013.04
5.409271240,-0.0829545,0.09129326,-0.02261765,-0.006366242,-0.002580281,0.9801565,19.37196,-38.22269,-30.16221,1013.04
5.429095268,0.03972068,-0.02990437,-0.02258004,-0.007335046,-0.0006270707,0.984516,19.00647,-38.60059,-30.53436,1013.04
5.448918343,-0.02140112,0.2121456,0.16106,-0.009236184,-0.00647203,0.9878752,19.00647,-38.60059,-30.53436,1013.04
5.468741417,-0.02134744,0.1512522,-0.08345663,-0.01266176,-0.003571616,0.9864607,19.00647,-38.60059,-30.53436,1013.043
5.488564491,-0.2048789,0.02984705,-0.0222767,-0.01361366,-0.004050685,0.991773,19.00071,-38.23389,-30.54084,1013.043
5.508388519,0.04022328,0.02954427,-0.02229752,-0.00970233,-0.008904483,0.9897959,19.00071,-38.23389,-30.54084,1013.041
5.528211594,-0.08224854,0.1504195,-0.08342313,-0.006815437,-0.004511747,0.987872,19.00729,-38.59217,-30.09101,1013.041
5.548034668,-0.02096241,0.08979516,-0.0833097,-0.01654262,-0.007984618,0.9821152,19.00729,-38.59217,-30.09101,1013.038
5.567857742,0.1017108,0.1501584,-0.02195724,-0.0165311,-0.005043151,0.9903358,19.00729,-38.59217,-30.09101,1013.038
5.587681770,0.04058716,0.2103891,-0.2053128,-0.01167217,-0.004532229,0.9898291,19.37208,-38.22149,-30.09888,1013.042
5.607504845,-0.0205751,0.08908238,-0.08285632,-0.0111788,-0.008435654,0.9854623,19.37208,-38.22149,-30.09888,1013.042
5.627327919,-0.1428174,0.02827006,0.1618095,-0.01362892,-0.001617234,0.9913028,18.63171,-38.22224,-29.71608,1013.042
5.649629116,-0.01996646,0.2700701,0.03952684,-0.008291375,-0.005020284,0.9820853,18.63171,-38.22224,-29.71608,1013.042
5.669452191,-0.142018,0.2093542,0.03960036,-0.009715955,-0.00646986,0.9898084,18.63171,-38.22224,-29.71608,1013.04
5.689276219,-0.08060092,0.08805013,-0.08265116,-0.0116749,-0.004045304,0.9898316,19.73604,-37.85923,-30.5501,1013.04
5.709099293,-0.08037934,0.1484368,0.03978535,-0.008742766,-0.00744219,0.98835,19.73604,-37.85923,-30.5501,1013.044
5.728922367,-0.0801392,0.02717165,-0.08240908,-0.0136268,-0.005526691,0.9854906,18.99567,-37.85998,-30.1673,1013.044
5.748745442,-0.1411523,0.1479959,-0.02113576,-0.01070607,-0.004531882,0.9878932,18.99567,-37.85998,-30.1673,1013.04
5.768569470,-0.07973747,-0.03374284,-0.08209166,-0.01018977,-0.009885535,0.9878628,18.99567,-37.85998,-30.1673,1013.04
5.788392544,0.1653389,0.2082217,-0.02089588,-0.007767404,-0.009390714,0.9859214,19.36153,-37.54921,-30.11076,1013.042
5.808215618,-0.01833462,0.08695848,-0.1431874,-0.01119132,-0.005022496,0.9874105,19.36153,-37.54921,-30.11076,1013.042
5.828038693,-0.01819253,0.08693016,-0.02069508,-0.01166127,-0.006479927,0.989819,19.73604,-37.85923,-30.5501,1013.042
5.847862721,-0.01805074,0.02627518,-0.0818248,-0.009225838,-0.008908996,0.9868972,19.73604,-37.85923,-30.5501,1013.041
5.867685795,-0.07908513,0.08674097,-0.02057204,-0.01067497,-0.007442884,0.9922221,19.73604,-37.85923,-30.5501,1013.041
5.887508869,-0.07892499,0.2075485,-0.1429029,-0.01216615,-0.004051337,0.9883862,19.37208,-38.22149,-30.09888,1013.039
5.907331944,-0.07884219,0.02586928,-0.08149685,-0.01605463,-0.006514297,0.9850161,19.37208,-38.22149,-30.09888,1013.039
5.929633618,0.04392425,0.2072585,0.1021439,-0.01166291,-0.006481098,0.9893364,19.74332,-38.21029,-29.72025,1013.036
5.949456692,-0.01726572,0.08584574,-0.1425128,-0.01458144,-0.006985468,0.9883844,19.74332,-38.21029,-29.72025,1013.034
5.969280243,-0.01701095,0.08595309,-0.01998364,-0.01217984,-0.006016611,0.9811361,19.74332,-38.21029,-29.72025,1013.034
5.989103317,0.04436126,0.2068957,-0.01993354,-0.01068864,-0.007941525,0.9873928,20.10658,-37.85524,-30.55149,1013.034
6.008926868,-0.2004918,0.08580673,-0.01982578,-0.009725238,-0.005987622,0.9878803,20.10658,-37.85524,-30.55149,1013.038
6.028749943,0.04469556,0.02502164,0.04142483,-0.009213784,-0.006944893,0.9936647,19.36621,-37.856,-30.16869,1013.038
6.048573494,-0.07771058,0.206459,-0.1418594,-0.0131061,-0.009899464,0.9883613,19.36621,-37.856,-30.16869,1013.036
6.068396568,-0.07768843,0.02453548,0.102705,-0.008771655,-0.002574117,0.9878926,19.36621,-37.856,-30.16869,1013.036
6.088220119,-0.01618304,0.08491061,0.04164939,-0.01169679,-0.006016438,0.980168,19.74179,-38.22592,-30.54362,1013.034
6.108043194,0.04520633,-0.03630894,-0.1417314,-0.008263547,-0.007933628,0.985449,19.74179,-38.22592,-30.54362,1013.034
6.127866745,-0.1383962,0.02401001,-0.08040509,-0.009213275,-0.00938889,0.9897907,19.00142,-38.22667,-30.16082,1013.037
6.147689819,-0.1381833,0.08438636,0.1644658,-0.01167548,-0.006001204,0.9864428,19.00142,-38.22667,-30.16082,1013.037
6.167513371,0.04567187,0.2055228,-0.01889694,-0.01118042,-0.006970194,0.9874005,19.00142,-38.22667,-30.16082,1013.035
6.187336445,-0.1379125,0.144969,-0.08001193,-0.01553281,-0.008441901,0.9922436,19.36071,-37.55763,-30.55411,1013.035
6.209637642,-0.07630882,0.08408493,0.1035286,-0.009720874,-0.006473375,0.9883603,19.36071,-37.55763,-30.55411,1013.033
6.229460716,0.1076792,0.1443295,0.04229817,-0.005341161,-0.005471014,0.990755,19.00154,-38.22547,-30.09749,1013.033
6.249284744,-0.07590705,0.1440811,-0.1410266,-0.008250985,-0.008413522,0.9883423,19.00154,-38.22547,-30.09749,1013.036
6.269107819,-0.3207273,-0.0377427,0.04264205,-0.01261647,-0.00842797,0.9917451,19.00154,-38.22547,-30.09749,1013.036
6.288930893,-0.136779,0.2042319,0.04265007,-0.009235675,-0.008916027,0.9840011,19.73604,-37.85923,-30.5501,1013.032
6.308753967,-0.1366085,0.08320657,-0.1408484,-0.00920891,-0.009874642,0.990271,19.73604,-37.85923,-30.5501,1013.032
6.328577995,0.04720414,0.02261794,0.04255114,-0.01020503,-0.007452084,0.9873927,19.37043,-38.23833,-30.98558,1013.032
6.348401070,-0.01401328,0.08278892,-0.018507,-0.01460599,-0.00406978,0.9859862,19.37043,-38.23833,-30.98558,1013.032
6.368224144,-0.07505785,0.08250517,-0.1408048,-0.01119353,-0.006979568,0.9835392,19.37043,-38.23833,-30.98558,1013.03
6.388047218,0.04753981,0.08233604,0.04278655,-0.008776574,-0.002577632,0.9864445,20.11808,-38.58863,-30.53852,1013.03
6.407871246,-0.2585355,0.0822053,-0.1407123,-0.01116621,-0.007448915,0.9907767,20.11808,-38.58863,-30.53852,1013.03
6.427694321,-0.01337541,0.08194192,-0.07948449,-0.01263936,-0.004044479,0.9922503,19.37125,-38.22991,-30.54223,1013.03
6.447517395,-0.1969461,0.02124244,0.04300155,-0.008263547,-0.007933628,0.985449,19.37125,-38.22991,-30.54223,1013.029
6.467340469,-0.1354104,0.02105614,-0.07923942,-0.01069081,-0.006965334,0.9883631,19.37125,-38.22991,-30.54223,1013.029
6.489642620,-0.2577063,0.08130041,-0.07916903,-0.01116949,-0.007451259,0.9898114,19.75329,-38.95931,-30.53066,1013.033
6.509465695,0.04889664,-0.1004988,0.1655836,-0.008224243,-0.01083877,0.9921913,19.75329,-38.95931,-30.53066,1013.033
6.529288769,-0.07344323,0.4442729,0.1043126,-0.01019194,-0.008909343,0.9888332,19.00718,-38.59337,-30.15434,1013.031
6.549111843,-0.1958795,-0.04014628,-0.01794783,-0.0170033,-0.009924287,0.9864519,19.00718,-38.59337,-30.15434,1013.031
6.568935871,-0.07332444,-0.1613558,-0.07885408,-0.01456943,-0.007954629,0.9903101,19.00718,-38.59337,-30.15434,1013.028
6.588758946,-0.0733134,0.08062515,-0.07882884,-0.01164058,-0.01135386,0.9878632,19.38276,-38.9633,-30.52927,1013.028
6.608582020,-0.1344589,0.01991022,-0.01744933,-0.01360768,-0.006001897,0.9903149,19.38276,-38.9633,-30.52927,1013.026
6.628405571,-0.01176962,0.01972723,-0.1396729,-0.008244958,-0.00743147,0.9917263,19.74096,-38.23434,-30.98697,1013.026
6.648229122,-0.1341302,0.0194498,-0.07840936,-0.01071917,-0.003074624,0.9864526,19.74096,-38.23434,-30.98697,1013.028
6.668052197,-0.07292508,0.1403693,-0.07834697,-0.008746045,-0.007444534,0.9873847,19.74096,-38.23434,-30.98697,1013.028
6.687875271,-0.01148928,0.1401308,-0.01725658,-0.01556835,-0.009445045,0.9801716,19.74179,-38.22592,-30.54362,1013.027
6.707698822,-0.2562982,0.01896252,-0.07843328,-0.01363987,-0.002602801,0.9864711,19.74179,-38.22592,-30.54362,1013.027
6.727522373,-0.1335723,-0.04193953,0.1051166,-0.01315301,-0.003577648,0.9850153,19.74179,-38.22592,-30.54362,1013.025
6.747345448,-0.194701,0.01858356,-0.01722272,-0.01410874,-0.004548329,0.9883943,19.74754,-38.59262,-30.53714,1013.025
6.767168522,-0.01083852,-0.04199472,0.04398296,-0.0107148,-0.003560377,0.9869329,19.74754,-38.59262,-30.53714,1013.027
6.789470196,-0.1330827,-0.04212287,0.1052323,-0.01119457,-0.003558206,0.9888662,19.00647,-38.60059,-30.53436,1013.027
6.809293270,-0.07161122,0.1393311,-0.1393554,-0.01164437,-0.008912206,0.9907718,19.00647,-38.60059,-30.53436,1013.025
6.829116345,-0.1328378,-0.1030125,-0.2003023,-0.0106957,-0.005502216,0.9893362,19.74179,-38.22592,-30.54362,1013.025
6.848939896,-0.1326773,0.07830939,-0.01677285,-0.01021321,-0.00599131,0.9874002,19.74179,-38.22592,-30.54362,1013.024
6.868763447,-0.1323057,-0.1033493,0.04447,-0.01024868,-0.002594557,0.9825911,19.74179,-38.22592,-30.54362,1013.024
6.888586521,-0.1320696,0.01761268,-0.01659296,-0.01018483,-0.008415386,0.9917318,19.74754,-38.59262,-30.53714,1013.022
6.908409596,-0.07065827,-0.1036468,-0.07757948,-0.00729193,-0.004507233,0.9907706,19.74754,-38.59262,-30.53714,1013.022
6.928232670,-0.1928709,0.1382654,-0.01631821,-0.01653166,-0.005532418,0.989368,19.74754,-38.59262,-30.53714,1013.02
6.948056698,-0.07024647,-0.04342985,0.1061437,-0.01022138,-0.004530537,0.9874078,19.377,-38.5966,-30.53575,1013.02
6.967879772,-0.07007019,-0.04358666,-0.01615974,-0.01067767,-0.005489327,0.9946455,19.377,-38.5966,-30.53575,1013.023
6.987702847,-0.07000966,0.07737722,-0.1384057,-0.006799641,-0.007922563,0.986889,19.74179,-38.22592,-30.54362,1013.023
7.007526875,-0.008504305,0.1378286,-0.01584849,-0.01508357,-0.003577169,0.9893701,19.74179,-38.22592,-30.54362,1013.021
7.027349949,-0.06969713,0.01659017,-0.1380761,-0.01310823,-0.005990006,0.9941737,19.74179,-38.22592,-30.54362,1013.021
7.049651146,-0.06965408,0.1373979,-0.01553401,-0.007803938,-0.004039231,0.9840183,19.74672,-38.60104,-30.98049,1013.021
7.069474220,-0.06944077,0.07673014,-0.07663821,-0.009721428,-0.006962643,0.9873925,19.74672,-38.60104,-30.98049,1013.021
7.089298248,0.1145492,0.197658,-0.1376275,-0.01020392,-0.006473548,0.9893285,19.37771,-38.58939,-30.15573,1013.023
7.109121323,-0.1302879,0.07626928,-0.01514906,-0.01069134,-0.005987969,0.9898163,19.37771,-38.58939,-30.15573,1013.023
7.128944397,-0.1912711,0.1364765,-0.1373782,-0.01262356,-0.007455294,0.9912674,19.37771,-38.58939,-30.15573,1013.021
7.148767471,-0.1298457,0.07579219,0.04616605,-0.01021974,-0.004529365,0.9878905,19.73675,-37.85201,-30.17008,1013.021
7.168591499,-0.1908877,0.1965893,-0.07608277,-0.01118478,-0.006484441,0.9869204,19.73675,-37.85201,-30.17008,1013.024
7.188414574,0.05414103,0.01476659,0.04643312,-0.01217869,-0.002104811,0.9879137,19.74754,-38.59262,-30.53714,1013.024
7.208237648,-0.06840425,0.01465356,-0.1980837,-0.01412564,-0.00211605,0.9874415,19.74754,-38.59262,-30.53714,1013.022
7.228061199,-0.313051,0.01454081,-0.01461734,-0.01068589,-0.006961818,0.9898112,19.74754,-38.59262,-30.53714,1013.022
7.247884750,-0.129199,0.01433342,-0.01456147,-0.01169347,-0.00308083,0.9859754,19.36621,-37.856,-30.16869,1013.019
7.267707825,-0.006484393,0.1350949,0.04671428,-0.01023286,-0.00453874,0.9840291,19.36621,-37.856,-30.16869,1013.019
7.287530899,-0.06756702,-0.04664935,-0.1978033,-0.01020284,-0.006961645,0.9888433,19.38276,-38.9633,-30.52927,1013.023
7.307354450,0.05495425,0.1954046,-0.07546169,-0.01263121,-0.006971885,0.9898219,19.38276,-38.9633,-30.52927,1013.023
7.327178001,0.1163572,0.07411652,0.04689907,-0.005823681,-0.006448553,0.99027,19.38276,-38.9633,-30.52927,1013.021
7.349478722,-0.251007,0.2555023,-0.1365096,-0.006298024,-0.008886864,0.9897773,19.74672,-38.60104,-30.98049,1013.021
7.369302273,-0.1283712,0.1341395,-0.01414906,-0.01264756,-0.004050338,0.9898369,19.74672,-38.60104,-30.98049,1013.021
7.389125824,-0.1894553,0.1339356,-0.1364001,-0.01068972,-0.00745343,0.9878781,19.38346,-38.95608,-30.14925,1013.021
7.408948898,-0.06680101,0.1941691,0.1083426,-0.008265119,-0.003534902,0.992229,19.38346,-38.95608,-30.14925,1013.023
7.428771973,-0.1279629,-0.04823613,-0.01396642,-0.01218411,0.000335671,0.9903397,19.38346,-38.95608,-30.14925,1013.023
7.448595524,0.1171961,0.07262543,-0.07509385,-0.01411638,-0.004064919,0.9869489,19.37125,-38.22991,-30.54223,1013.022
7.468419075,-0.005161397,-0.0486203,-0.07494374,-0.01167545,-0.004534572,0.9888638,19.37125,-38.22991,-30.54223,1013.022
7.488242149,-0.1275769,-0.04893496,-0.0136507,-0.01067388,-0.007930979,0.991737,19.38346,-38.95608,-30.14925,1013.02
7.508065224,0.05634772,0.01147265,-0.0136548,-0.01409779,-0.003562762,0.9932261,19.38346,-38.95608,-30.14925,1013.02
7.527889252,0.1177858,-0.04920168,-0.07457182,-0.01213285,-0.006471898,0.9941659,19.38346,-38.95608,-30.14925,1013.021
7.547712326,0.05667944,0.07179528,-0.3191112,-0.009736162,-0.005506556,0.9854695,19.38276,-38.9633,-30.52927,1013.021
7.567535401,-0.126875,0.01125426,-0.01313128,-0.009723045,-0.005497182,0.9893309,19.38276,-38.9633,-30.52927,1013.022
7.587358475,-0.06563062,0.01113101,-0.07408798,-0.01120277,-0.003564065,0.9864528,19.74672,-38.60104,-30.98049,1013.022
7.607182503,0.056905,0.01093209,-0.07394046,-0.01361698,-0.006986293,0.9859658,19.74672,-38.60104,-30.98049,1013.021
7.629483700,-0.06541521,0.07128096,0.04851652,-0.00922473,-0.007930459,0.9888329,19.74672,-38.60104,-30.98049,1013.021
7.649306774,-0.1266382,0.3132478,-0.07368058,-0.009235675,-0.008916027,0.9840011,19.74754,-38.59262,-30.53714,1013.021
7.669130325,-0.1877844,0.131455,0.04871408,-0.008753134,-0.006471857,0.9869072,19.74754,-38.59262,-30.53714,1013.021
7.688953877,0.05725564,0.01032753,-0.07338761,-0.009214869,-0.006456797,0.99415,20.47629,-37.85968,-30.99623,1013.023
7.708776951,-0.06514361,0.01032054,0.1102073,-0.01267053,-0.005533375,0.9806586,20.47629,-37.85968,-30.99623,1013.023
7.728600025,-0.003785059,-0.05018004,-0.1954403,-0.01167712,-0.006002376,0.9859602,20.47629,-37.85968,-30.99623,1013.021
7.748423577,0.05766934,0.07074343,0.1104595,-0.01214873,-0.008927613,0.9854651,20.11808,-38.58863,-30.53852,1013.021
7.768247128,-0.00359365,-0.05036461,-0.1340836,-0.008743828,-0.005487462,0.9912562,20.11808,-38.58863,-30.53852,1013.024
7.788070202,-0.1261093,0.1916416,-0.1951206,-0.01067062,-0.009395269,0.9902814,20.11304,-38.21472,-30.16499,1013.024
7.807893753,-0.126004,0.1308567,0.1108936,-0.01119023,-0.005510592,0.9869254,20.11304,-38.21472,-30.16499,1013.024
7.827716828,-0.003374543,0.1306042,0.04985579,-0.00825588,-0.006950405,0.9893154,20.11304,-38.21472,-30.16499,1013.024
7.847540379,-0.06450346,0.009383891,-0.07226788,-0.01508412,-0.004066438,0.9884021,20.11808,-38.58863,-30.53852,1013.022
7.867363453,-0.06426459,0.009512272,-0.07224002,-0.01118857,-0.004042787,0.989829,20.11808,-38.58863,-30.53852,1013.022
7.887187004,-0.003042843,0.1303048,-0.1944603,-0.008732419,-0.009879157,0.9873722,20.11879,-38.58142,-30.15851,1013.024
7.909488201,-0.1252705,0.129937,-0.07210445,-0.0126225,-0.009410023,0.9883612,20.11879,-38.58142,-30.15851,1013.024
7.929311276,0.05857138,0.1903515,0.05026705,-0.01266719,-0.001131135,0.9888867,20.11879,-38.58142,-30.15851,1013.024
7.949134350,-0.1862789,0.1296078,0.05037122,-0.01313991,-0.005034907,0.9864558,20.10729,-37.84803,-30.17147,1013.024
7.968958378,-0.06370954,-0.05227477,0.1116377,-0.01503886,-0.01038943,0.9912655,20.10729,-37.84803,-30.17147,1013.024
7.988781452,-0.1247639,0.1292616,-0.0720148,-0.0116591,-0.007456119,0.9888487,19.74754,-38.59262,-30.53714,1013.024
8.008604527,-0.06335172,0.129203,-0.01078679,-0.01458636,-0.006988984,0.9869365,19.74754,-38.59262,-30.53714,1013.027
8.028428555,-0.002055254,0.1291256,-0.01064452,-0.01262516,-0.004523201,0.9956265,19.74754,-38.59262,-30.53714,1013.027
8.048251629,-0.001954041,-0.05267981,-0.01059861,-0.01507322,-0.006014136,0.9883921,19.37125,-38.22991,-30.54223,1013.025
8.068074703,-0.2467869,0.06826895,0.05047527,-0.01506011,-0.006004761,0.9922535,19.37125,-38.22991,-30.54223,1013.025
8.087898731,0.05951949,-0.05288971,0.05052131,-0.01360174,-0.01088638,0.9840149,19.74179,-38.22592,-30.54362,1013.025
8.107721806,-0.124042,0.1286103,0.1728923,-0.009708357,-0.009886534,0.9864121,19.74179,-38.22592,-30.54362,1013.023
8.127544880,-0.1238844,0.007470787,0.1116797,-0.01066353,-0.01036795,0.990759,19.74179,-38.22592,-30.54362,1013.023
8.147367954,-0.06247445,0.06790778,-0.07180002,-0.01600771,-0.01136948,0.990783,18.64239,-38.96405,-30.14648,1013.027
8.167191982,-0.001180261,0.007148646,0.05064758,-0.01118314,-0.006483269,0.987403,18.64239,-38.96405,-30.14648,1013.027
8.189492703,-0.06223745,-0.1745806,-0.07160925,-0.01022027,-0.003552001,0.9893436,19.37125,-38.22991,-30.54223,1013.027
8.209316254,-0.2459161,0.006921031,0.05085699,-0.01409022,-0.008446068,0.9874089,19.37125,-38.22991,-30.54223,1013.029
8.229139805,-0.06213637,-0.05357106,0.05090208,-0.01019028,-0.007441538,0.9917369,19.37125,-38.22991,-30.54223,1013.029
8.248962879,-0.1844857,0.1278356,-0.01029215,-0.0102312,-0.003070935,0.9869327,19.00564,-38.609,-30.97771,1013.029
8.268785954,-0.06194,0.006641198,-0.1936769,-0.0116694,-0.002085889,0.9946684,19.00564,-38.609,-30.97771,1013.029
8.288609505,-0.06184216,0.2485423,-0.1324314,-0.00872914,-0.009876813,0.9883375,19.37771,-38.58939,-30.15573,1013.029
8.308433056,-0.0005110838,0.1274818,0.1124933,-0.007310519,-0.005009391,0.9844934,19.37771,-38.58939,-30.15573,1013.028
8.328256130,-0.3066196,-0.1146802,0.05139395,-0.01020614,-0.00843062,0.985457,19.37771,-38.58939,-30.15573,1013.028
8.348079205,0.1222271,0.1273736,-0.1321456,-0.01020667,-0.007453256,0.9869101,19.38276,-38.9633,-30.52927,1013.03
8.367903233,-0.06147266,0.06667414,-0.0099688,-0.0121607,-0.005025186,0.9883811,19.38276,-38.9633,-30.52927,1013.03
8.387726307,-0.06122226,0.1268865,0.05131464,-0.01017885,-0.0103666,0.9902737,19.37618,-38.60502,-30.9791,1013.029
8.407549381,-0.06104929,0.00567558,-0.1321288,-0.01313989,-0.003568274,0.9888768,19.37618,-38.60502,-30.9791,1013.029
8.427373409,0.0002991259,0.005471364,-0.1318738,-0.01655242,-0.005058384,0.9840609,19.37618,-38.60502,-30.9791,1013.029
8.447196484,0.0003176369,0.1868437,-0.009409824,-0.01020771,-0.004031895,0.9922371,19.74096,-38.23434,-30.98697,1013.029
8.469497681,0.000451263,0.005043913,-0.07043056,-0.01019903,-0.007936665,0.9883555,19.74096,-38.23434,-30.98697,1013.031
8.489320755,-0.2443108,-0.1161271,-0.009283289,-0.01019302,-0.008421246,0.9893184,19.377,-38.5966,-30.53575,1013.031
8.509144783,-0.1216919,0.06528467,-0.07032633,-0.01649836,-0.007952979,0.9951475,19.377,-38.5966,-30.53575,1013.029
8.528967857,0.1846656,0.1861842,-0.1313889,-0.009726878,-0.005988794,0.9873976,19.377,-38.5966,-30.53575,1013.029
8.548790932,0.1234105,0.06482436,-0.009022135,-0.01312028,-0.007954109,0.9874061,19.37125,-38.22991,-30.54223,1013.033
8.568614483,0.000979647,0.004092,-0.07016189,-0.007782646,-0.00549063,0.9878722,19.37125,-38.22991,-30.54223,1013.033
8.588438034,0.00111182,0.1854299,0.05218554,-0.01458419,-0.007965175,0.9859661,19.00564,-38.609,-30.97771,1013.031
8.608261109,-0.06012453,0.1851922,-0.1313561,-0.01216561,-0.005028701,0.9869332,19.00564,-38.609,-30.97771,1013.031
8.628084183,0.001317434,0.1244806,-0.008970201,-0.01167709,-0.004535744,0.988381,19.00564,-38.609,-30.97771,1013.031
8.647907734,0.06258598,0.06363641,0.0522148,-0.009732328,-0.005014945,0.9874026,19.37043,-38.23833,-30.98558,1013.031
8.667731285,0.06264027,0.00296402,-0.07003007,-0.009222005,-0.008417384,0.9888304,19.37043,-38.23833,-30.98558,1013.034
8.687554360,-0.1210444,0.002804644,0.05231701,-0.01116132,-0.008912032,0.9898039,20.11233,-38.22194,-30.54501,1013.034
8.707377911,-0.1208944,0.002607703,-0.1311289,-0.01020884,-0.006477064,0.9878805,20.11233,-38.22194,-30.54501,1013.032
8.727200985,0.001703065,0.1841393,-0.008743575,-0.01213072,-0.01038135,0.9883535,20.11233,-38.22194,-30.54501,1013.032
8.749502182,0.0630855,0.002498996,-0.008718979,-0.01509613,-0.003097276,0.9864765,19.37618,-38.60502,-30.9791,1013.03
8.769326210,0.002020292,0.06285356,0.1747903,-0.009730734,-0.007947038,0.9830435,19.37618,-38.60502,-30.9791,1013.03
8.789149285,0.06330637,0.1837972,-0.1922009,-0.01021485,-0.005992482,0.9869176,20.11879,-38.58142,-30.15851,1013.028
8.808972359,-0.05910801,-0.1793986,0.1136908,-0.01162961,-0.008901659,0.9951159,20.11879,-38.58142,-30.15851,1013.028
8.828795433,-0.05907498,0.06249475,-0.1309564,-0.008747153,-0.008423069,0.9854491,20.11879,-38.58142,-30.15851,1013.032
8.848619461,-0.1814321,-0.1190105,-0.008437105,-0.01117658,-0.006478582,0.9893338,19.37125,-38.22991,-30.54223,1013.032
8.868442536,0.002454665,0.001952901,-0.06954005,-0.01119568,-0.004536742,0.9869305,19.37125,-38.22991,-30.54223,1013.031
8.888265610,-0.1200953,0.06217574,0.05280575,-0.0111646,-0.008914377,0.9888385,19.37125,-38.22991,-30.54223,1013.031
8.908089638,-0.058618,-0.05900582,-0.06936377,-0.01069356,-0.007945041,0.9859449,19.75904,-39.32601,-30.52418,1013.029
8.927912712,0.002647381,0.0618259,-0.06915119,-0.01360606,-0.007467358,0.9883766,19.75904,-39.32601,-30.52418,1013.029
8.947735787,-0.1197877,0.001100995,-0.007968713,-0.01024104,-0.003077966,0.9840366,19.74179,-38.22592,-30.54362,1013.032
8.967559338,0.06390586,-0.05947145,-0.06911113,-0.01067771,-0.008422591,0.9898037,19.74179,-38.22592,-30.54362,1013.032
8.987382889,-0.05851012,-0.05964504,-0.007947996,-0.01702618,-0.005540795,0.9869573,19.74179,-38.22592,-30.54362,1013.03
9.007205963,-0.05847846,0.06134015,-0.0690522,-0.009225816,-0.007442363,0.9893182,19.38276,-38.9633,-30.52927,1013.03
9.029507160,0.00282402,0.0008631051,-0.06891482,-0.0140962,-0.006494856,0.9888669,19.38276,-38.9633,-30.52927,1013.026
9.049330711,-0.05841659,0.06125961,0.05354469,-0.01020233,-0.009405641,0.9849693,19.38276,-38.9633,-30.52927,1013.026
9.069153786,0.002925109,-0.05991955,-0.007598624,-0.01068917,-0.006964162,0.9888459,19.38276,-38.9633,-30.52927,1013.027
9.088976860,0.003013823,0.121465,-0.1911437,-0.01407491,-0.007946254,0.9927208,19.38276,-38.9633,-30.52927,1013.027
9.108800888,0.1868028,0.0002485849,-0.007445218,-0.008784241,-0.003560855,0.9825781,19.38346,-38.95608,-30.14925,1013.025
9.128623962,-0.05831176,-0.06018874,0.05392788,-0.01262853,-0.01039207,0.9849774,19.38346,-38.95608,-30.14925,1013.025
9.148447037,-0.05812698,0.06072177,0.1151662,-0.01165853,-0.005500218,0.9922375,19.74825,-38.5854,-30.15712,1013.024
9.168271065,-0.05811567,-0.06049407,0.1763467,-0.01118861,-0.006976053,0.9849871,19.74825,-38.5854,-30.15712,1013.024
9.188094139,-0.05804663,0.1210629,-0.1906485,-0.01213885,-0.005987316,0.9932029,19.74825,-38.5854,-30.15712,1013.02
9.207917213,-0.05782401,-0.06064612,-0.006931985,-0.01020337,-0.005984279,0.9902964,19.377,-38.5966,-30.53575,1013.02
9.227741242,-0.05779415,-0.06083569,0.0541902,-0.008751517,-0.007937318,0.9849688,19.377,-38.5966,-30.53575,1013.024
9.247564316,0.06487552,-0.1818983,-0.006839562,-0.01311918,-0.006975574,0.9893419,19.73604,-37.85923,-30.5501,1013.024
9.267387390,0.06477034,0.120609,0.1155408,-0.01218852,-0.002111841,0.9850176,19.73604,-37.85923,-30.5501,1013.022
9.287210941,0.003624137,0.1204772,0.05435707,-0.008258605,-0.006463481,0.9893179,19.73604,-37.85923,-30.5501,1013.022
9.309512138,0.06502023,-0.000660561,-0.06779516,-0.01166347,-0.006970366,0.9883685,19.75247,-38.96773,-30.97401,1013.026
9.329335213,-0.05712949,0.0597399,0.05454638,-0.009255813,-0.003552826,0.9869249,19.75247,-38.96773,-30.97401,1013.026
9.349158764,-0.1181619,0.1806153,0.05448621,-0.01068647,-0.008917719,0.9864224,19.3885,-39.32999,-30.52279,1013.025
9.368982315,-0.1181344,0.05930744,-0.06801389,-0.008749324,-0.007446878,0.9864194,19.3885,-39.32999,-30.52279,1013.025
9.388805389,-0.0567581,0.1197282,-0.006949496,-0.01073007,-0.001126926,0.9864627,19.3885,-39.32999,-30.52279,1013.025
9.408628464,0.004368026,0.1195037,-0.1292954,-0.01170273,-0.00113196,0.986468,19.74754,-38.59262,-30.53714,1013.025
9.428452492,-0.05683796,0.1796405,-0.1292587,-0.0150907,-0.005537758,0.9840505,19.74754,-38.59262,-30.53714,1013.027
9.448275566,0.004480667,-0.002139628,-0.006724589,-0.01168751,-0.006498676,0.9820963,19.377,-38.5966,-30.53575,1013.027
9.468098641,-0.1179975,-0.1837484,-0.1288407,-0.008754774,-0.006473029,0.9864244,19.377,-38.5966,-30.53575,1013.027
9.487922669,-0.05650634,0.1793334,0.2380352,-0.009707757,-0.006464001,0.9922218,19.377,-38.5966,-30.53575,1013.027
9.507745743,0.00486894,0.05810462,-0.1289419,-0.01020175,-0.007449741,0.988358,19.7425,-38.2187,-30.1636,1013.025
9.527568817,-0.1176294,0.1185474,-0.1899343,-0.00681546,-0.005978379,0.985451,19.7425,-38.2187,-30.1636,1013.025
9.547392845,0.1274267,0.1184587,-0.006411495,-0.01263227,-0.005017157,0.992728,19.37125,-38.22991,-30.54223,1013.029
9.567215920,-0.1174619,-0.002674133,-0.06748103,-0.01118367,-0.005505905,0.9888561,19.37125,-38.22991,-30.54223,1013.029
9.589517117,-0.23977,-0.06316028,-0.006204752,-0.01114003,-0.01036343,0.9936577,19.37125,-38.22991,-30.54223,1013.027
9.609340191,0.06659558,0.1788971,-0.06727485,-0.01313338,-0.006496852,0.9859657,19.37125,-38.22991,-30.54223,1013.027
9.629163742,-0.05575029,0.05768851,-0.12823,-0.01118804,-0.005020152,0.9883758,19.37125,-38.22991,-30.54223,1013.026
9.648987293,0.1280901,0.05782867,0.05542577,-0.005347211,-0.007919699,0.9849503,19.38346,-38.95608,-30.14925,1013.026
9.668810368,-0.1168001,0.05787343,-0.06680791,-0.009229649,-0.007933974,0.9873849,19.38346,-38.95608,-30.14925,1013.028
9.688633919,-0.1167952,0.2391902,0.1168088,-0.0165257,-0.008950264,0.985489,19.38346,-38.95608,-30.14925,1013.028
9.708456993,-0.1778315,0.05743143,0.1778891,-0.01216996,-0.003076316,0.988874,19.37618,-38.60502,-30.9791,1013.028
9.728280544,-0.1164398,0.1783886,-0.005699269,-0.008726969,-0.01085301,0.9873672,19.37618,-38.60502,-30.9791,1013.028
9.748104096,0.006242584,0.11758,-0.00562736,-0.01212848,-0.006957651,0.9946459,19.377,-38.5966,-30.53575,1013.028
9.767927170,0.06742204,-0.124633,0.1779893,-0.00776027,-0.007430126,0.9912409,19.377,-38.5966,-30.53575,1013.028
9.787750244,0.006365262,-0.003503568,-0.005522642,-0.008250962,-0.00694689,0.9907633,19.377,-38.5966,-30.53575,1013.031
9.807574272,-0.05490337,0.2382712,-0.005508743,-0.01361532,-0.005518489,0.9888693,19.75329,-38.95931,-30.53066,1013.031
9.827397347,-0.115999,0.05645774,-0.00545653,-0.01168852,-0.001610682,0.9898442,19.75329,-38.95931,-30.53066,1013.029
9.847220421,-0.05470498,-0.1856589,-0.005404364,-0.007295741,-0.003532212,0.9912583,19.74179,-38.22592,-30.54362,1013.029
9.869522095,-0.1158992,0.05638447,-0.06655163,-0.01266398,-0.005528688,0.9825892,19.74179,-38.22592,-30.54362,1013.027
9.889345646,-0.1768995,-0.185656,-0.005279578,-0.01556064,-0.005528556,0.9888799,19.74179,-38.22592,-30.54362,1013.027
9.909168720,-0.2380155,0.05642411,-0.005285513,-0.007771146,-0.004015795,0.9936719,20.11726,-38.59705,-30.98188,1013.031
9.928992272,-0.05431349,-0.1252367,-0.005099434,-0.01215689,-0.006000206,0.9878936,20.11726,-38.59705,-30.98188,1013.031
9.948815346,-0.237916,0.1773183,-0.06611463,-0.0131268,-0.005025532,0.9903173,19.377,-38.5966,-30.53575,1013.029
9.968638897,0.1294863,0.1165884,-0.1273607,-0.01024487,-0.003569578,0.9821034,19.377,-38.5966,-30.53575,1013.029
9.988462448,0.1295456,-0.06505238,-0.004773721,-0.013105,-0.008920928,0.9902972,19.377,-38.5966,-30.53575,1013.028
10.008285522,0.06831355,-0.004585169,-0.06592423,-0.01019956,-0.006959301,0.9898086,19.00071,-38.23389,-30.54084,1013.028
10.028108597,0.007139169,-0.06527628,-0.1269597,-0.01410823,-0.006992326,0.9845204,19.00071,-38.23389,-30.54084,1013.032
10.047932625,0.007121287,0.05570408,-0.004603956,-0.01605625,-0.005048837,0.9869545,19.73521,-37.86765,-30.99345,1013.032
10.067755699,-0.05401476,-0.004834436,-0.004534874,-0.009716532,-0.00842576,0.9864197,19.73521,-37.86765,-30.99345,1013.028
10.087578774,-0.1152472,-0.005050227,-0.004542634,-0.01311862,-0.006486306,0.9903098,19.73521,-37.86765,-30.99345,1013.028
10.107402802,-0.05383963,-0.005113401,-0.004358411,-0.01022683,-0.003556688,0.9874128,19.36621,-37.856,-30.16869,1013.028
10.127225876,0.007432856,-0.005138487,-0.06550993,-0.01357551,-0.01086763,0.9917378,19.36621,-37.856,-30.16869,1013.028
10.149527073,0.007584732,0.1764332,0.05684643,-0.008232973,-0.009867265,0.991231,19.37125,-38.22991,-30.54223,1013.031
10.169350147,-0.05364863,-0.005092017,-0.06546763,-0.01020014,-0.008915202,0.9864198,19.37125,-38.22991,-30.54223,1013.031
10.189173698,0.06887612,0.1159082,-0.0653417,-0.01119134,-0.006489128,0.9849896,19.37125,-38.22991,-30.54223,1013.029
10.208997250,0.007815681,0.115978,-0.1875793,-0.009682654,-0.008890421,0.9955879,19.37618,-38.60502,-30.9791,1013.029
10.228820324,-0.1144595,0.05538306,0.05719597,-0.01507214,-0.006502233,0.9879069,19.37618,-38.60502,-30.9791,1013.027
10.248643875,-0.05316925,0.05533896,-0.1262622,-0.01409788,-0.009429292,0.9835425,19.74754,-38.59262,-30.53714,1013.027
10.268466950,0.1918212,0.2368332,-0.003889084,-0.01604316,-0.006506095,0.9883948,19.74754,-38.59262,-30.53714,1013.031
10.288290501,0.008254346,-0.1264387,0.05732148,-0.01262299,-0.005499393,0.9946561,19.74754,-38.59262,-30.53714,1013.031
10.308114052,0.0696785,-0.06579863,-0.06503214,-0.01362243,-0.006012443,0.9859709,19.38276,-38.9633,-30.52927,1013.03
10.327937126,-0.05277118,0.1762844,0.05736008,-0.01602845,-0.009428813,0.9878972,19.38276,-38.9633,-30.52927,1013.03
10.347760201,0.008517951,0.05517727,-0.06497437,-0.01117875,-0.005502389,0.9903042,19.37771,-38.58939,-30.15573,1013.03
10.367584229,0.008458082,-0.005436011,-0.003533658,-0.01215638,-0.008444203,0.9840195,19.37771,-38.58939,-30.15573,1013.03
10.387407303,-0.1140301,-0.005612172,0.05777202,-0.01117275,-0.00598697,0.991267,19.37771,-38.58939,-30.15573,1013.03
10.407230377,-0.1138977,-0.005693093,0.05789574,-0.00974817,-0.004537394,0.9835438,19.74179,-38.22592,-30.54362,1013.034
10.429532528,-0.1750401,0.1756901,-0.003257472,-0.01459507,-0.004550845,0.9883969,19.74179,-38.22592,-30.54362,1013.034
10.449355602,0.0701218,-0.06645991,-0.003268477,-0.007790313,-0.006473854,0.9840057,19.01222,-38.96728,-30.52788,1013.034
10.469178677,-0.1747383,-0.006103113,-0.00314505,-0.009240526,-0.004519644,0.9898159,19.01222,-38.96728,-30.52788,1013.032
10.489002228,-0.1133544,0.2357921,-0.003079627,-0.01264536,-0.003559898,0.9912875,19.01222,-38.96728,-30.52788,1013.032
10.508825779,-0.113435,0.1144406,-0.00299513,-0.008240016,-0.005961322,0.9955951,19.37043,-38.23833,-30.98558,1013.032
10.528648853,0.1927673,-0.006796099,-0.003064383,-0.01361093,-0.004537609,0.9917705,19.37043,-38.23833,-30.98558,1013.034
10.548472405,-0.297027,-0.0673867,-0.1252664,-0.005351021,-0.006944678,0.985438,19.74096,-38.23434,-30.98697,1013.034
10.568295479,-0.0520778,0.05361813,-0.00287655,-0.01263287,-0.008439689,0.9869183,19.74096,-38.23434,-30.98697,1013.033
10.588119030,0.1317342,-0.00699123,-0.002888564,-0.01361373,-0.008450582,0.9845102,19.74096,-38.23434,-30.98697,1013.033
10.607942581,-0.1131844,0.05353905,-0.1250719,-0.009224175,-0.007441191,0.9898008,19.74754,-38.59262,-30.53714,1013.033
10.627765656,-0.05182057,0.174544,0.05859509,-0.0126176,-0.01087314,0.9873883,19.74754,-38.59262,-30.53714,1013.033
10.647588730,0.1318562,-0.06764111,-0.1249051,-0.009720342,-0.00745074,0.9869074,20.11961,-38.573,-29.71515,1013.029
10.667412758,0.009500384,0.1742376,-0.1248604,-0.01506666,-0.006009448,0.9903229,20.11961,-38.573,-29.71515,1013.029
10.687235832,0.009380426,-0.06781381,0.1198343,-0.0150929,-0.006028197,0.9826,20.11961,-38.573,-29.71515,1013.031
10.709537029,-0.1742505,-0.0677742,-0.002445139,-0.01557265,-0.004559395,0.9869543,19.75329,-38.95931,-30.53066,1013.031
10.729360581,0.009541273,0.2347125,-0.06346705,-0.009702884,-0.009393751,0.988828,19.75329,-38.95931,-30.53066,1013.03
10.749184132,-0.05160091,0.05300295,-0.06363402,-0.01214598,-0.007947904,0.9878835,19.754,-38.9521,-30.15064,1013.03
10.769007206,0.009608362,0.1134396,0.0586587,-0.01019681,-0.005979592,0.992227,19.754,-38.9521,-30.15064,1013.028
10.788830757,-0.1740392,0.1132497,0.119885,-0.01117875,-0.005502389,0.9903042,19.754,-38.9521,-30.15064,1013.028
10.808653832,0.07102402,0.2341428,-0.002587322,-0.00584331,-0.003529348,0.9893197,19.37618,-38.60502,-30.9791,1013.032
10.828477383,0.009785283,-0.2502998,0.05858156,-0.01408206,-0.01137347,0.9849803,19.37618,-38.60502,-30.9791,1013.032
10.848300934,0.07099418,0.05217049,-0.06371763,-0.01024431,-0.00308031,0.9830713,19.377,-38.5966,-30.53575,1013.032
10.868124008,-0.112673,-0.008606017,0.05874809,-0.0101903,-0.008908171,0.9893159,19.377,-38.5966,-30.53575,1013.032
10.887947083,-0.05146424,-0.008679375,-0.1247524,-0.01114767,-0.009880023,0.9922122,19.377,-38.5966,-30.53575,1013.03
10.907771111,0.009936787,0.1121589,-0.002267834,-0.008279875,-0.003545448,0.9878849,19.75329,-38.95931,-30.53066,1013.03
10.927594185,0.1324556,0.172542,-0.002223752,-0.008755282,-0.004029031,0.9902985,19.75329,-38.95931,-30.53066,1013.033
10.947417259,0.009944532,0.05125427,-0.06328459,-0.0111673,-0.006960819,0.991262,19.75329,-38.95931,-30.53066,1013.033
10.967241287,0.07128753,-0.1302416,-0.06304891,-0.008268444,-0.006470512,0.9864218,19.74825,-38.5854,-30.15712,1013.033
10.989542484,-0.05099646,0.05130341,-0.001977127,-0.0136104,-0.005514973,0.9903174,19.74825,-38.5854,-30.15712,1013.033
11.009365559,0.01032661,0.1116113,-0.06301947,-0.0121416,-0.006967025,0.9907845,19.75329,-38.95931,-30.53066,1013.033
11.029189110,-0.05089429,-0.009789251,-0.001756456,-0.01018649,-0.009883191,0.9888281,19.75329,-38.95931,-30.53066,1013.033
11.049012661,-0.2344669,-0.07042934,0.05931438,-0.01070988,-0.003556861,0.9883808,19.74825,-38.5854,-30.15712,1013.037
11.068835735,-0.1731446,-0.0101766,-0.001881756,-0.00973944,-0.005508901,0.9845041,19.74825,-38.5854,-30.15712,1013.037
11.088659287,0.01070219,0.1108553,-0.001877006,-0.01168148,-0.005516623,0.9854801,19.74825,-38.5854,-30.15712,1013.037
11.108482361,-0.05034671,-0.07088517,0.1205871,-0.009264011,-0.003558685,0.9845115,19.74096,-38.23434,-30.98697,1013.037
11.128306389,0.1334224,0.05003332,-0.1852208,-0.007775557,-0.006463308,0.9883498,19.74096,-38.23434,-30.98697,1013.037
11.148129463,0.01083194,0.05000278,-0.001652256,-0.01019626,-0.005490324,0.9931948,19.74096,-38.23434,-30.98697,1013.037
11.167952538,0.1334062,0.2314155,-0.001571365,-0.01119402,-0.003068938,0.989834,19.37125,-38.22991,-30.54223,1013.035
11.187776566,-0.2339643,-0.01077949,-0.001624938,-0.01119245,-0.007467664,0.9830539,19.37125,-38.22991,-30.54223,1013.035
11.207599640,-0.05011855,0.1100829,0.05979121,-0.0164984,-0.01088624,0.9903057,19.377,-38.5966,-30.53575,1013.041
11.227422714,0.01114466,0.1099964,0.1822347,-0.008268929,-0.002559882,0.9927167,19.377,-38.5966,-30.53575,1013.041
11.247246742,0.07254228,0.1098913,-0.001249399,-0.008718217,-0.01035788,0.9907483,19.377,-38.5966,-30.53575,1013.039
11.269547463,-0.04991814,-0.01150138,-0.001361098,-0.01216455,-0.00698343,0.984027,20.48357,-38.21074,-30.16638,1013.039
11.289371014,0.011556,0.2303503,0.05986231,-0.01506343,-0.008940371,0.9864463,20.48357,-38.21074,-30.16638,1013.041
11.309194565,-0.04966803,-0.01189899,-0.06242083,-0.01117335,-0.009409503,0.9854573,20.12383,-38.95533,-30.53205,1013.041
11.329017639,-0.1108537,-0.01173622,-0.001216765,-0.008246044,-0.006943374,0.9922114,20.12383,-38.95533,-30.53205,1013.041
11.348840714,-0.04963026,0.1697363,0.06002565,-0.0102236,-0.00648761,0.9835364,20.12383,-38.95533,-30.53205,1013.041
11.368664742,0.01167008,-0.01203797,-0.1234397,-0.01019683,-0.007446225,0.9898061,19.377,-38.5966,-30.53575,1013.041
11.388487816,0.01173694,-0.1937168,-0.1232643,-0.01119296,-0.005023668,0.9869279,19.377,-38.5966,-30.53575,1013.041
11.408310890,-0.1107979,0.04830743,0.1216373,-0.01261322,-0.00989226,0.9902895,20.11879,-38.58142,-30.15851,1013.044
11.428134918,0.1343372,-0.01225061,0.1217735,-0.01066083,-0.0123215,0.9883355,20.11879,-38.58142,-30.15851,1013.044
11.447957993,0.07309321,0.229565,0.06047808,-0.009204546,-0.01036039,0.990751,20.11879,-38.58142,-30.15851,1013.042
11.467781067,-0.1105409,0.1084001,0.1826895,-0.01456562,-0.008929651,0.9898224,19.74754,-38.59262,-30.53714,1013.042
11.487605095,0.0118577,0.1082228,-0.06193898,-0.009771565,0.002290095,0.9879231,19.74754,-38.59262,-30.53714,1013.044
11.507428169,0.07304227,-0.0128654,-0.0618026,-0.008755881,-0.007451565,0.9844887,19.74754,-38.59262,-30.53714,1013.044
11.527251244,0.01168313,-0.013118,-0.0004658066,-0.0150792,-0.004062923,0.9898502,19.74754,-38.59262,-30.53714,1013.043
11.549552918,0.01182304,-0.01315691,-0.0003108159,-0.01164492,-0.009401474,0.989804,19.74754,-38.59262,-30.53714,1013.043
11.569375992,0.01188947,0.04714198,-0.1226349,-0.01846065,-0.009930666,0.9869425,19.38276,-38.9633,-30.52927,1013.041
11.589199066,-0.04923933,-0.07392573,-0.0003476068,-0.01458033,-0.006006931,0.9903202,19.38276,-38.9633,-30.52927,1013.041
11.609023094,-0.1716403,-0.074025,-0.0001548417,-0.007795209,-0.005010736,0.9849786,19.75329,-38.95931,-30.53066,1013.039
11.628846169,-0.04905003,0.1679078,-0.06133615,-0.008279321,-0.003056181,0.9888528,19.75329,-38.95931,-30.53066,1013.039
11.648670197,-0.110122,0.04666981,-0.06114371,-0.01121693,-0.0001520785,0.9879185,19.75329,-38.95931,-30.53066,1013.039
11.668493271,-0.04872731,0.1069514,-0.06112454,-0.008269506,-0.004515782,0.989328,19.37771,-38.58939,-30.15573,1013.039
11.688316345,-0.1099537,-0.07470331,0.06131552,-0.008266781,-0.005002707,0.9893255,19.37771,-38.58939,-30.15573,1013.04
11.708140373,-0.1098891,0.04630066,0.06116157,-0.009710528,-0.008910341,0.9873825,19.01222,-38.96728,-30.52788,1013.04
11.727963448,0.01262312,-0.01432829,-0.1221339,-0.01214813,-0.005505079,0.9912748,19.01222,-38.96728,-30.52788,1013.038
11.747786522,-0.04871891,0.1064293,0.0003247969,-0.009738355,-0.005996997,0.9840189,19.01222,-38.96728,-30.52788,1013.038
11.767610073,-0.04859658,0.04587731,0.06152481,-0.008762395,-0.004522986,0.9873998,19.7655,-39.68549,-30.13768,1013.035
11.787433624,-0.1711144,-0.01475057,0.1226672,-0.01165638,-0.007943043,0.9888462,19.7655,-39.68549,-30.13768,1013.035
11.807256699,-0.04854456,0.04568528,0.06158072,-0.009679421,-0.01182134,0.9917116,19.0121,-38.96848,-30.59122,1013.033
11.829558373,0.01271064,0.1666766,0.0616755,-0.009233967,-0.004514957,0.9917467,19.0121,-38.96848,-30.59122,1013.033
11.849381447,-0.04838183,-0.01516606,0.0005118027,-0.01360717,-0.008445894,0.9864408,19.0121,-38.96848,-30.59122,1013.035
11.869204521,0.1353823,-0.015033,-0.1217568,-0.00825371,-0.007926597,0.9883449,19.37618,-38.60502,-30.9791,1013.035
11.889028549,0.07415503,0.1059351,-0.06040381,-0.01168095,-0.006493988,0.9840269,19.37618,-38.60502,-30.9791,1013.034
11.908851624,0.01294674,-0.01518531,-0.06036738,-0.01070228,-0.006973536,0.9849845,19.38346,-38.95608,-30.14925,1013.034
11.928674698,-0.04820405,0.04521365,0.0009850971,-0.01360604,-0.006000726,0.9907975,19.38346,-38.95608,-30.14925,1013.034
11.948498726,0.07428787,0.1659926,-0.1213615,-0.01409294,-0.007959144,0.9874114,19.38346,-38.95608,-30.14925,1013.034
11.968321800,-0.04805807,-0.01582932,-0.1824305,-0.01215088,-0.006484788,0.9888564,20.11808,-38.58863,-30.53852,1013.038
11.988145351,-0.1705581,0.04468512,0.1846182,-0.01021051,-0.007944867,0.9849768,20.11808,-38.58863,-30.53852,1013.038
12.007968426,0.01333994,0.1050476,0.001089714,-0.0111624,-0.008423936,0.9902891,19.3655,-37.86321,-30.54871,1013.036
12.027791977,-0.04788856,0.04434711,0.06232618,-0.009235099,-0.006960126,0.9873899,19.3655,-37.86321,-30.54871,1013.036
12.047615528,-0.1093092,-0.01635291,0.0622465,-0.010193,-0.006954614,0.9917394,19.3655,-37.86321,-30.54871,1013.036
12.067438602,0.07430051,0.1045426,-0.0600043,-0.01214162,-0.008433657,0.9883636,19.377,-38.5966,-30.53575,1013.036
12.087261677,-0.1706661,0.0438435,0.001059279,-0.01069025,-0.006476066,0.9893311,19.377,-38.5966,-30.53575,1013.038
12.109563828,-0.04792862,-0.01667911,-0.05999102,-0.01216834,-0.004541776,0.9869358,19.7425,-38.2187,-30.1636,1013.038
12.129386902,0.07462022,0.1647679,-0.1212332,-0.01165037,-0.008427624,0.989809,19.7425,-38.2187,-30.1636,1013.036
12.149209976,-0.1091522,-0.1381333,0.001261674,-0.01166834,-0.004040617,0.9917624,19.7425,-38.2187,-30.1636,1013.036
12.169034004,-0.1090321,0.1039224,-0.05978866,-0.0112055,-0.003077141,0.9864553,19.37535,-38.61344,-31.42246,1013.035
12.188857079,-0.1089122,-0.07770579,0.001466379,-0.0126443,-0.005514626,0.9883813,19.37535,-38.61344,-31.42246,1013.035
12.208680153,-0.1699107,0.1039894,0.1238452,-0.01020446,-0.005496183,0.9907814,19.74672,-38.60104,-30.98049,1013.037
12.228503704,-0.04720943,-0.0171831,0.0626405,-0.01070771,-0.004533054,0.9874104,19.74672,-38.60104,-30.98049,1013.037
12.248327255,0.0139311,0.1643792,0.0625408,-0.01068972,-0.00745343,0.9878781,19.74672,-38.60104,-30.98049,1013.034
12.268150806,0.01383848,-0.01724868,0.001355693,-0.01264873,-0.009428771,0.9806384,19.38276,-38.9633,-30.52927,1013.034
12.287973881,-0.1084902,0.1037061,0.001371574,-0.01507759,-0.005528383,0.987912,19.38276,-38.9633,-30.52927,1013.038
12.307796955,-0.108506,-0.07795931,0.123693,-0.01361696,-0.00551966,0.9883866,19.377,-38.5966,-30.53575,1013.038
12.327620983,-0.04723071,0.1035276,0.0013263,-0.01119624,-0.005026011,0.9859626,19.377,-38.5966,-30.53575,1013.034
12.347444058,0.0752395,0.1034956,-0.05983955,-0.01215197,-0.005996691,0.9893416,19.377,-38.5966,-30.53575,1013.034
12.367267132,-0.04724331,0.1034067,-0.1208903,-0.009720874,-0.006473375,0.9883603,18.99496,-37.8672,-30.54732,1013.033
12.389568806,-0.1082665,-0.01802461,-0.05971265,-0.01067663,-0.008910688,0.9893185,18.99496,-37.8672,-30.54732,1013.033
12.409392357,0.07555187,0.1633499,-0.1207828,-0.01263121,-0.006971885,0.9898219,19.377,-38.5966,-30.53575,1013.035
12.429215431,0.1366918,-0.01838943,-0.1819875,-0.01216448,-0.002583533,0.9912899,19.377,-38.5966,-30.53575,1013.035
12.449038982,-0.2306293,0.04192257,-0.05951289,-0.007761909,-0.007431298,0.9907581,19.377,-38.5966,-30.53575,1013.033
12.468862057,-0.04675347,0.04189326,-0.1206219,-0.01020774,-0.005498527,0.9898161,19.38193,-38.97172,-30.97262,1013.033
12.488686085,-0.04659755,0.1023198,0.1853013,-0.01261811,-0.008429143,0.9912623,19.38193,-38.97172,-30.97262,1013.032
12.508509159,0.07581335,0.04181609,0.001866933,-0.0102312,-0.003070935,0.9869327,19.74672,-38.60104,-30.98049,1013.032
12.528332234,0.0757384,-0.07925737,0.06327422,-0.01068423,-0.005494013,0.9927149,19.74672,-38.60104,-30.98049,1013.034
12.548156262,0.1983035,0.04170119,-0.1813617,-0.008264079,-0.006956264,0.986902,19.74672,-38.60104,-30.98049,1013.034
12.567979336,0.1371488,-0.2004732,0.1245412,-0.01314155,-0.005036078,0.9859732,19.01222,-38.96728,-30.52788,1013.034
12.587802410,-0.0465884,0.1019668,0.06321962,-0.008747153,-0.008423069,0.9854491,19.01222,-38.96728,-30.52788,1013.034
12.607626438,-0.04664446,0.1623375,0.002128799,-0.01556336,-0.005041632,0.9888824,19.754,-38.9521,-30.15064,1013.034
12.627449513,0.01474461,-0.01943731,-0.05898148,-0.008746576,-0.00646717,0.9888378,19.754,-38.9521,-30.15064,1013.038
12.647273064,0.0761333,-0.01954049,0.1245963,-0.01360606,-0.007467358,0.9883766,19.754,-38.9521,-30.15064,1013.038
12.669574261,0.1373055,-0.08009303,0.1245324,-0.01167762,-0.00355838,0.9898342,19.74179,-38.22592,-30.54362,1013.038
12.689397335,-0.04641284,-0.01955018,-0.05899883,-0.01361751,-0.006008928,0.9874188,19.74179,-38.22592,-30.54362,1013.038
12.709221363,0.01487951,0.04084071,0.0633782,-0.009737778,-0.004041096,0.9874077,19.377,-38.5966,-30.53575,1013.038
12.729044438,0.01489981,0.04064313,0.1245927,-0.01069353,-0.006478409,0.9883657,19.377,-38.5966,-30.53575,1013.04
12.748867512,0.0149009,-0.140997,0.06338613,-0.01463165,-0.002132629,0.9816521,19.377,-38.5966,-30.53575,1013.04
12.768691540,0.1373689,0.04040135,-0.05888675,-0.008713298,-0.01035436,0.9921964,19.00564,-38.609,-30.97771,1013.04
12.788514614,-0.04646492,-0.0203268,0.06364351,-0.01214162,-0.008433657,0.9883636,19.00564,-38.609,-30.97771,1013.04
12.808337689,0.01473144,0.04021798,0.002532456,-0.01070395,-0.00844134,0.9820809,19.37771,-38.58939,-30.15573,1013.04
12.828161717,-0.1077148,-0.08079436,0.002679653,-0.01362735,-0.006015959,0.9845228,19.37771,-38.58939,-30.15573,1013.038
12.847984791,0.1372781,0.0403389,0.0027305,-0.01360987,-0.006492338,0.9888643,19.37771,-38.58939,-30.15573,1013.038
12.867808342,-0.04636336,-0.2622499,0.06392454,-0.00974272,-0.005511244,0.9835388,19.7425,-38.2187,-30.1636,1013.037
12.887631417,-0.04626616,-0.02003442,-0.0584073,-0.01023669,-0.005030352,0.9820959,19.7425,-38.2187,-30.1636,1013.037
12.907454968,0.07624011,0.1010033,0.002940197,-0.01068644,-0.007451086,0.9888434,19.37125,-38.22991,-30.54223,1013.039
12.927278519,0.07620247,0.1009207,-0.05826803,-0.009729026,-0.003545969,0.9907889,19.37125,-38.22991,-30.54223,1013.039
12.949579716,0.01494609,0.1614902,0.1251919,-0.006801812,-0.00694637,0.9878594,19.37125,-38.22991,-30.54223,1013.038
12.969402790,-0.04620959,-0.02009251,0.1251849,-0.01364044,-0.004558701,0.9830823,19.37771,-38.58939,-30.15573,1013.038
12.989226818,0.01506301,0.1008124,0.06393839,-0.01116351,-0.009402473,0.9883533,19.37771,-38.58939,-30.15573,1013.036
13.009049892,0.07625867,-0.02040918,0.002711464,-0.008728078,-0.01183154,0.9854314,19.00635,-38.60179,-30.5977,1013.036
13.028873444,0.07625934,-0.08100352,-0.1806867,-0.009744314,-0.00257915,0.9878979,19.00635,-38.60179,-30.5977,1013.038
13.048696995,-0.04599549,0.04009227,0.002812739,-0.009254751,-0.005507555,0.9840187,19.00635,-38.60179,-30.5977,1013.038
13.068520069,0.01519962,-0.08090087,0.002767246,-0.01071704,-0.006984082,0.9806404,19.75247,-38.96773,-30.97401,1013.036
13.088343620,0.07635644,0.161144,-0.05842133,-0.009717617,-0.007937664,0.9869049,19.75247,-38.96773,-30.97401,1013.036
13.108166695,0.07641466,0.1610054,0.06397345,-0.01071483,-0.005027009,0.9845119,19.37771,-38.58939,-30.15573,1013.036
13.127990246,0.01516236,0.1004302,0.06404318,-0.01068811,-0.008918891,0.9859399,19.37771,-38.58939,-30.15573,1013.036
13.147813797,-0.04608992,-0.02061944,0.06407435,-0.01165199,-0.006962164,0.9917473,19.37771,-38.58939,-30.15573,1013.037
13.167636871,0.01514404,-0.08130824,0.0642399,-0.009715446,-0.008913857,0.9859346,19.74825,-38.5854,-30.15712,1013.037
13.187460899,-0.04605047,-0.02078131,0.003069799,-0.01065808,-0.01134179,0.9907539,19.74825,-38.5854,-30.15712,1013.037
13.207283974,-0.1071491,0.1002963,-0.1193204,-0.01023284,-0.003072107,0.98645,19.74825,-38.5854,-30.15712,1013.037
13.227107048,-0.168152,-0.02088594,0.003111985,-0.0126252,-0.007456466,0.9907846,19.74167,-38.22712,-30.60695,1013.039
13.249408722,0.1381443,0.1000465,0.003256753,-0.0106979,-0.005992656,0.9878857,19.74167,-38.22712,-30.60695,1013.039
13.269231796,0.01571496,-0.1421605,0.003344506,-0.007752094,-0.0088909,0.9912333,20.12371,-38.95653,-30.59538,1013.039
13.289055348,0.07704362,0.03927866,-0.1189888,-0.01456835,-0.008442726,0.9898249,20.12371,-38.95653,-30.59538,1013.039
13.308878899,0.01577047,0.03923697,0.003385291,-0.01213125,-0.009403991,0.9898066,19.37125,-38.22991,-30.54223,1013.036
13.328701973,0.07706045,0.1600689,-0.05765134,-0.01163673,-0.009395614,0.9922174,19.37125,-38.22991,-30.54223,1013.036
13.348526001,0.01588342,0.03900246,0.2481714,-0.01214816,-0.006971712,0.9888538,19.37125,-38.22991,-30.54223,1013.038
13.368349075,-0.04515933,-0.02147522,-0.05774556,-0.01215252,-0.00648596,0.9883736,19.74742,-38.59382,-30.60047,1013.038
13.388172150,0.01601458,-0.02147831,0.003408417,-0.01214982,-0.008439516,0.9859504,19.74742,-38.59382,-30.60047,1013.038
13.407996178,0.07726552,0.09948705,0.06458154,-0.01358694,-0.007942565,0.9932008,19.74742,-38.59382,-30.60047,1013.038
13.427819252,-0.1065135,-0.02178799,-0.05773282,-0.009230203,-0.008423243,0.986417,19.74742,-38.59382,-30.60047,1013.038
13.447642803,-0.04530101,-0.1429106,-0.05766459,-0.01555244,-0.005522697,0.9912933,19.74742,-38.59382,-30.60047,1013.038
13.467466354,-0.04537946,0.0990622,0.00352747,-0.0111837,-0.006972537,0.9864352,19.38346,-38.95608,-30.14925,1013.036
13.487289429,-0.1064028,0.03835775,0.06475789,-0.01310659,-0.005988835,0.9946563,19.38346,-38.95608,-30.14925,1013.036
13.509591103,-0.04513793,-0.1431747,0.003757976,-0.0102154,-0.006481751,0.9859498,19.38346,-38.95608,-30.14925,1013.036
13.529414177,-0.1062965,0.09885564,-0.05747146,-0.01361042,-0.006981606,0.9878965,19.38276,-38.9633,-30.52927,1013.036
13.549237251,0.1387506,0.09866437,-0.1186624,-0.01068808,-0.007452258,0.9883606,19.38276,-38.9633,-30.52927,1013.039
13.569061279,0.01612742,-0.02236182,-0.05743243,-0.01018538,-0.008904655,0.9907638,19.754,-38.9521,-30.15064,1013.039
13.588884354,-0.1062839,0.0985678,-0.05742256,-0.0146038,-0.00357934,0.9874367,19.754,-38.9521,-30.15064,1013.039
13.608707905,-0.04482205,0.09868121,-0.0573937,-0.01022409,-0.00257698,0.9898313,19.754,-38.9521,-30.15064,1013.039
13.628531456,0.1388948,-0.204035,0.06501763,-0.01166453,-0.005015638,0.9912747,20.10742,-37.91756,-30.61374,1013.037
13.648354530,-0.04476985,-0.08293424,0.003768764,-0.01167053,-0.004531057,0.9903119,20.10742,-37.91756,-30.61374,1013.037
13.668178082,0.07790559,0.0984512,0.003816832,-0.01265139,-0.004541949,0.9879038,19.0121,-38.96848,-30.59122,1013.039
13.688001156,-0.2283613,0.09822304,0.06496975,-0.01457708,-0.007471221,0.9888646,19.0121,-38.96848,-30.59122,1013.039
13.707825184,-0.04437597,0.09814737,-0.1796512,-0.007292507,-0.006463134,0.9873818,19.0121,-38.96848,-30.59122,1013.039
13.727648258,-0.04420697,-0.02297248,0.003980134,-0.01020122,-0.008427105,0.986905,19.0006,-38.23509,-30.60418,1013.039
13.747471333,0.07831334,0.09797749,0.1263719,-0.01407985,-0.009416402,0.9888518,19.0006,-38.23509,-30.60418,1013.043
13.767295361,-0.04415797,0.0979024,-0.1182689,-0.01018921,-0.009396267,0.9888307,19.01868,-39.32676,-30.14138,1013.043
13.787118435,0.07836224,-0.1440714,0.004141785,-0.008768376,-0.002571773,0.9888579,19.01868,-39.32676,-30.14138,1013.043
13.809419632,-0.1053096,-0.0833986,0.004034087,-0.01357936,-0.01282587,0.9873835,19.01868,-39.32676,-30.14138,1013.043
13.829243183,0.07853978,0.09815899,-0.1794059,-0.01168695,-0.006009406,0.9830641,19.38264,-38.9645,-30.59261,1013.041
13.849066258,0.07845788,0.09798851,0.003994383,-0.008270615,-0.005494318,0.9873922,19.38264,-38.9645,-30.59261,1013.041
13.868890286,0.01743099,0.09804654,0.00411877,-0.01311971,-0.005998209,0.9907948,19.36634,-37.92553,-30.61097,1013.039
13.888713360,0.201203,0.0376865,-0.05711165,-0.006270728,-0.01082284,0.994594,19.36634,-37.92553,-30.61097,1013.039
13.908536434,0.0788075,0.0375919,0.06537581,-0.01263174,-0.00599452,0.9912749,19.36634,-37.92553,-30.61097,1013.042
13.928360462,-0.04370345,0.1585989,0.004183609,-0.01116841,-0.007939355,0.9893262,19.37618,-38.60502,-30.9791,1013.042
13.948183537,-0.04345917,0.03740334,0.06537399,-0.01066792,-0.01134882,0.9878579,19.37618,-38.60502,-30.9791,1013.04
13.968007565,-0.04315788,0.09778416,0.06545941,-0.009720874,-0.006473375,0.9883603,19.01785,-39.33518,-30.58474,1013.04
13.987830639,0.1408046,-0.02325886,0.0655637,-0.01118531,-0.005507076,0.9883733,19.01785,-39.33518,-30.58474,1013.038
14.007653713,-0.04292256,0.03714133,0.06551425,-0.01022358,-0.005020977,0.9859574,19.01785,-39.33518,-30.58474,1013.038
14.027477264,-0.165301,-0.08403432,0.1875979,-0.01411204,-0.006017304,0.9850081,19.38264,-38.9645,-30.59261,1013.041
14.047300816,-0.1652319,0.09735395,0.06518597,-0.01118365,-0.004039272,0.991277,19.38264,-38.9645,-30.59261,1013.041
14.067124367,-0.04252312,0.03686275,0.004032686,-0.009714292,-0.005002055,0.9927121,19.75317,-38.96051,-30.59399,1013.041
14.089425564,0.01875359,0.1577461,-0.2406286,-0.010187,-0.007439194,0.9927022,19.75317,-38.96051,-30.59399,1013.041
14.109248638,-0.1036643,0.03659061,-0.1182563,-0.01262137,-0.006964854,0.9927179,19.75317,-38.96051,-30.59399,1013.039
14.129072666,-0.04240121,0.03666959,0.06539363,-0.01263562,-0.009419397,0.9844999,19.74742,-38.59382,-30.60047,1013.039
14.148895741,-0.04242926,-0.08437188,0.06547906,-0.01456722,-0.005997557,0.9941816,19.74742,-38.59382,-30.60047,1013.039
14.168719292,0.01889159,0.09718812,0.2489748,-0.01216504,-0.0030728,0.9903221,19.38264,-38.9645,-30.59261,1013.039
14.188542366,0.01905562,-0.2661701,-0.1181067,-0.01167439,-0.006489301,0.9859577,19.38264,-38.9645,-30.59261,1013.038
14.208365917,0.08031815,-0.08464751,0.004303593,-0.01310883,-0.00941254,0.9883638,19.38264,-38.9645,-30.59261,1013.038
14.228189468,0.01911364,-0.1450996,0.00435036,-0.01216725,-0.005029873,0.9864505,20.1115,-38.23036,-30.98836,1013.038
14.248012543,-0.04197569,-0.02412774,0.004300956,-0.01118099,-0.008926095,0.9840117,20.1115,-38.23036,-30.98836,1013.038
14.267836571,0.08073112,0.2783443,0.1266151,-0.01602572,-0.009915737,0.9878947,19.38264,-38.9645,-30.59261,1013.038
14.287659645,-0.0418231,-0.0243101,-0.05678697,-0.01313991,-0.005034907,0.9864558,19.38264,-38.9645,-30.59261,1013.038
14.307482719,-0.1642427,0.0360736,-0.1179604,-0.01169511,-0.003082001,0.9854926,19.38264,-38.9645,-30.59261,1013.04
14.327306748,-0.1028852,-0.02439669,0.004334245,-0.01215474,-0.008443031,0.9845023,20.11221,-38.22314,-30.60834,1013.04
14.347129822,-0.1027999,-0.3874875,0.004361637,-0.01213615,-0.007940874,0.9907795,20.11221,-38.22314,-30.60834,1013.037
14.369431019,-0.04150686,0.0360373,-0.2401853,-0.01412183,-0.003091071,0.9869539,19.37688,-38.59781,-30.59909,1013.037
14.389254570,-0.1638888,-0.02460387,0.004530031,-0.01314645,-0.003572961,0.9869461,19.37688,-38.59781,-30.59909,1013.037
14.409077644,-0.1026283,0.03591362,-0.1178063,-0.01116074,-0.006956132,0.9931926,19.37688,-38.59781,-30.59909,1013.037
14.428901672,0.02001938,-0.02470818,-0.2399122,-0.01364534,-0.003095584,0.9840552,19.00718,-38.59337,-30.15434,1013.041
14.448724747,0.08129866,0.03571469,0.1271657,-0.01018647,-0.008416559,0.9912491,19.00718,-38.59337,-30.15434,1013.041
14.468547821,0.02028386,0.09617571,0.004943974,-0.01165587,-0.01038704,0.9849722,20.11726,-38.59705,-30.98188,1013.041
14.488371849,-0.1021186,-0.08535696,0.004835583,-0.0155541,-0.006990502,0.9883897,20.11726,-38.59705,-30.98188,1013.041
14.508194924,-0.2244061,0.09622457,0.06613947,-0.01018266,-0.00939158,0.9907613,20.11726,-38.59705,-30.98188,1013.041
14.528018475,0.0819787,-0.08538412,-0.05629395,-0.01702785,-0.007008599,0.9840536,19.38264,-38.9645,-30.59261,1013.041
14.547842026,0.08198424,-0.02484702,0.004856281,-0.01456616,-0.007952286,0.9912754,19.38264,-38.9645,-30.59261,1013.043
14.567665100,-0.04043865,0.1565256,0.00470975,-0.009712721,-0.009400781,0.9859321,19.74742,-38.59382,-30.60047,1013.043
14.587488651,0.02074254,0.03541112,0.004774772,-0.003438451,-0.004024781,0.9806158,19.74742,-38.59382,-30.60047,1013.045
14.607311726,0.143292,0.2169173,0.06598283,-0.01410932,-0.00650423,0.9850055,19.74742,-38.59382,-30.60047,1013.045
14.627135754,0.0207535,0.09584116,-0.0562966,-0.01458692,-0.007478251,0.9859686,19.37688,-38.59781,-30.59909,1013.047
14.649436951,-0.04042336,-0.1461765,0.00485203,-0.01217545,-0.005035732,0.9840371,19.37688,-38.59781,-30.59909,1013.047
14.669260025,0.1433209,-0.02506902,0.004820615,-0.008247152,-0.00792191,0.9902757,19.754,-38.9521,-30.15064,1013.045
14.689084053,0.0207248,0.03531677,0.004962064,-0.01456673,-0.009908186,0.9878867,19.754,-38.9521,-30.15064,1013.045
14.708907128,0.02088422,0.03511424,0.06620813,-0.009703415,-0.008416385,0.9902812,19.754,-38.9521,-30.15064,1013.045
14.728730679,-0.2240444,-0.02537259,0.004975483,-0.01070938,-0.006000859,0.9845069,20.12371,-38.95653,-30.59538,1013.045
14.748553753,0.02106743,-0.08601152,0.004943792,-0.01165201,-0.008428795,0.9893264,20.12371,-38.95653,-30.59538,1013.049
14.768377304,-0.04006511,0.03505903,0.004912134,-0.01652297,-0.009437189,0.9854864,19.75317,-38.96051,-30.59399,1013.049
14.788200855,-0.04004141,-0.1465292,0.1272247,-0.0131143,-0.009905323,0.9859481,19.75317,-38.96051,-30.59399,1013.049
14.808023930,0.08241072,0.1559463,0.06603084,-0.01020827,-0.004521163,0.9912692,19.75317,-38.96051,-30.59399,1013.049
14.827847958,0.02116259,0.09523195,-0.1786695,-0.01067554,-0.009398784,0.9888333,19.37688,-38.59781,-30.59909,1013.048
14.847671032,-0.04006636,0.03461307,0.1271499,-0.01165585,-0.008920409,0.9873931,19.37688,-38.59781,-30.59909,1013.048
14.867494583,0.1436192,0.03445027,-0.05627283,-0.01410223,-0.007476906,0.9854832,19.37618,-38.60502,-30.9791,1013.048
14.887318135,-0.04013419,0.09491441,-0.1785524,-0.01214654,-0.008437173,0.9869156,19.37618,-38.60502,-30.9791,1013.048
14.907141209,0.02112307,-0.0261403,-0.05610552,-0.01019575,-0.007934321,0.9893209,19.37618,-38.60502,-30.9791,1013.048
14.929442883,0.0822777,-0.08654121,-0.1784064,-0.009740526,-0.005020804,0.9849892,19.74907,-38.57698,-29.71377,1013.05
14.949265957,-0.04004989,0.0345685,-0.1171223,-0.01070774,-0.005999687,0.9849895,19.74907,-38.57698,-29.71377,1013.05
14.969089985,0.02132241,0.09495636,-0.0558386,-0.008254795,-0.007438501,0.9888301,19.74167,-38.22712,-30.60695,1013.05
14.988913059,0.0212304,0.03450908,-0.1169569,-0.009703415,-0.008416385,0.9902812,19.74167,-38.22712,-30.60695,1013.05
15.008736134,0.2048968,-0.02588137,-0.05567359,-0.01556283,-0.006018996,0.9874294,19.74167,-38.22712,-30.60695,1013.05
15.028560162,0.08229983,0.09519011,0.00557109,-0.009731242,-0.005503042,0.9869175,19.7425,-38.2187,-30.1636,1013.05
15.048383236,0.02112884,-0.02597924,0.005480297,-0.01407604,-0.01039142,0.9883641,19.7425,-38.2187,-30.1636,1013.049
15.068206787,-0.04017691,-0.02631292,-0.05573431,-0.015035,-0.008431181,0.9956197,20.10742,-37.91756,-30.61374,1013.049
15.088029861,0.02129203,-0.02643686,0.1277778,-0.01165799,-0.006477583,0.9907843,20.10742,-37.91756,-30.61374,1013.051
15.107853413,-0.1011322,-0.02637047,-0.1169432,-0.006807308,-0.008905786,0.9830226,20.10742,-37.91756,-30.61374,1013.051
15.127676964,-0.1010321,-0.1473107,0.0665882,-0.0136295,-0.003573134,0.9879141,19.37618,-38.60502,-30.9791,1013.047
15.147500038,-0.1010092,0.03419843,0.005296938,-0.01263227,-0.005017157,0.992728,19.37618,-38.60502,-30.9791,1013.047
15.167324066,0.02159605,0.03413155,-0.05593637,-0.01505084,-0.007953631,0.9917608,19.37771,-38.58939,-30.15573,1013.046
15.187147141,0.1440665,-0.0263908,0.005308852,-0.0155732,-0.005048663,0.9859865,19.37771,-38.58939,-30.15573,1013.046
15.209448338,-0.03957961,-0.02631625,0.0665715,-0.01166238,-0.007458462,0.9878834,19.37771,-38.58939,-30.15573,1013.044
15.229271889,-0.1008291,-0.1474465,-0.05570939,-0.01214217,-0.008922925,0.9873958,19.7425,-38.2187,-30.1636,1013.044
15.249094963,0.1440696,0.03393003,-0.1779712,-0.01216506,-0.004539433,0.9879012,19.7425,-38.2187,-30.1636,1013.046
15.268918991,0.02160614,0.09437644,0.1890663,-0.01459343,-0.004549674,0.9888797,19.38264,-38.9645,-30.59261,1013.046
15.288742065,-0.03968154,0.09415844,-0.1166447,-0.01359842,-0.007950768,0.9898221,19.38264,-38.9645,-30.59261,1013.044
15.308566094,0.02161311,0.09405495,0.0668475,-0.01312629,-0.007469529,0.9864432,19.38264,-38.9645,-30.59261,1013.044
15.328389168,0.02171262,-0.2085927,0.1279189,-0.01021319,-0.004524678,0.9898212,19.75247,-38.96773,-30.97401,1013.044
15.348212242,0.2054354,0.03339294,0.005503185,-0.01166238,-0.007458462,0.9878834,19.75247,-38.96773,-30.97401,1013.044
15.368036270,0.08293314,-0.148172,-0.1167011,-0.008249877,-0.007434986,0.9902782,19.74742,-38.59382,-30.60047,1013.043
15.387859345,0.08305178,0.09394683,0.06679123,-0.00875803,-0.005008739,0.9878801,19.74742,-38.59382,-30.60047,1013.043
15.407682896,0.02180192,0.03336921,-0.1166142,-0.01167058,-0.007464321,0.98547,19.74742,-38.59382,-30.60047,1013.047
15.427505970,-0.2842279,0.03326637,0.1280597,-0.01407112,-0.01038791,0.9898122,19.37618,-38.60502,-30.9791,1013.047
15.447329521,0.08327158,-0.1483171,0.005778026,-0.008741125,-0.007441019,0.9888328,19.37618,-38.60502,-30.9791,1013.045
15.467153072,0.02209819,-0.08775505,-0.05557167,-0.009722513,-0.006474547,0.9878778,19.37618,-38.60502,-30.9791,1013.045
15.489454270,0.02215106,0.1543158,-0.1165963,-0.01069679,-0.00501412,0.9898213,19.38264,-38.9645,-30.59261,1013.045
15.509277821,0.022057,0.03311186,0.005848512,-0.009702353,-0.01037112,0.987375,19.38264,-38.9645,-30.59261,1013.045
15.529101372,-0.161622,-0.02727514,0.1283891,-0.007770638,-0.006459793,0.9897979,19.00635,-38.60179,-30.5977,1013.043
15.548924923,-0.161447,-0.02733959,0.06721152,-0.009738887,-0.005019632,0.985472,19.00635,-38.60179,-30.5977,1013.043
15.568747997,-0.1001159,0.03316587,-0.0549367,-0.006823635,-0.004517606,0.9854586,19.00635,-38.60179,-30.5977,1013.047
15.588571072,-0.03884251,-0.02754406,0.1286501,-0.009730712,-0.006480406,0.9854644,19.0121,-38.96848,-30.59122,1013.047
15.608395100,0.02241161,0.03305677,0.06737588,-0.01118751,-0.005997516,0.9869229,19.0121,-38.96848,-30.59122,1013.046
15.628218174,0.02252824,-0.2090201,0.006140281,-0.01215578,-0.00502167,0.9898292,19.0121,-38.96848,-30.59122,1013.046
15.648042202,0.1449386,-0.08800168,0.0673065,-0.01118478,-0.006484441,0.9869204,19.0121,-38.96848,-30.59122,1013.044
15.667865276,0.1449975,0.03309271,0.06731032,-0.01022577,-0.005511417,0.9845067,19.0121,-38.96848,-30.59122,1013.044
15.687688351,0.08364981,0.2145857,0.006113321,-0.01655563,-0.0006608297,0.9903585,19.38264,-38.9645,-30.59261,1013.046
15.707512379,0.08351671,0.03288878,0.06727971,-0.009226878,-0.005487634,0.9922242,19.38264,-38.9645,-30.59261,1013.046
15.727335453,0.08353758,-0.1486559,-0.05507975,-0.01265356,-0.003565757,0.9888741,19.37113,-38.23111,-30.60557,1013.044
15.747159004,-0.1001612,0.03279945,0.1896316,-0.01114933,-0.01134783,0.9893087,19.37113,-38.23111,-30.60557,1013.044
15.769460201,-0.03885623,-0.02776793,-0.1774756,-0.01069025,-0.006476066,0.9893311,19.37113,-38.23111,-30.60557,1013.043
15.789284229,0.1449225,-0.02769819,-0.05505071,-0.006811582,-0.002553503,0.9922261,19.37688,-38.59781,-30.59909,1013.043
15.809107304,0.08388256,0.09335877,-0.2385535,-0.01072028,-0.004053161,0.9845169,19.37688,-38.59781,-30.59909,1013.047
15.828930378,-0.03848747,0.03289664,0.1284826,-0.01312627,-0.006002896,0.9888642,19.754,-38.9521,-30.15064,1013.047
15.848753929,-0.1607808,0.03309901,0.006103814,-0.01165368,-0.009896601,0.9864227,19.754,-38.9521,-30.15064,1013.045
15.868577481,-0.03819856,-0.08812349,-0.1161979,-0.01267922,-0.001628605,0.9845401,19.754,-38.9521,-30.15064,1013.045
15.888401032,-0.09933615,0.2143763,0.1285133,-0.01066677,-0.007437025,0.9946355,19.38264,-38.9645,-30.59261,1013.049
15.908224106,-0.1605316,0.03264198,-0.05510475,-0.01018374,-0.008903484,0.9912466,19.38264,-38.9645,-30.59261,1013.049
15.928048134,-0.03796916,-0.08876923,-0.05512001,-0.01171801,-0.0001651414,0.9835771,19.75975,-39.31879,-30.14416,1013.048
15.947871208,0.1459035,0.09280189,-0.1162592,-0.009717617,-0.007937664,0.9869049,19.75975,-39.31879,-30.14416,1013.048
15.967694283,-0.03766351,-0.08872221,0.1285097,-0.01067607,-0.008421419,0.9902865,19.75975,-39.31879,-30.14416,1013.046
15.987518311,-0.1600358,-0.02823361,0.1285134,-0.01266234,-0.005527516,0.983072,19.74742,-38.59382,-30.60047,1013.046
16.007341385,-0.03747465,0.03210305,0.06718186,-0.01412128,-0.002601803,0.9879218,19.74742,-38.59382,-30.60047,1013.05
16.027164936,-0.03738056,-0.08905994,-0.05521569,-0.01555461,-0.004546505,0.9922637,20.11879,-38.58142,-30.15851,1013.05
16.049466133,0.08530733,-0.02869459,-0.1776341,-0.01505793,-0.006980955,0.9912831,20.11879,-38.58142,-30.15851,1013.048
16.069289207,0.02401351,0.2133523,-0.1163712,-0.00826297,-0.005977727,0.9888377,20.11879,-38.58142,-30.15851,1013.048
16.089113235,0.08522514,0.03171537,0.06710112,-0.01311428,-0.008438691,0.9883689,19.0121,-38.96848,-30.59122,1013.048
16.108936310,0.02387379,0.0316168,0.005962182,-0.01749833,-0.007488665,0.9879152,19.0121,-38.96848,-30.59122,1013.048
16.128760338,-0.2210815,0.09212608,-0.05517681,-0.01456784,-0.01088672,0.985951,19.75975,-39.31879,-30.14416,1013.05
16.148583412,0.02381174,0.1523315,-0.05526864,-0.01117878,-0.006969022,0.9878833,19.75975,-39.31879,-30.14416,1013.05
16.168406963,-0.03732766,0.03136051,-0.1774932,-0.008276619,-0.005009738,0.9864293,19.75975,-39.31879,-30.14416,1013.05
16.188230038,0.02409562,-0.2712627,0.06725674,-0.01022027,-0.003552001,0.9893436,19.74742,-38.59382,-30.60047,1013.05
16.208054066,-0.03700615,-0.02902481,-0.055045,-0.01504539,-0.008927481,0.9917558,19.74742,-38.59382,-30.60047,1013.049
16.227877140,-0.1594379,0.152529,-0.1161269,-0.009259647,-0.004044438,0.9849916,19.38346,-38.95608,-30.14925,1013.049
16.247700214,0.02437458,0.03134866,0.06728734,-0.0126274,-0.007946905,0.9893342,19.38346,-38.95608,-30.14925,1013.049
16.267524242,-0.2205435,-0.1502872,0.1284536,-0.01263562,-0.009419397,0.9844999,19.38346,-38.95608,-30.14925,1013.049
16.287347317,-0.03650095,-0.02937832,-0.1164035,-0.01068152,-0.007447571,0.9902915,19.38264,-38.9645,-30.59261,1013.051
16.307171345,-0.03650545,-0.02947553,0.06706885,-0.008731842,-0.007923256,0.9907609,19.38264,-38.9645,-30.59261,1013.051
16.329472065,0.08596849,0.03083552,0.1280227,-0.0106979,-0.005992656,0.9878857,19.01293,-38.96006,-30.14786,1013.049
16.349295616,-0.09764029,-0.09028628,0.06684592,-0.01166074,-0.007457291,0.9883659,19.01293,-38.96006,-30.14786,1013.049
16.369119167,-0.03633468,0.1516872,-0.1166942,-0.01456835,-0.008442726,0.9898249,19.01293,-38.96006,-30.14786,1013.049
16.388942242,0.02497077,0.03064183,-0.05537307,-0.01459073,-0.006503231,0.9864562,19.37771,-38.58939,-30.15573,1013.049
16.408766270,-0.09740509,0.09122953,0.06701406,-0.01166291,-0.006481098,0.9893364,19.37771,-38.58939,-30.15573,1013.054
16.428589344,0.1476004,-0.0904807,-0.05545992,-0.01263178,-0.008927786,0.986433,19.37688,-38.59781,-30.59909,1013.054
16.448412895,-0.03625914,-0.2114688,0.1893675,-0.01165148,-0.009406161,0.9878733,19.37688,-38.59781,-30.59909,1013.052
16.468236446,0.08618356,0.03065699,0.005807828,-0.008735699,-0.0098815,0.9864068,19.37688,-38.59781,-30.59909,1013.052
16.488059998,0.1474121,-0.02989469,0.005870037,-0.01162853,-0.009389756,0.9946307,19.74825,-38.5854,-30.15712,1013.05
16.507883072,0.02484424,0.03050316,0.005759355,-0.01309407,-0.009401994,0.992708,19.74825,-38.5854,-30.15712,1013.05
16.527706146,0.02503171,0.09082536,-0.1164648,-0.008285347,-0.004038232,0.985469,19.74167,-38.22712,-30.60695,1013.048
16.547530174,0.1475511,-0.09076986,0.0669886,-0.01263338,-0.005995692,0.9907922,19.74167,-38.22712,-30.60695,1013.048
16.567353249,0.08640849,-0.09067499,0.06699321,-0.01265626,-0.0016122,0.9912975,19.74167,-38.22712,-30.60695,1013.047
16.587177277,-0.09729742,0.03031215,0.005873758,-0.01118806,-0.006486785,0.9859551,19.74167,-38.22712,-30.60695,1013.047
16.609478474,-0.09719566,-0.03026714,-0.05532445,-0.0179885,-0.007982794,0.9859846,19.74167,-38.22712,-30.60695,1013.051
16.629302025,-0.1583004,0.2722204,0.06710094,-0.009246022,-0.006479061,0.984979,19.37688,-38.59781,-30.59909,1013.051
16.649125099,-0.09691947,0.02998006,0.128287,-0.01314481,-0.003571789,0.9874287,19.37688,-38.59781,-30.59909,1013.049
16.668948174,0.02559854,0.0904364,-0.0553113,-0.00974817,-0.004537394,0.9835438,19.37688,-38.59781,-30.59909,1013.049
16.688772202,0.02553439,-0.03093002,0.005836438,-0.01116619,-0.005982283,0.9931976,19.38264,-38.9645,-30.59261,1013.047
16.708595276,-0.09684291,-0.03119419,-0.05534058,-0.01022083,-0.004041269,0.9883756,19.38264,-38.9645,-30.59261,1013.047
16.728419304,0.02588628,0.02928285,-0.05537447,-0.01264379,-0.007958624,0.9845074,19.0121,-38.96848,-30.59122,1013.047
16.748242378,-0.03537382,0.08974095,-0.1777907,-0.01313285,-0.007474217,0.9845126,19.0121,-38.96848,-30.59122,1013.047
16.768065930,-0.1578096,-0.03137683,-0.055461,-0.01799341,-0.00798631,0.9845365,19.0121,-38.96848,-30.59122,1013.051
16.787889004,0.02605636,-0.09194372,0.005667981,-0.01215139,-0.004040791,0.9927304,19.74742,-38.59382,-30.60047,1013.051
16.807713032,0.1486116,0.08967326,0.005615365,-0.01020937,-0.005499699,0.9893335,19.74742,-38.59382,-30.60047,1013.051
16.827536106,0.02617515,-0.03134923,-0.0555612,-0.01409782,-0.005029394,0.9908051,19.00635,-38.60179,-30.5977,1013.051
16.847359181,0.02620552,0.02903324,-0.1166418,-0.01214492,-0.009902634,0.9849773,19.00635,-38.60179,-30.5977,1013.049
16.867183209,-0.03499761,-0.03149527,-0.1167713,-0.01698254,-0.01039832,0.9917588,19.00635,-38.60179,-30.5977,1013.049
16.889484406,-0.1573657,0.02897345,0.005499449,-0.009247638,-0.0050136,0.9869174,19.75247,-38.96773,-30.97401,1013.046
16.909307957,-0.03477288,0.02897659,0.06660973,-0.01162365,-0.01231951,0.9912369,19.75247,-38.96773,-30.97401,1013.046
16.929131031,0.02635567,0.02892287,0.06665368,-0.01119732,-0.004537914,0.9864478,19.38111,-38.98014,-31.41598,1013.05
16.948955059,-0.09613894,0.08941993,0.005400699,-0.007757567,-0.009383683,0.9888174,19.38111,-38.98014,-31.41598,1013.05
16.968778134,0.02647322,0.02883476,0.06678002,-0.008777129,-0.0030669,0.9854767,19.38111,-38.98014,-31.41598,1013.048
16.988601208,-0.03478829,-0.09239599,0.12789,-0.007780476,-0.006466824,0.9869019,19.01293,-38.96006,-30.14786,1013.048
17.008425236,0.02653258,0.0892411,0.06671362,-0.01602678,-0.007961009,0.9908007,19.01293,-38.96006,-30.14786,1013.048
17.028248310,0.08779559,-0.03176144,0.005556446,-0.01314155,-0.005036078,0.9859732,19.37771,-38.58939,-30.15573,1013.048
17.048072338,0.1489624,0.1497804,-0.1167633,-0.01462186,-0.005058862,0.9797064,19.37771,-38.58939,-30.15573,1013.047
17.067895412,-0.09607626,-0.03175396,0.1279493,-0.009725238,-0.005987622,0.9878803,19.37771,-38.58939,-30.15573,1013.047
17.087718964,-0.03481308,0.1499019,0.005591109,-0.006796362,-0.007920219,0.9878544,19.74742,-38.59382,-30.60047,1013.047
17.107542038,0.02631562,-0.03180356,0.06666277,-0.008258075,-0.007440845,0.9878649,19.74742,-38.59382,-30.60047,1013.045
17.127366066,-0.09604434,-0.09233145,-0.0556951,-0.01312137,-0.007466014,0.9878913,19.37618,-38.60502,-30.9791,1013.045
17.147189140,0.1490538,-0.09209967,0.0666545,-0.01311867,-0.009419571,0.9854679,19.37618,-38.60502,-30.9791,1013.047
17.169490337,0.08789893,0.02893898,0.1889447,-0.01458142,-0.005518835,0.9908053,19.37618,-38.60502,-30.9791,1013.047
17.189313889,-0.09592606,0.1498537,-0.05569952,-0.01309627,-0.009892434,0.9912574,20.11796,-38.58984,-30.60186,1013.047
17.209137440,-0.03458626,0.08932576,-0.1778847,-0.007783201,-0.005979898,0.9869044,20.11796,-38.58984,-30.60186,1013.047
17.228960991,-0.03465326,0.0285888,0.005742066,-0.01410881,-0.008948226,0.9811316,18.99989,-38.24231,-30.98419,1013.045
17.248784065,-0.09593423,-0.0319766,-0.0555692,-0.01361858,-0.0040542,0.990325,18.99989,-38.24231,-30.98419,1013.045
17.268608093,-0.2182372,-0.1530736,0.005617555,-0.01117933,-0.00745829,0.9869153,18.99989,-38.24231,-30.98419,1013.046
17.288431168,-0.09566443,0.08890571,0.06684269,-0.01023175,-0.003560203,0.9859649,19.74825,-38.5854,-30.15712,1013.046
17.308255196,0.08808397,-0.03221005,-0.1778981,-0.0126274,-0.007946905,0.9893342,19.74825,-38.5854,-30.15712,1013.045
17.328078270,-0.03435429,-0.09260383,0.06675681,-0.01313885,-0.006989636,0.9835498,19.37688,-38.59781,-30.59909,1013.045
17.347901344,0.0269077,0.02838817,0.0667428,-0.01653112,-0.006509783,0.9879149,19.37688,-38.59781,-30.59909,1013.043
17.367724896,-0.1568026,0.1492282,-0.116797,-0.01315137,-0.003576476,0.9854981,19.37688,-38.59781,-30.59909,1013.043
17.387548447,-0.03419182,-0.03238058,0.1279733,-0.01410546,-0.004545985,0.9893597,19.74742,-38.59382,-30.60047,1013.041
17.407371998,-0.0340484,0.0281944,0.005691838,-0.01021378,-0.007947211,0.9840114,19.74742,-38.59382,-30.60047,1013.041
17.427195072,-0.03405912,-0.09282585,0.005735207,-0.01505198,-0.0103988,0.9874041,19.754,-38.9521,-30.15064,1013.041
17.449496746,0.027136,-0.03229775,-0.05550111,-0.01409675,-0.006984123,0.9878991,19.754,-38.9521,-30.15064,1013.041
17.469320297,-0.09522606,-0.3953498,-0.1165626,-0.014088,-0.006488997,0.9912803,19.754,-38.9521,-30.15064,1013.039
17.489143849,-0.09504469,-0.03226875,0.005786195,-0.01115425,-0.01135134,0.9878606,20.11879,-38.58142,-30.15851,1013.039
17.508966923,0.0274879,0.1493313,0.005905978,-0.01167056,-0.005997689,0.9878909,20.11879,-38.58142,-30.15851,1013.039
17.528790951,-0.03369918,0.02821592,0.005910389,-0.007797912,-0.003057179,0.9874021,20.11726,-38.59705,-30.98188,1013.039
17.548614025,-0.09480962,0.1491325,-0.05522848,-0.00874713,-0.006956438,0.98787,20.11726,-38.59705,-30.98188,1013.042
17.568437100,-0.03360713,-0.03262804,0.06719677,-0.013641,-0.00504797,0.9821144,20.11726,-38.59705,-30.98188,1013.042
17.588261128,0.02771075,0.2094857,-0.05508566,-0.008756391,-0.005007568,0.9883626,19.0006,-38.23509,-30.60418,1013.04
17.608084202,0.08910529,-0.09316682,0.006061543,-0.01262578,-0.009412367,0.9873959,19.0006,-38.23509,-30.60418,1013.04
17.627907753,0.02795564,-0.09310395,0.06736249,-0.01411696,-0.00602082,0.9835601,19.0006,-38.23509,-30.60418,1013.042
17.647731304,-0.03317499,-0.03264228,-0.05493946,-0.01066735,-0.009392926,0.9912467,19.00225,-38.21825,-29.71747,1013.042
17.667554856,0.08927904,0.02787646,-0.1160025,-0.0116482,-0.009403817,0.9888386,19.00225,-38.21825,-29.71747,1013.042
17.687377930,-0.09431875,-0.1536747,0.06750734,-0.01120055,-0.001606993,0.9903243,19.01139,-38.9757,-30.97123,1013.042
17.707201958,-0.03282919,0.08830614,-0.1770049,-0.008273871,-0.00403003,0.9888477,19.01139,-38.9757,-30.97123,1013.041
17.729503155,-0.03264035,0.08824662,0.006406717,-0.01166017,-0.00550139,0.9917549,19.37113,-38.23111,-30.60557,1013.041
17.749326706,-0.0937727,0.08810116,0.06753394,-0.01262409,-0.00647793,0.9927204,19.37113,-38.23111,-30.60557,1013.043
17.769149780,0.0287759,-0.09354417,0.006451409,-0.01407876,-0.009904498,0.9883666,19.37113,-38.23111,-30.60557,1013.043
17.788972855,-0.03251059,-0.03300548,-0.0546696,-0.01264266,-0.005513455,0.9888641,20.10742,-37.91756,-30.61374,1013.041
17.808796883,-0.1549537,0.08793169,0.006514963,-0.01116074,-0.006956132,0.9931926,20.10742,-37.91756,-30.61374,1013.041
17.828619957,-0.09361939,-0.03316244,-0.05466387,-0.01264382,-0.009425256,0.9820865,20.10742,-37.91756,-30.61374,1013.043
17.848443985,0.1514151,-0.1542755,0.006501395,-0.01310989,-0.007457811,0.99127,19.38921,-39.32278,-30.14277,1013.043
17.868267060,0.02881783,-0.09381228,-0.1156287,-0.01503613,-0.01087635,0.991263,19.38921,-39.32278,-30.14277,1013.042
17.888090611,-0.03243028,0.2085879,0.0679377,-0.01555953,-0.00455002,0.9908156,20.11643,-38.60547,-31.42523,1013.042
17.907914162,-0.03236807,-0.03362569,-0.1157011,-0.01169026,-0.007478383,0.9796779,20.11643,-38.60547,-31.42523,1013.043
17.927737713,-0.09359723,0.147978,0.1290281,-0.009235099,-0.006960126,0.9873899,20.11643,-38.60547,-31.42523,1013.043
17.947560787,0.09014592,-0.03370378,0.006609555,-0.01506613,-0.006986814,0.9888697,19.37196,-38.22269,-30.16221,1013.048
17.967384815,-0.09355015,0.08719724,0.006688956,-0.01164328,-0.009400302,0.9902867,19.37196,-38.22269,-30.16221,1013.048
17.987207890,0.02897874,0.02676944,-0.05450947,-0.01409509,-0.005516319,0.9908026,19.0236,-39.70187,-30.57826,1013.046
18.009509087,-0.09335867,-0.03376184,0.06770065,-0.01166566,-0.007460807,0.986918,19.0236,-39.70187,-30.57826,1013.046
18.029332638,0.02916978,0.08708253,0.006521702,-0.01556279,-0.003085732,0.9922712,19.0236,-39.70187,-30.57826,1013.048
18.049155712,-0.1544309,0.02640815,-0.1768284,-0.01021319,-0.004524678,0.9898212,19.74167,-38.22712,-30.60695,1013.048
18.068979740,0.09079456,-0.03411384,0.00681496,-0.01360227,-0.009909011,0.985468,19.74167,-38.22712,-30.60695,1013.046
18.088802815,-0.03182346,0.08675032,-0.05442224,-0.01212631,-0.007933843,0.9936756,19.75317,-38.96051,-30.59399,1013.046
18.108626843,0.02960526,0.08666546,-0.05442005,-0.01215525,-0.005999034,0.9883761,19.75317,-38.96051,-30.59399,1013.05
18.128449917,-0.03177949,0.1471696,0.006667852,-0.009729603,-0.00550187,0.9874001,19.75317,-38.96051,-30.59399,1013.05
18.148273468,-0.03189185,0.08657232,-0.05437697,-0.008248237,-0.007433814,0.9907608,19.37688,-38.59781,-30.59909,1013.05
18.168097019,-0.03190783,0.02597535,-0.0543172,-0.01167656,-0.005513108,0.9869281,19.37688,-38.59781,-30.59909,1013.05
18.187920570,-0.03196232,-0.09507732,0.06797141,-0.01410763,-0.003569792,0.9903302,20.11304,-38.21472,-30.16499,1013.048
18.207743645,0.02933205,0.08652847,0.06799275,-0.01553443,-0.00697644,0.9941819,20.11304,-38.21472,-30.16499,1013.048
18.227567673,0.02943137,0.02610243,0.1290421,-0.008263547,-0.007933628,0.985449,20.11304,-38.21472,-30.16499,1013.047
18.247390747,-0.03185675,-0.03447578,0.006719589,-0.01262908,-0.01088134,0.9840096,19.38346,-38.95608,-30.14925,1013.047
18.267213821,-0.03179602,0.08642722,0.06792274,-0.009211128,-0.01183171,0.9863994,19.38346,-38.95608,-30.14925,1013.051
18.289515495,0.09091438,-0.03476629,0.1288743,-0.01119023,-0.005510592,0.9869254,19.74907,-38.57698,-29.71377,1013.051
18.309338570,-0.09280285,-0.1557423,0.06765698,-0.008744428,-0.008909995,0.9854466,19.74907,-38.57698,-29.71377,1013.049
18.329162598,-0.03160545,-0.1557501,0.006497491,-0.007753711,-0.007425439,0.9931715,19.74907,-38.57698,-29.71377,1013.049
18.348985672,-0.09268286,0.02585611,0.006423641,-0.01309955,-0.009894777,0.9902921,19.74742,-38.59382,-30.60047,1013.049
18.368809700,-0.03140884,0.08636087,-0.05473569,-0.01072358,-0.005522137,0.9811307,19.74742,-38.59382,-30.60047,1013.049
18.388632774,0.1525818,0.02593523,0.006602567,-0.009183808,-0.01230106,0.9936371,19.37688,-38.59781,-30.59909,1013.049
18.408456326,-0.03119414,0.02583216,0.006662767,-0.01360608,-0.008933991,0.9859558,19.37688,-38.59781,-30.59909,1013.049
18.428279877,0.2138372,0.08641304,-0.05459322,-0.01797044,-0.006503273,0.9937149,19.37688,-38.59781,-30.59909,1013.053
18.448103428,-0.03109545,0.02596832,0.0677535,-0.01411038,-0.004549501,0.9879117,19.38346,-38.95608,-30.14925,1013.053
18.467926502,0.03012002,-0.155578,0.00657453,-0.01360878,-0.006980434,0.9883791,19.38346,-38.95608,-30.14925,1013.051
18.487750530,-0.03118913,0.02595177,-0.05460446,-0.0140831,-0.007952113,0.9903075,19.36563,-37.93275,-30.99098,1013.051
18.507573605,-0.03111076,-0.03455014,-0.05473618,-0.01456232,-0.007460674,0.9932086,19.36563,-37.93275,-30.99098,1013.051
18.527397156,0.03022011,0.0865241,0.06768777,-0.01407274,-0.008922447,0.9917505,19.36563,-37.93275,-30.99098,1013.051
18.547220707,-0.09228424,0.08647782,0.06755617,-0.01215638,-0.008444203,0.9840195,19.37113,-38.23111,-30.60557,1013.055
18.569521427,0.03032795,-0.09498169,0.006375678,-0.01315194,-0.005532377,0.9821092,19.37113,-38.23111,-30.60557,1013.055
18.589345455,-0.03100088,-0.03442051,-0.05487951,-0.01262961,-0.009903978,0.9854627,19.74742,-38.59382,-30.60047,1013.055
18.609168530,0.03023353,0.02602662,-0.05485696,-0.009264543,-0.002581321,0.9859647,19.74742,-38.59382,-30.60047,1013.055
18.628992558,0.03021531,-0.03438041,-0.05493041,-0.01311047,-0.009413712,0.9878812,19.74742,-38.59382,-30.60047,1013.055
18.648815632,0.2138591,-0.09488277,0.006216332,-0.01020616,-0.009897253,0.983036,19.38264,-38.9645,-30.59261,1013.055
18.668639183,-0.03115045,-0.09475848,0.06732478,-0.009684317,-0.01035822,0.9926844,19.38264,-38.9645,-30.59261,1013.059
18.688462734,-0.09242092,0.08673262,-0.1161397,-0.01120716,-0.004544945,0.9835518,19.75317,-38.96051,-30.59399,1013.059
18.708286286,-0.03114761,-0.155327,0.006150406,-0.01020337,-0.005984279,0.9902964,19.75317,-38.96051,-30.59399,1013.058
18.728109360,0.03006802,0.1471896,-0.1772565,-0.01214217,-0.008922925,0.9873958,19.75317,-38.96051,-30.59399,1013.058
18.747933388,0.03010786,-0.03433816,0.0673393,-0.01458634,-0.00552235,0.9893574,19.75317,-38.96051,-30.59399,1013.058
18.767756462,0.1524992,0.207628,0.006122954,-0.01460818,-0.00456022,0.9845356,19.75317,-38.96051,-30.59399,1013.058
18.787580013,-0.03121887,-0.03454525,0.1897101,-0.01361204,-0.005516145,0.9898347,20.12371,-38.95653,-30.59538,1013.056
18.807403565,0.09124949,0.0864718,0.006207302,-0.007283246,-0.008412004,0.9868891,20.12371,-38.95653,-30.59538,1013.056
18.827227116,-0.03115825,-0.09511242,0.06745011,-0.01458472,-0.006987812,0.9874191,20.12371,-38.95653,-30.59538,1013.062
18.849528313,-0.0311278,-0.1556603,-0.1159974,-0.007763017,-0.008409834,0.9888225,19.37771,-38.58939,-30.15573,1013.062
18.869351387,-0.03106889,-0.1555164,0.006349914,-0.01555953,-0.00455002,0.9908156,19.37771,-38.58939,-30.15573,1013.06
18.889175415,-0.03085642,0.2074753,0.006333973,-0.009235076,-0.005493493,0.9898108,19.75317,-38.96051,-30.59399,1013.06
18.908998490,0.09164958,0.08651783,-0.05474848,-0.01506671,-0.008942714,0.985481,19.75317,-38.96051,-30.59399,1013.064
18.928822041,-0.09212717,0.02609178,0.1898852,-0.01360932,-0.006003069,0.9898322,19.75317,-38.96051,-30.59399,1013.064
18.948645592,-0.153264,-0.03433446,0.06760202,-0.01360112,-0.00599721,0.9922456,19.0006,-38.23509,-30.60418,1013.062
18.968469143,0.09168953,0.08673917,0.006538536,-0.01312028,-0.007954109,0.9874061,19.0006,-38.23509,-30.60418,1013.062
18.988292217,-0.1532054,-0.03433304,-0.1157644,-0.008774403,-0.003553824,0.9854742,19.37196,-38.22269,-30.16221,1013.062
19.008116245,0.03038,0.02605692,-0.05456084,-0.009721383,-0.004029378,0.9922345,19.37196,-38.22269,-30.16221,1013.062
19.027939320,0.03041904,0.02601051,0.06790109,-0.01020397,-0.009406813,0.9844866,19.37196,-38.22269,-30.16221,1013.065
19.047762871,0.03049643,0.0865149,-0.1156032,-0.01067882,-0.009401128,0.987868,19.754,-38.9521,-30.15064,1013.065
19.067586422,0.1528676,0.08646861,0.06815516,-0.01362731,-0.003082694,0.9893647,19.754,-38.9521,-30.15064,1013.065
19.087409973,0.03040121,-0.216027,-0.1765506,-0.01019903,-0.007936665,0.9883555,19.37031,-38.23953,-31.04892,1013.065
19.107233048,0.09180813,0.0261673,-0.1153095,-0.01457869,-0.006005759,0.9908028,19.37031,-38.23953,-31.04892,1013.061
19.129535198,0.09187553,0.02596048,-0.05424371,-0.009226878,-0.005487634,0.9922242,19.37031,-38.23953,-31.04892,1013.061
19.149358273,-0.03062987,0.02581938,-0.1154235,-0.01313883,-0.005523003,0.9859707,19.37688,-38.59781,-30.59909,1013.061
19.169181824,-0.03053375,0.0863433,-0.1153641,-0.01509287,-0.004561565,0.9850209,19.37688,-38.59781,-30.59909,1013.061
19.189004898,-0.03047638,0.02589874,0.00694333,-0.009753065,-0.003074277,0.9845167,19.37688,-38.59781,-30.59909,1013.063
19.208828926,-0.09169111,-0.21635,-0.05410219,-0.0126449,-0.00893716,0.9825716,19.37688,-38.59781,-30.59909,1013.063
19.228652000,-0.152829,0.2073262,0.06837771,-0.01408038,-0.008439037,0.990305,19.37688,-38.59781,-30.59909,1013.063
19.248476029,0.03094758,0.08625528,0.1295222,-0.01702727,-0.005052698,0.9874424,19.74084,-38.23554,-31.05031,1013.063
19.268299103,-0.03005606,0.1467415,0.007217687,-0.01264049,-0.006489648,0.9878937,19.74084,-38.23554,-31.05031,1013.063
19.288122654,-0.03003826,0.146734,-0.05380934,-0.01117554,-0.009899943,0.9840066,19.74167,-38.22712,-30.60695,1013.063
19.307945728,-0.03005897,-0.03486861,0.007449813,-0.01258975,-0.01231985,0.9931729,19.74167,-38.22712,-30.60695,1013.063
19.327769756,-0.03009878,0.2071748,0.007411908,-0.01552789,-0.008438385,0.9936916,19.74167,-38.22712,-30.60695,1013.06
19.347592831,0.09234755,-0.1560416,-0.05388432,-0.01170386,-0.003577128,0.9821114,19.38346,-38.95608,-30.14925,1013.06
19.367416859,-0.09135406,0.02547041,0.1297384,-0.01167929,-0.005026184,0.9869306,19.38346,-38.95608,-30.14925,1013.064
19.387239933,0.03111159,0.08590017,0.06844211,-0.007788142,-0.007450046,0.9830354,19.75483,-38.94368,-29.70729,1013.064
19.407063007,0.03116803,-0.09564462,-0.05378595,-0.01214384,-0.01039073,0.9844922,19.75483,-38.94368,-29.70729,1013.062
19.429364681,0.03125299,-0.03524161,-0.05380675,-0.009719788,-0.006961471,0.9878753,19.75483,-38.94368,-29.70729,1013.062
19.449187756,-0.02988597,0.02530258,-0.05369083,-0.008285347,-0.004038232,0.985469,19.37771,-38.58939,-30.15573,1013.061
19.469011784,-0.09115973,0.1463024,0.1297394,-0.01602893,-0.005518184,0.9941921,19.37771,-38.58939,-30.15573,1013.061
19.488834858,-0.09116147,0.02511864,0.1295481,-0.01216234,-0.005026357,0.9878986,19.00552,-38.61021,-31.04105,1013.061
19.508658886,0.09253719,0.2064986,0.007262643,-0.01018921,-0.009396267,0.9888307,19.00552,-38.61021,-31.04105,1013.061
19.528481960,0.1538074,-0.09608949,-0.05387972,-0.01165744,-0.005988314,0.9917523,19.00552,-38.61021,-31.04105,1013.06
19.548305512,0.2763214,-10.62511,-12.83646,0.1288199,0.04993027,1.060776,19.7425,-38.2187,-30.1636,1013.06
19.568129063,0.9498895,6.802547,-28.31056,0.1417656,-0.01969777,1.034283,19.7425,-38.2187,-30.1636,1013.058
19.587952614,0.4600218,8.617929,-29.35032,-0.243961,0.1597161,0.744813,19.74742,-38.59382,-30.60047,1013.058
19.607775688,0.5824887,5.773831,-2.989305,-0.265979,-0.09332559,0.8599593,19.74742,-38.59382,-30.60047,1013.06
19.627599716,0.2150879,3.534862,0.06881799,0.09829576,-0.07201935,1.036666,19.74742,-38.59382,-30.60047,1013.06
19.647422791,-0.1523129,-1.729743,-0.05350692,0.07137846,-0.02192488,1.069892,20.84192,-37.55132,-31.06635,1013.057
19.667246342,-0.2747799,-1.124616,0.007655535,0.02797204,-0.03103656,1.019402,20.84192,-37.55132,-31.06635,1013.057
19.689547539,-0.1523129,-0.2774386,0.007655535,0.02157569,-0.01401169,1.025799,20.84932,-37.90118,-30.17317,1013.057
19.709371567,-0.02984598,-0.1564131,0.06881799,0.008369358,-0.01560018,1.001247,20.84932,-37.90118,-30.17317,1013.057
19.729194641,-0.02984598,0.02512497,-0.1146694,0.001538415,-0.01076265,1.002757,20.84932,-37.90118,-30.17317,1013.057
19.749018669,-0.09107946,0.1461504,0.06881799,-0.009213784,-0.006944893,0.9936647,20.48933,-38.57743,-30.1599,1013.057
19.768841744,0.03138749,0.1461504,0.06881799,-0.009218657,-0.004015143,0.9970585,20.48933,-38.57743,-30.1599,1013.057
19.788665295,0.03138749,0.1461504,0.06881799,-0.01071914,-0.001607992,0.9888735,20.4722,-37.54688,-30.62161,1013.057
19.808488369,0.03138749,0.1461504,0.1299804,-0.01364807,-0.00260866,0.9840577,20.4722,-37.54688,-30.62161,1013.061
19.828312397,-0.02984598,-0.03538773,-0.1146694,-0.0155814,-0.005054522,0.9835731,20.4722,-37.54688,-30.62161,1013.061
19.848135472,0.03138749,-0.03538773,0.007655535,-0.0140826,-0.01039611,0.9864334,20.47713,-37.922,-31.05849,1013.059
19.867959500,0.09262095,-0.03538773,0.007655535,-0.01700434,-0.006502926,0.991779,20.47713,-37.922,-31.05849,1013.059
19.887782574,-0.09107946,0.02512497,0.007655535,-0.01314042,-0.00259091,0.9903299,20.47713,-37.922,-31.05849,1013.057
19.907606125,-0.02984598,-0.03538773,0.007655535,-0.01164273,-0.008911034,0.9912545,20.85411,-38.20676,-30.16776,1013.057
19.927429199,0.09262095,-0.03538773,-0.05350692,-0.01409839,-0.006985295,0.9874164,20.85411,-38.20676,-30.16776,1013.06
19.947253227,-0.1523129,-0.03538773,0.1299804,-0.01165257,-0.008918065,0.9883584,20.85328,-38.21518,-30.61112,1013.06
19.967076302,0.03138749,0.08563767,0.1299804,-0.0111897,-0.006487956,0.9854724,20.85328,-38.21518,-30.61112,1013.058
19.989377499,-0.1523129,0.08563767,0.007655535,-0.01263887,-0.007955108,0.9859555,20.84439,-37.52606,-29.73629,1013.058
20.009201527,-0.02984598,0.2066631,0.1299804,-0.009730734,-0.007947038,0.9830435,20.84439,-37.52606,-29.73629,1013.058
20.029025078,-0.02984598,0.1461504,0.007655535,-0.01020062,-0.005004572,0.9927148,20.84439,-37.52606,-29.73629,1013.058
20.048848152,0.1538544,-0.03538773,-0.05350692,-0.01264211,-0.005024187,0.9898319,21.21821,-37.91403,-31.06126,1013.06
20.068672180,0.03138749,0.02512497,-0.1146694,-0.01118972,-0.007954588,0.9830514,21.21821,-37.91403,-31.06126,1013.06
20.088495255,-0.09107946,-0.03538773,0.1299804,-0.01213395,-0.007450434,0.9922301,21.21821,-37.91403,-31.06126,1013.058
20.108318806,-0.09107946,0.02512497,-0.05350692,-0.01410437,-0.005034082,0.9888745,21.59436,-38.20721,-30.6139,1013.058
20.128142357,0.03138749,-0.1564131,0.06881799,-0.01069134,-0.005987969,0.9898163,21.59436,-38.20721,-30.6139,1013.057
20.147965908,0.09262095,0.08563767,-0.1146694,-0.01408419,-0.007464017,0.9907926,20.48192,-38.22758,-31.05309,1013.057
20.167788982,-0.09107946,-0.09590044,-0.05350692,-0.01023177,-0.005026836,0.983544,20.48192,-38.22758,-31.05309,1013.055
20.187613010,-0.09107946,-0.03538773,0.06881799,-0.01213836,-0.009897946,0.9869081,20.48192,-38.22758,-31.05309,1013.055
20.207436085,-0.09107946,0.08563767,0.1299804,-0.01118806,-0.006486785,0.9859551,21.2175,-37.92125,-31.44128,1013.056
