Time (s),Gyroscope X (deg/s),Gyroscope Y (deg/s),Gyroscope Z (deg/s),Accelerometer X (g),Accelerometer Y (g),Accelerometer Z (g),Magnetometer X (uT),Magnetometer Y (uT),Magnetometer Z (uT),Barometer (hPa)
0.000000000,-1.761771,-2.480029,7.913692,-0.04225635,0.06540073,0.9787714,16.48042,-37.78713,-21.66968,1005.921
0.000000000,-1.761771,-2.480029,7.913692,-0.04225635,0.06540073,0.9787714,16.48042,-37.78713,-21.66968,1005.921
0.004956722,-2.251639,-1.995928,7.424392,-0.04462916,0.05369727,0.9767936,16.48042,-37.78713,-21.66968,1005.921
0.004956722,-2.251639,-1.995928,7.424392,-0.04462916,0.05369727,0.9767936,16.48042,-37.78713,-21.66968,1005.921
0.007434368,-2.741507,-1.935415,7.546717,-0.04464719,0.05368438,0.9714842,16.48042,-37.78713,-21.66968,1005.921
0.009912014,-2.98644,-1.572338,7.302067,-0.04559754,0.04733995,0.9675954,16.48042,-37.78713,-21.66968,1005.921
0.012390137,-3.108907,-1.3908,7.11858,-0.04217795,0.04639075,0.9704679,16.48042,-37.78713,-21.66968,1005.921
0.017345905,-3.537542,-0.1805463,7.11858,-0.04315938,0.04442396,0.964671,16.48042,-37.78713,-21.66968,1005.921
0.017345905,-3.537542,-0.1805463,7.11858,-0.04315938,0.04442396,0.964671,16.48042,-37.78713,-21.66968,1005.921
0.019824028,-3.721242,0.7876569,6.996255,-0.04266871,0.04247409,0.9627276,16.48042,-37.78713,-21.66968,1005.921
0.024779797,-4.517277,2.118936,7.11858,-0.04709965,0.05121257,0.9613487,16.48042,-37.78713,-21.66968,1005.92
0.024779797,-4.517277,2.118936,7.11858,-0.04709965,0.05121257,0.9613487,16.48042,-37.78713,-21.66968,1005.92
0.029736042,-5.129612,3.208165,6.812768,-0.04807286,0.05071827,0.9603862,16.48042,-37.78713,-21.66968,1005.92
0.029736042,-5.129612,3.208165,6.812768,-0.04807286,0.05071827,0.9603862,16.48042,-37.78713,-21.66968,1005.92
0.034691811,-5.190845,3.752779,6.751605,-0.0510476,0.05555132,0.951739,16.48042,-37.78713,-21.66968,1005.92
0.037169933,-5.190845,3.99483,6.751605,-0.05007224,0.05360279,0.9493103,16.48042,-37.78713,-21.66968,1005.92
0.039648056,-5.068378,4.115856,6.812768,-0.05203501,0.05553574,0.9474003,16.48042,-37.78713,-21.66968,1005.92
0.042125702,-5.007145,3.99483,7.057417,-0.05491584,0.05505832,0.9575498,16.48042,-37.78713,-21.66968,1005.92
0.044603825,-4.762211,3.934317,7.302067,-0.05344867,0.05360509,0.9575343,16.48042,-37.78713,-21.66968,1005.92
0.047082424,-4.578511,3.692266,7.485555,-0.05682573,0.04871823,0.9575276,16.48042,-37.78713,-21.66968,1005.92
0.049560547,-4.578511,3.510728,7.546717,-0.05726785,0.04434745,0.9632998,16.1026,-37.44005,-22.49814,1005.92
0.052038193,-4.456044,3.389703,7.546717,-0.05683824,0.05213139,0.9594761,16.1026,-37.44005,-22.49814,1005.92
0.054516315,-4.39481,3.208165,7.913692,-0.05440932,0.0526309,0.9594653,16.1026,-37.44005,-22.49814,1005.92
0.056994438,-4.088643,3.08714,7.974854,-0.05443385,0.05701322,0.9594879,16.1026,-37.44005,-22.49814,1005.92
0.059472561,-3.721242,2.905602,8.036016,-0.05346717,0.05896947,0.9609407,16.1026,-37.44005,-22.49814,1005.92
0.061950207,-3.476308,2.724063,8.158341,-0.04905582,0.05608346,0.9662112,16.1026,-37.44005,-22.49814,1005.923
0.064428329,-3.721242,2.724063,8.464154,-0.05196553,0.06047412,0.9759033,16.1026,-37.44005,-22.49814,1005.923
0.066906452,-3.904943,3.08714,8.647641,-0.04808415,0.06244312,0.9763747,16.1026,-37.44005,-22.49814,1005.923
0.069384098,-4.21111,3.147652,8.647641,-0.04905023,0.06390941,0.9807316,16.1026,-37.44005,-22.49814,1005.923
0.071862221,-4.272344,3.147652,8.769966,-0.04952621,0.06146992,0.9797564,16.1026,-37.44005,-22.49814,1005.923
0.074340343,-4.517277,3.32919,8.769966,-0.04710106,0.06587772,0.9850752,16.1026,-37.44005,-22.49814,1005.923
0.076817989,-4.456044,3.510728,8.708804,-0.04564704,0.0629485,0.9787774,16.1026,-37.44005,-22.49814,1005.923
0.079296112,-4.333577,3.631754,9.075778,-0.04516893,0.06147851,0.9739405,16.1026,-37.44005,-22.49814,1005.923
0.081774235,-3.966176,3.268678,9.014616,-0.04561708,0.05612569,0.9763288,16.1026,-37.44005,-22.49814,1005.923
0.084251881,-3.292608,3.026627,9.014616,-0.04515087,0.06295804,0.9816709,16.1026,-37.44005,-22.49814,1005.923
0.086730003,-2.374106,3.147652,8.892291,-0.04660879,0.06099576,0.9787726,16.1026,-37.44005,-22.49814,1005.923
0.089208126,-1.455604,3.08714,8.831128,-0.04706619,0.05905844,0.9840748,16.1026,-37.44005,-22.49814,1005.923
0.091686249,-0.5983351,2.784576,8.953453,-0.04950825,0.05708291,0.9778031,16.1026,-37.44005,-22.49814,1005.923
0.094163895,0.1976999,2.360987,9.259266,-0.04755967,0.05562869,0.9763369,16.1026,-37.44005,-22.49814,1005.923
0.096642017,1.238669,1.876886,9.136941,-0.04707656,0.06002877,0.9826317,16.1026,-37.44005,-22.49814,1005.923
0.099120140,1.851004,1.332271,9.198103,-0.04214945,0.05129984,0.986904,17.23064,-38.53661,-22.92622,1005.923
0.104075909,2.953206,0.2430426,10.23787,-0.05582495,0.06487615,0.9923581,17.23064,-38.53661,-22.92622,1005.923
0.104075909,2.953206,0.2430426,10.23787,-0.05582495,0.06487615,0.9923581,17.23064,-38.53661,-22.92622,1005.923
0.106554031,3.932941,0.0009917939,9.993216,-0.0617029,0.06970464,0.9880708,17.23064,-38.53661,-22.92622,1005.923
0.109031677,5.035144,-0.4225971,9.748566,-0.06609078,0.07016306,0.9856839,17.23064,-38.53661,-22.92622,1005.923
0.111509800,5.586245,-0.846186,9.442753,-0.06558154,0.06871534,0.9900178,17.23064,-38.53661,-22.92622,1005.923
0.113987923,5.769945,-1.632851,9.320428,-0.06364,0.07116707,0.9929158,17.23064,-38.53661,-22.92622,1005.923
0.116465569,5.525012,-1.874902,9.442753,-0.05823957,0.06976444,1.005429,17.23064,-38.53661,-22.92622,1005.923
0.118943691,4.60651,-2.116953,9.565078,-0.05095218,0.07615214,1.013627,17.23064,-38.53661,-22.92622,1005.923
0.121422291,3.443074,-2.05644,9.993216,-0.04751128,0.07521817,1.022774,17.23064,-38.53661,-22.92622,1005.923
0.123900414,2.279638,-1.632851,9.932053,-0.04267851,0.08011024,1.021808,17.23064,-38.53661,-22.92622,1005.923
0.126378536,0.993735,-0.9066988,10.05438,-0.04317577,0.08058879,1.0194,17.23064,-38.53661,-22.92622,1005.923
0.128856182,-0.1084674,0.0009917939,9.993216,-0.04848992,0.07716435,1.024238,17.23064,-38.53661,-22.92622,1005.923
0.138768196,-5.007145,2.845089,10.05438,-0.05382665,0.06247971,1.003919,17.23064,-38.53661,-22.92622,1005.923
0.138768196,-5.007145,2.845089,10.05438,-0.05382665,0.06247971,1.003919,17.23064,-38.53661,-22.92622,1005.923
0.143723965,-6.782916,3.510728,9.932053,-0.0562344,0.05319564,0.995679,17.23064,-38.53661,-22.92622,1005.922
0.143723965,-6.782916,3.510728,9.932053,-0.0562344,0.05319564,0.995679,17.23064,-38.53661,-22.92622,1005.922
0.146202087,-7.089083,3.268678,9.870891,-0.06398357,0.04388974,0.9898816,17.23064,-38.53661,-22.92622,1005.922
0.148680210,-7.150316,3.268678,9.809728,-0.06691355,0.0448438,0.9879717,17.23064,-38.53661,-22.92622,1005.922
0.151158333,-6.905383,2.966114,9.626241,-0.06347606,0.0351077,0.9816281,17.21339,-37.43653,-22.94566,1005.922
0.156114101,-6.231814,2.058424,9.503916,-0.06249639,0.02827353,0.9724167,17.21339,-37.43653,-22.94566,1005.922
0.156114101,-6.231814,2.058424,9.503916,-0.06249639,0.02827353,0.9724167,17.21339,-37.43653,-22.94566,1005.922
0.158592224,-5.61948,1.695347,9.565078,-0.06251168,0.02924034,0.9695258,17.21339,-37.43653,-22.94566,1005.922
0.161069870,-5.068378,1.211246,9.565078,-0.06009096,0.029734,0.9671016,17.21339,-37.43653,-22.94566,1005.922
0.163547993,-4.517277,0.9691951,9.442753,-0.06296963,0.02681375,0.9738598,17.21339,-37.43653,-22.94566,1005.922
0.166026115,-4.149877,0.5456061,9.442753,-0.06006422,0.02730875,0.9709505,17.21339,-37.43653,-22.94566,1005.922
0.168503761,-3.904943,0.0615045,9.381591,-0.06349633,0.03167111,0.9700263,17.21339,-37.43653,-22.94566,1005.922
0.170981884,-3.782475,-0.4831098,9.320428,-0.06494828,0.02775761,0.96567,17.21339,-37.43653,-22.94566,1005.922
0.173460007,-3.108907,-1.14875,9.259266,-0.05717735,0.03023485,0.9666055,17.21339,-37.43653,-22.94566,1005.922
0.178415775,-2.129172,-2.237978,9.259266,-0.06355581,0.03700618,0.9613658,17.21339,-37.43653,-22.94566,1005.922
0.178415775,-2.129172,-2.237978,9.259266,-0.06355581,0.03700618,0.9613658,17.21339,-37.43653,-22.94566,1005.922
0.180893898,-1.761771,-2.964131,8.892291,-0.06354379,0.03750366,0.9657123,17.21339,-37.43653,-22.94566,1005.922
0.183372021,-1.333137,-3.811309,8.831128,-0.06010403,0.03265789,0.968082,17.21339,-37.43653,-22.94566,1005.921
0.185849667,-0.965736,-4.416436,8.708804,-0.05969901,0.04042424,0.9570181,17.21339,-37.43653,-22.94566,1005.921
0.190805912,0.07523298,-5.808228,8.647641,-0.05482318,0.03850288,0.9574642,17.21339,-37.43653,-22.94566,1005.921
0.190805912,0.07523298,-5.808228,8.647641,-0.05482318,0.03850288,0.9574642,17.21339,-37.43653,-22.94566,1005.921
0.193283558,0.7488011,-6.231817,8.708804,-0.05043038,0.03804799,0.9612993,17.21339,-37.43653,-22.94566,1005.921
0.195762157,1.116202,-6.594893,8.769966,-0.04847249,0.03757816,0.9641822,17.21339,-37.43653,-22.94566,1005.921
0.198240280,1.422369,-7.018482,8.892291,-0.05141611,0.04096684,0.962285,17.21339,-37.43653,-22.94566,1005.921
0.203196526,1.912237,-7.684122,8.831128,-0.05143354,0.04437648,0.9627854,17.21257,-37.44495,-23.38902,1005.921
0.203196526,1.912237,-7.684122,8.831128,-0.05143354,0.04437648,0.9627854,17.21257,-37.44495,-23.38902,1005.921
0.205674171,1.728537,-7.684122,8.953453,-0.05190456,0.04487378,0.9680999,17.21257,-37.44495,-23.38902,1005.921
0.208152294,1.422369,-7.86566,9.014616,-0.04750245,0.04540328,0.976284,17.21257,-37.44495,-23.38902,1005.921
0.210630417,1.054968,-7.563096,8.953453,-0.04758263,0.05561229,0.9695795,17.21257,-37.44495,-23.38902,1005.921
0.215586186,-0.4146348,-7.260533,8.831128,-0.04806079,0.054149,0.9695746,17.21257,-37.44495,-23.38902,1005.921
0.215586186,-0.4146348,-7.260533,8.831128,-0.04806079,0.054149,0.9695746,17.21257,-37.44495,-23.38902,1005.921
0.218064308,-0.965736,-6.836944,8.769966,-0.04856409,0.05217887,0.9613616,17.21257,-37.44495,-23.38902,1005.921
0.220541954,-1.578071,-6.413355,8.647641,-0.04616413,0.05314655,0.9536307,17.21257,-37.44495,-23.38902,1005.921
0.223020077,-1.823005,-6.050279,8.647641,-0.04711662,0.04924495,0.9531331,17.21257,-37.44495,-23.38902,1005.921
0.227975845,-1.700538,-4.779512,8.892291,-0.04273644,0.04487005,0.9468119,17.21257,-37.44495,-23.38902,1005.922
0.227975845,-1.700538,-4.779512,8.892291,-0.04273644,0.04487005,0.9468119,17.21257,-37.44495,-23.38902,1005.922
0.230453968,-1.578071,-4.355923,9.136941,-0.04425116,0.04628929,0.9328298,17.21257,-37.44495,-23.38902,1005.922
0.232932091,-1.02697,-3.629771,9.381591,-0.04224526,0.04047618,0.9409945,17.21257,-37.44495,-23.38902,1005.922
0.237887859,-0.4146348,-2.237978,9.503916,-0.04663636,0.04533215,0.9449049,17.21257,-37.44495,-23.38902,1005.922
0.237887859,-0.4146348,-2.237978,9.503916,-0.04663636,0.04533215,0.9449049,17.21257,-37.44495,-23.38902,1005.922
0.240365982,-0.2921678,-1.753877,9.870891,-0.05101439,0.04726422,0.9478348,17.21257,-37.44495,-23.38902,1005.922
0.242844105,-0.2921678,-1.14875,9.870891,-0.04616361,0.05070255,0.9497567,17.21257,-37.44495,-23.38902,1005.922
0.245321751,-0.4146348,-0.1200336,9.993216,-0.04809089,0.05070537,0.9550766,17.21257,-37.44495,-23.38902,1005.922
0.250277996,-0.6595686,1.332271,9.993216,-0.05197495,0.05215656,0.9594495,16.1067,-37.82359,-23.37837,1005.922
0.250277996,-0.6595686,1.332271,9.993216,-0.05197495,0.05215656,0.9594495,16.1067,-37.82359,-23.37837,1005.922
0.252755642,-0.9045025,1.997911,10.42135,-0.03679512,0.03813135,0.9665345,16.1067,-37.82359,-23.37837,1005.922
0.255233765,-1.39437,3.08714,11.03298,-0.04458177,0.04346482,0.9738448,16.1067,-37.82359,-23.37837,1005.922
0.260189533,-1.02697,5.628673,10.84949,-0.06510464,0.05893367,0.9711405,16.1067,-37.82359,-23.37837,1005.922
0.260189533,-1.02697,5.628673,10.84949,-0.06510464,0.05893367,0.9711405,16.1067,-37.82359,-23.37837,1005.922
0.262667656,-0.3534013,6.89944,10.48252,-0.06511882,0.06087903,0.9701852,16.1067,-37.82359,-23.37837,1005.922
0.265146256,-0.1084674,7.262516,10.36019,-0.06801054,0.0623493,0.9803448,16.1067,-37.82359,-23.37837,1005.924
0.267624378,-0.04723396,7.262516,10.05438,-0.0694624,0.06430234,0.9856722,16.1067,-37.82359,-23.37837,1005.924
0.272580147,-0.4146348,8.351745,9.993216,-0.06697278,0.06631184,1.005941,16.1067,-37.82359,-23.37837,1005.924
0.272580147,-0.4146348,8.351745,9.993216,-0.06697278,0.06631184,1.005941,16.1067,-37.82359,-23.37837,1005.924
0.275058270,-0.9045025,8.412257,9.932053,-0.07232618,0.07019244,1.0113,16.1067,-37.82359,-23.37837,1005.924
0.277536392,-1.455604,8.714821,9.565078,-0.07377584,0.07263592,1.018078,16.1067,-37.82359,-23.37837,1005.924
0.280014038,-1.700538,8.835846,9.503916,-0.07177538,0.06779666,1.026248,16.1067,-37.82359,-23.37837,1005.924
0.284970284,-1.884238,9.017385,8.708804,-0.07568233,0.07363134,1.031126,16.1067,-37.82359,-23.37837,1005.924
0.284970284,-1.884238,9.017385,8.708804,-0.07568233,0.07363134,1.031126,16.1067,-37.82359,-23.37837,1005.924
0.287448406,-1.945472,8.835846,8.586479,-0.0766452,0.07070007,1.029185,16.1067,-37.82359,-23.37837,1005.924
0.289926052,-1.945472,8.412257,8.402991,-0.07468571,0.06876478,1.03013,16.1067,-37.82359,-23.37837,1005.924
0.294882298,-1.639304,7.56508,8.525316,-0.07322175,0.07170911,1.036412,16.1067,-37.82359,-23.37837,1005.924
0.294882298,-1.639304,7.56508,8.525316,-0.07322175,0.07170911,1.036412,16.1067,-37.82359,-23.37837,1005.924
0.297359943,-1.578071,6.838927,8.586479,-0.07274198,0.07170694,1.034479,16.1067,-37.82359,-23.37837,1005.924
0.299838066,-1.088203,6.173287,8.464154,-0.07761724,0.0755842,1.037421,16.1067,-37.82359,-23.37837,1005.924
0.302316189,-1.02697,5.447135,8.586479,-0.07763793,0.08045813,1.039377,16.1067,-37.82359,-23.37837,1005.924
0.307271957,-0.8432691,3.571241,8.464154,-0.07818598,0.082367,1.024427,16.1067,-37.82359,-23.37837,1005.921
0.307271957,-0.8432691,3.571241,8.464154,-0.07818598,0.082367,1.024427,16.1067,-37.82359,-23.37837,1005.921
0.309750080,-0.7208021,2.4215,8.341829,-0.07523851,0.08093655,1.030678,16.1067,-37.82359,-23.37837,1005.921
0.312227726,-0.4758682,1.634835,8.280666,-0.07083045,0.0780482,1.034983,16.1067,-37.82359,-23.37837,1005.921
0.314705849,-0.5371017,0.6666315,8.402991,-0.07471785,0.07509714,1.031128,16.1067,-37.82359,-23.37837,1005.921
0.374177933,0.3814003,2.482013,7.11858,-0.03971827,0.05668969,0.9956066,16.83628,-37.08223,-23.39411,1005.919
0.374177933,0.3814003,2.482013,7.11858,-0.03971827,0.05668969,0.9956066,16.83628,-37.08223,-23.39411,1005.919
0.376656056,0.7488011,2.4215,6.935092,-0.04018987,0.05523108,0.9975324,16.83628,-37.08223,-23.39411,1005.919
0.379134178,0.9325016,2.4215,6.812768,-0.03971932,0.06011105,1.000934,16.83628,-37.08223,-23.39411,1005.919
0.381611824,0.8100346,2.603038,6.812768,-0.03534064,0.06453477,1.008655,16.83628,-37.08223,-23.39411,1005.919
0.384089947,0.6263342,3.026627,6.506955,-0.03434015,0.06162645,1.012014,16.83628,-37.08223,-23.39411,1005.919
0.386568070,0.5038673,3.389703,6.38463,-0.03723517,0.06162776,1.018787,16.83628,-37.08223,-23.39411,1005.922
0.389045715,0.0139995,3.934317,6.445793,-0.03577406,0.05772585,1.012967,16.83628,-37.08223,-23.39411,1005.922
0.391523838,-0.4758682,4.418419,6.262305,-0.0382046,0.05869181,1.014916,16.83628,-37.08223,-23.39411,1005.922
0.394001961,-0.7820356,4.418419,5.89533,-0.04646998,0.06060609,1.018832,16.83628,-37.08223,-23.39411,1005.922
0.396479607,-1.455604,4.781495,5.773006,-0.04885912,0.05329081,1.01929,16.83628,-37.08223,-23.39411,1005.922
0.398958206,-2.006705,4.842008,5.222544,-0.0459341,0.04939997,1.01491,16.83628,-37.08223,-23.39411,1005.922
0.401435852,-2.374106,4.720983,4.977894,-0.05077563,0.04254614,1.010075,15.72466,-37.09418,-23.38994,1005.922
0.403913498,-2.435339,4.418419,4.672081,-0.05123743,0.0381613,1.010055,15.72466,-37.09418,-23.38994,1005.922
0.406391621,-2.374106,4.236881,4.366269,-0.04876105,0.03282827,1.014358,15.72466,-37.09418,-23.38994,1005.922
0.408870220,-2.067938,3.752779,3.938132,-0.04876494,0.02940339,1.007583,15.72466,-37.09418,-23.38994,1005.922
0.411348343,-1.39437,3.268678,3.571157,-0.04778519,0.02843574,1.008055,15.72466,-37.09418,-23.38994,1005.922
0.413826466,-0.5983351,2.663551,3.204182,-0.04730108,0.02648119,1.004181,15.72466,-37.09418,-23.38994,1005.922
0.416304112,0.1976999,1.937398,2.714883,-0.0482296,0.017708,1.002693,15.72466,-37.09418,-23.38994,1005.922
0.421260357,1.60607,0.4850934,2.164421,-0.04190506,0.02263106,1.011372,15.72466,-37.09418,-23.38994,1005.922
0.421260357,1.60607,0.4850934,2.164421,-0.04190506,0.02263106,1.011372,15.72466,-37.09418,-23.38994,1005.922
0.423738003,2.095937,-0.4225971,2.042096,-0.03802962,0.02948454,1.018143,15.72466,-37.09418,-23.38994,1005.922
0.426216126,2.157171,-1.209262,1.675121,-0.03997385,0.02898638,1.017669,15.72466,-37.09418,-23.38994,1005.92
0.428694248,1.973471,-1.874902,1.430471,-0.03509086,0.03049224,1.025855,15.72466,-37.09418,-23.38994,1005.92
0.431172371,1.728537,-2.237978,1.246984,-0.03416949,0.03583821,1.019603,15.72466,-37.09418,-23.38994,1005.92
0.433650017,1.116202,-2.601054,1.063496,-0.03127057,0.04072841,1.022026,15.72466,-37.09418,-23.38994,1005.92
0.436128140,0.5038673,-2.964131,0.3907094,-0.02108169,0.04125296,1.015698,15.72466,-37.09418,-23.38994,1005.92
0.438606262,-0.1697009,-3.38772,0.1460596,-0.01769269,0.04077076,1.010367,15.72466,-37.09418,-23.38994,1005.92
0.441083908,-0.6595686,-3.629771,-0.1597527,-0.01284032,0.041277,1.00793,15.72466,-37.09418,-23.38994,1005.92
0.446040154,-0.9045025,-3.750796,-1.016027,-0.003587107,0.03106776,0.9947945,15.72466,-37.09418,-23.38994,1005.92
0.446040154,-0.9045025,-3.750796,-1.016027,-0.003587107,0.03106776,0.9947945,15.72466,-37.09418,-23.38994,1005.92
0.448517799,-0.8432691,-3.448232,-1.260677,0.0007598128,0.03204669,0.9875355,15.72466,-37.09418,-23.38994,1005.92
0.450995922,-0.5371017,-3.327207,-1.444164,0.006088167,0.03499241,0.9860736,15.35822,-37.4817,-24.26878,1005.92
0.455951691,0.4426338,-2.782593,-1.749977,0.007068356,0.02718087,0.9754092,15.35822,-37.4817,-24.26878,1005.92
0.455951691,0.4426338,-2.782593,-1.749977,0.007068356,0.02718087,0.9754092,15.35822,-37.4817,-24.26878,1005.92
0.458429813,0.8712681,-2.480029,-1.627652,0.01185967,0.03742091,0.9710913,15.35822,-37.4817,-24.26878,1005.92
0.463386059,1.544836,-2.480029,-1.994627,0.02206822,0.03795952,0.9705556,15.35822,-37.4817,-24.26878,1005.92
0.463386059,1.544836,-2.480029,-1.994627,0.02206822,0.03795952,0.9705556,15.35822,-37.4817,-24.26878,1005.92
0.468341828,2.524572,-1.572338,-2.300439,0.02247984,0.04866383,0.9662641,15.35822,-37.4817,-24.26878,1005.917
0.468341828,2.524572,-1.572338,-2.300439,0.02247984,0.04866383,0.9662641,15.35822,-37.4817,-24.26878,1005.917
0.470819950,2.830739,-1.269775,-2.483926,0.02053942,0.04719064,0.9653018,15.35822,-37.4817,-24.26878,1005.917
0.473297596,3.259373,-1.027724,-2.545089,0.02590327,0.04820624,0.9710699,15.35822,-37.4817,-24.26878,1005.917
0.475775719,3.504307,-0.6646479,-2.606251,0.02733824,0.05015211,0.9672106,15.35822,-37.4817,-24.26878,1005.917
0.480731487,4.60651,-0.6041352,-2.422764,0.04003504,0.03558872,0.9583781,15.35822,-37.4817,-24.26878,1005.917
0.480731487,4.60651,-0.6041352,-2.422764,0.04003504,0.03558872,0.9583781,15.35822,-37.4817,-24.26878,1005.917
0.483210087,5.157611,-0.1200336,-2.055789,0.04833317,0.03076461,0.9592732,15.35822,-37.4817,-24.26878,1005.917
0.485688210,5.769945,-0.1200336,-1.199515,0.05911532,0.02012404,0.965917,15.35822,-37.4817,-24.26878,1005.917
0.488166332,6.443513,0.364068,0.02373465,0.05131837,0.03082775,0.979047,15.35822,-37.4817,-24.26878,1005.917
0.493122101,8.341751,2.4215,0.1460596,0.02298714,0.06139199,0.9933567,15.35822,-37.4817,-24.26878,1005.917
0.493122101,8.341751,2.4215,0.1460596,0.02298714,0.06139199,0.9933567,15.35822,-37.4817,-24.26878,1005.917
0.495600224,8.831619,3.08714,0.08489711,0.01620589,0.06382068,1.005473,15.35822,-37.4817,-24.26878,1005.917
0.498078346,8.831619,3.510728,-0.4044026,0.01277597,0.06867348,1.006,15.35822,-37.4817,-24.26878,1005.917
0.500555992,8.035583,3.510728,-0.7102148,0.01569998,0.06967063,1.009368,15.34755,-36.73989,-23.83839,1005.917
0.505512238,5.218844,3.752779,-0.7102148,0.01276786,0.07453415,1.01327,15.34755,-36.73989,-23.83839,1005.917
0.505512238,5.218844,3.752779,-0.7102148,0.01276786,0.07453415,1.01327,15.34755,-36.73989,-23.83839,1005.917
0.507989884,3.688008,3.692266,-0.3432401,0.008954732,0.0677252,1.02484,15.34755,-36.73989,-23.83839,1005.918
0.510468006,2.585805,3.692266,0.02373465,0.01187107,0.06773913,1.024342,15.34755,-36.73989,-23.83839,1005.918
0.515423775,1.299902,3.631754,0.02373465,0.006101093,0.05797863,1.027702,15.34755,-36.73989,-23.83839,1005.918
0.515423775,1.299902,3.631754,0.02373465,0.006101093,0.05797863,1.027702,15.34755,-36.73989,-23.83839,1005.918
0.517901898,0.8712681,3.571241,0.3295469,0.00227205,0.04724733,1.02815,15.34755,-36.73989,-23.83839,1005.918
0.520380020,0.5038673,3.389703,0.7576842,0.005719956,0.03947416,1.028092,15.34755,-36.73989,-23.83839,1005.918
0.522858143,0.2589334,3.147652,1.063496,-0.001103897,0.043339,1.030079,15.34755,-36.73989,-23.83839,1005.918
0.527813912,0.6263342,3.450216,0.8800091,-0.01480456,0.05494183,1.024905,15.34755,-36.73989,-23.83839,1005.918
0.527813912,0.6263342,3.450216,0.8800091,-0.01480456,0.05494183,1.024905,15.34755,-36.73989,-23.83839,1005.918
0.530292034,0.8100346,3.208165,0.4518718,-0.01967224,0.05393578,1.02203,15.34755,-36.73989,-23.83839,1005.918
0.532769680,0.993735,2.845089,-0.03742781,-0.01921538,0.05685047,1.018181,15.34755,-36.73989,-23.83839,1005.918
0.535247803,0.8100346,2.239962,-0.3432401,-0.02115857,0.05293094,1.012379,15.34755,-36.73989,-23.83839,1005.918
0.540203571,0.4426338,0.7876569,-0.4044026,-0.0250416,0.04949414,1.009004,15.34755,-36.73989,-23.83839,1005.918
0.540203571,0.4426338,0.7876569,-0.4044026,-0.0250416,0.04949414,1.009004,15.34755,-36.73989,-23.83839,1005.918
0.542681694,0.6875677,0.2430426,-0.5878899,-0.01919205,0.04562308,1.006539,15.34755,-36.73989,-23.83839,1005.918
0.545159817,0.993735,-0.5436226,-0.5267274,-0.01820579,0.04172686,1.0041,15.34755,-36.73989,-23.83839,1005.918
0.547637463,1.667303,-1.088237,-0.5267274,-0.02014455,0.04172148,1.006042,15.34755,-36.73989,-23.83839,1005.918
0.552594185,3.075673,-2.177466,-0.465565,-0.0153052,0.04808487,1.009426,16.0952,-37.0902,-23.39133,1005.918
0.552594185,3.075673,-2.177466,-0.465565,-0.0153052,0.04808487,1.009426,16.0952,-37.0902,-23.39133,1005.918
0.564984322,3.994175,-3.508745,-0.2820776,-0.01006846,0.06416466,1.002723,16.0952,-37.0902,-23.39133,1005.918
0.564984322,3.994175,-3.508745,-0.2820776,-0.01006846,0.06416466,1.002723,16.0952,-37.0902,-23.39133,1005.918
0.569940090,3.810475,-3.750796,-0.03742781,-0.01058149,0.06952066,1.003719,16.0952,-37.0902,-23.39133,1005.918
0.569940090,3.810475,-3.750796,-0.03742781,-0.01058149,0.06952066,1.003719,16.0952,-37.0902,-23.39133,1005.918
0.572418213,3.259373,-3.871821,0.1460596,-0.009106148,0.06660666,1.003695,16.0952,-37.0902,-23.39133,1005.918
0.574896336,3.01444,-3.871821,0.1460596,-0.006194199,0.06563971,1.000296,16.0952,-37.0902,-23.39133,1005.918
0.577373982,2.647039,-3.992847,0.5130343,-0.0007982492,0.05738968,1.000224,16.0952,-37.0902,-23.39133,1005.918
0.582330227,1.483603,-3.38772,1.736283,-0.01103842,0.06220607,1.000305,16.0952,-37.0902,-23.39133,1005.918
0.582330227,1.483603,-3.38772,1.736283,-0.01103842,0.06220607,1.000305,16.0952,-37.0902,-23.39133,1005.918
0.584807873,1.361136,-2.661567,1.675121,-0.02275339,0.06895909,0.9989555,16.0952,-37.0902,-23.39133,1005.918
0.587285996,1.299902,-2.05644,1.369309,-0.02033592,0.07091704,0.997987,16.0952,-37.0902,-23.39133,1005.918
0.589764118,0.9325016,-1.753877,1.002334,-0.02182438,0.07382166,0.9941486,16.0952,-37.0902,-23.39133,1005.921
0.594719887,-0.04723396,-1.814389,0.5741968,-0.03007463,0.06450269,0.9840097,16.0952,-37.0902,-23.39133,1005.921
0.594719887,-0.04723396,-1.814389,0.5741968,-0.03007463,0.06450269,0.9840097,16.0952,-37.0902,-23.39133,1005.921
0.599675656,-1.271903,-1.330288,0.08489711,-0.03197792,0.06110056,0.9907601,16.0952,-37.0902,-23.39133,1005.921
0.599675656,-1.271903,-1.330288,0.08489711,-0.03197792,0.06110056,0.9907601,16.0952,-37.0902,-23.39133,1005.921
0.604631901,-2.741507,-0.6041352,-0.6490523,-0.03639477,0.06202715,0.9806527,16.45916,-36.72794,-23.84255,1005.921
0.607110024,-3.292608,0.0009917939,-0.9548646,-0.01597007,0.05968769,0.9761848,16.45916,-36.72794,-23.84255,1005.921
0.609587670,-3.598775,0.4850934,-0.4044026,-0.02132999,0.06503024,0.9820337,16.45916,-36.72794,-23.84255,1005.921
0.612065792,-3.843709,1.332271,-0.2209152,-0.03055826,0.06254662,0.9815889,16.45916,-36.72794,-23.84255,1005.921
0.614543915,-3.782475,2.542525,-0.7713773,-0.03928614,0.05078701,0.969992,16.45916,-36.72794,-23.84255,1005.921
0.617022514,-2.925207,3.631754,-1.016027,-0.03929018,0.0370957,0.9462703,16.45916,-36.72794,-23.84255,1005.921
0.619500160,-1.271903,3.752779,-0.8325397,-0.03003904,0.03372919,0.9437891,16.45916,-36.72794,-23.84255,1005.921
0.621978283,0.4426338,3.510728,-0.3432401,-0.03102091,0.03860629,0.949129,16.45916,-36.72794,-23.84255,1005.921
0.624456406,1.728537,3.571241,0.02373465,-0.03489728,0.04250733,0.9597891,16.45916,-36.72794,-23.84255,1005.921
0.626934052,2.157171,3.934317,-0.2209152,-0.03734302,0.05030663,0.9685308,16.45916,-36.72794,-23.84255,1005.921
0.629412174,2.463338,4.176368,-0.2209152,-0.03880801,0.05078366,0.9675759,16.45916,-36.72794,-23.84255,1005.917
0.631890297,3.01444,4.176368,-0.3432401,-0.04709036,0.05073033,0.9632769,16.45916,-36.72794,-23.84255,1005.917
0.634368420,3.443074,3.873805,-0.3432401,-0.04660676,0.05121977,0.9632767,16.45916,-36.72794,-23.84255,1005.917
0.636846066,3.932941,3.450216,-0.2209152,-0.04855476,0.05462989,0.9681317,16.45916,-36.72794,-23.84255,1005.917
0.639324188,4.055408,3.268678,0.1460596,-0.0437007,0.05807056,0.9710189,16.45916,-36.72794,-23.84255,1005.917
0.641802311,4.055408,2.966114,0.3295469,-0.0432307,0.06246126,0.9734523,16.45916,-36.72794,-23.84255,1005.917
0.644279957,4.055408,2.542525,0.5741968,-0.04225748,0.06295557,0.9744148,16.45916,-36.72794,-23.84255,1005.917
0.646758080,4.055408,1.937398,0.5130343,-0.03690777,0.06884978,0.9840694,16.45916,-36.72794,-23.84255,1005.917
0.649236202,3.810475,1.453297,0.8188466,-0.03739521,0.06786872,0.9821362,16.45916,-36.72794,-23.84255,1005.917
0.651713848,3.38184,1.029708,0.6965217,-0.03789133,0.07079244,0.9840848,16.84203,-37.44893,-23.38763,1005.917
0.654191971,2.891973,0.7271442,0.8188466,-0.03640886,0.06983904,0.9893811,16.84203,-37.44893,-23.38763,1005.917
0.656670094,2.340871,0.2430426,0.8800091,-0.03783131,0.06448,0.9912921,16.84203,-37.44893,-23.38763,1005.917
0.659147740,1.851004,-0.1200336,0.8800091,-0.03488334,0.06060556,0.9936695,16.84203,-37.44893,-23.38763,1005.917
0.661625862,1.299902,-0.5436226,1.124659,-0.03488992,0.05913424,0.9893178,16.84203,-37.44893,-23.38763,1005.917
0.664103985,0.8712681,-0.846186,1.308146,-0.03831173,0.05812637,0.9825739,16.84203,-37.44893,-23.38763,1005.917
0.666582108,0.5038673,-1.209262,1.185821,-0.03735547,0.05811968,0.9777419,16.84203,-37.44893,-23.38763,1005.917
0.669059754,0.0139995,-1.572338,1.124659,-0.03493858,0.05812172,0.9733846,16.84203,-37.44893,-23.38763,1005.918
0.671537876,-0.4146348,-1.753877,1.063496,-0.0363605,0.05178533,0.9738425,16.84203,-37.44893,-23.38763,1005.918
0.674015999,-0.5371017,-1.693364,0.9411715,-0.03487976,0.04496421,0.9689725,16.84203,-37.44893,-23.38763,1005.918
0.676493645,-0.6595686,-1.753877,0.8800091,-0.03486562,0.0400856,0.965086,16.84203,-37.44893,-23.38763,1005.918
0.678971768,-0.4758682,-1.874902,0.7576842,-0.03532463,0.03961373,0.9723262,16.84203,-37.44893,-23.38763,1005.918
0.681449890,-0.1084674,-1.632851,0.6353592,-0.03532472,0.0337472,0.9626426,16.84203,-37.44893,-23.38763,1005.918
0.683928490,0.2589334,-1.14875,0.5130343,-0.04016568,0.02884928,0.9611958,16.84203,-37.44893,-23.38763,1005.918
0.686406613,0.6263342,-0.9066988,0.3907094,-0.03818215,0.0264423,0.9684129,16.84203,-37.44893,-23.38763,1005.918
0.688884258,1.054968,-0.5436226,0.08489711,-0.03723078,0.02789873,0.9645537,16.84203,-37.44893,-23.38763,1005.918
0.691362381,1.667303,-0.05952091,-0.09859026,-0.03967993,0.02689589,0.9578044,16.84203,-37.44893,-23.38763,1005.918
0.693840504,2.034704,0.4245807,-0.2209152,-0.04306403,0.02591497,0.962162,16.84203,-37.44893,-23.38763,1005.918
0.696318150,2.585805,1.029708,-0.4044026,-0.0469088,0.02299438,0.9708563,16.84203,-37.44893,-23.38763,1005.918
0.698796272,2.769506,1.574322,-0.5267274,-0.04545256,0.02202222,0.9684299,16.84203,-37.44893,-23.38763,1005.918
0.701274395,3.259373,1.937398,-0.7713773,-0.04449191,0.02299642,0.9664989,16.84203,-37.44893,-23.38763,1005.918
0.703752041,3.810475,2.603038,-0.7102148,-0.04447339,0.01909868,0.9655134,16.45834,-36.73636,-24.28591,1005.918
0.706230164,4.239109,3.268678,-0.465565,-0.04253347,0.02301586,0.9703497,16.45834,-36.73636,-24.28591,1005.918
0.708708286,4.912677,4.055343,-0.5267274,-0.04301434,0.02350613,0.9727683,16.45834,-36.73636,-24.28591,1005.918
0.711185932,5.402544,4.842008,-0.5267274,-0.04346186,0.02304247,0.9833873,16.45834,-36.73636,-24.28591,1005.92
0.716142178,6.749681,6.596876,-0.1597527,-0.03379357,0.03527295,0.9862933,16.45834,-36.73636,-24.28591,1005.92
0.716142178,6.749681,6.596876,-0.1597527,-0.03379357,0.03527295,0.9862933,16.45834,-36.73636,-24.28591,1005.92
0.718620300,6.994615,7.56508,0.207222,-0.03667492,0.03577289,0.9978959,16.45834,-36.73636,-24.28591,1005.92
0.721097946,7.484482,8.593796,0.6353592,-0.03472187,0.04116608,1.009014,16.45834,-36.73636,-24.28591,1005.92
0.726054192,6.994615,9.985588,1.246984,-0.0439685,0.05284663,1.026502,16.45834,-36.73636,-24.28591,1005.92
0.726054192,6.994615,9.985588,1.246984,-0.0439685,0.05284663,1.026502,16.45834,-36.73636,-24.28591,1005.92
0.728531838,6.56598,10.71174,1.246984,-0.04786724,0.05868717,1.033793,16.45834,-36.73636,-24.28591,1005.92
0.731009960,5.769945,10.95379,1.185821,-0.04688412,0.0635884,1.044914,16.45834,-36.73636,-24.28591,1005.92
0.733488083,4.79021,11.13533,1.246984,-0.0482994,0.06312322,1.056987,16.45834,-36.73636,-24.28591,1005.92
0.738443852,2.891973,11.0143,1.124659,-0.05073428,0.06604156,1.060876,16.45834,-36.73636,-24.28591,1005.92
0.738443852,2.891973,11.0143,1.124659,-0.05073428,0.06604156,1.060876,16.45834,-36.73636,-24.28591,1005.92
0.740921974,2.034704,10.83277,0.8800091,-0.05214471,0.06117999,1.067134,16.45834,-36.73636,-24.28591,1005.92
0.743399620,1.483603,10.22764,0.6353592,-0.05261468,0.05825593,1.067122,16.45834,-36.73636,-24.28591,1005.92
0.745877743,0.6875677,9.622512,0.7576842,-0.05111971,0.05242273,1.068049,16.45834,-36.73636,-24.28591,1005.92
0.755790234,-0.4758682,5.810211,-0.7713773,-0.05208914,0.04948677,1.064178,15.71809,-36.7359,-23.83978,1005.918
0.758268356,-0.5983351,4.781495,-1.07719,-0.05157442,0.04706521,1.068506,15.71809,-36.7359,-23.83978,1005.918
0.760746479,-0.5371017,3.510728,-1.566489,-0.04526311,0.04464573,1.061219,15.71809,-36.7359,-23.83978,1005.918
0.763224125,-0.5371017,2.360987,-1.627652,-0.0428571,0.0480621,1.059293,15.71809,-36.7359,-23.83978,1005.918
0.768180371,-0.5371017,-0.241059,-2.422764,-0.03754302,0.04708664,1.047192,15.71809,-36.7359,-23.83978,1005.918
0.768180371,-0.5371017,-0.241059,-2.422764,-0.03754302,0.04708664,1.047192,15.71809,-36.7359,-23.83978,1005.918
0.770658016,-0.7208021,-1.3908,-2.545089,-0.03613421,0.05341367,1.042873,15.71809,-36.7359,-23.83978,1005.918
0.773136139,-0.5371017,-2.72208,-2.789738,-0.03028031,0.04759023,1.038467,15.71809,-36.7359,-23.83978,1005.918
0.775614262,-0.5983351,-3.750796,-2.973226,-0.0332114,0.04756575,1.034621,15.71809,-36.7359,-23.83978,1005.918
0.780570030,-0.4758682,-5.263614,-3.340201,-0.02355199,0.05050132,1.01962,15.71809,-36.7359,-23.83978,1005.918
0.780570030,-0.4758682,-5.263614,-3.340201,-0.02355199,0.05050132,1.01962,15.71809,-36.7359,-23.83978,1005.918
0.783048153,-0.4146348,-6.110791,-3.095551,-0.02161379,0.05001743,1.016711,15.71809,-36.7359,-23.83978,1005.918
0.785526276,-0.1084674,-6.836944,-3.156713,-0.01681324,0.05684196,1.00948,15.71809,-36.7359,-23.83978,1005.918
0.788003922,0.07523298,-7.139507,-3.034388,-0.01487453,0.05391408,1.002697,15.71809,-36.7359,-23.83978,1005.918
0.792960167,0.8100346,-8.289248,-2.728576,-0.01590238,0.05435847,0.9872587,15.71809,-36.7359,-23.83978,1005.919
0.792960167,0.8100346,-8.289248,-2.728576,-0.01590238,0.05435847,0.9872587,15.71809,-36.7359,-23.83978,1005.919
0.795437813,1.054968,-8.652325,-2.973226,-0.01299098,0.05290225,0.9828911,15.71809,-36.7359,-23.83978,1005.919
0.797915936,1.422369,-8.954888,-2.973226,-0.007631037,0.04902634,0.9794632,15.71809,-36.7359,-23.83978,1005.919
0.802871704,2.218405,-9.378477,-2.973226,-0.01199544,0.0485238,0.9823806,16.0878,-36.74034,-24.28452,1005.919
0.802871704,2.218405,-9.378477,-2.973226,-0.01199544,0.0485238,0.9823806,16.0878,-36.74034,-24.28452,1005.919
0.805349827,2.708272,-9.499503,-2.973226,-0.009106953,0.04998444,0.9760974,16.0878,-36.74034,-24.28452,1005.919
0.807827950,3.38184,-9.620528,-2.850901,-0.009595521,0.04655822,0.9698077,16.0878,-36.74034,-24.28452,1005.919
0.810306072,3.810475,-9.43899,-3.034388,-0.009568202,0.04608887,0.9770453,16.0878,-36.74034,-24.28452,1005.919
0.815261841,4.422809,-9.257452,-2.973226,-0.005187358,0.04953639,0.9837966,16.0878,-36.74034,-24.28452,1005.919
0.815261841,4.422809,-9.257452,-2.973226,-0.005187358,0.04953639,0.9837966,16.0878,-36.74034,-24.28452,1005.919
0.817740441,4.545276,-8.894376,-2.973226,-0.00713591,0.05245725,0.9876836,16.0878,-36.74034,-24.28452,1005.919
0.820218563,4.300342,-8.410274,-2.973226,-0.004682395,0.05297433,0.994913,16.0878,-36.74034,-24.28452,1005.919
0.822696209,3.932941,-8.107711,-2.973226,0.001136654,0.05543681,0.9939285,16.0878,-36.74034,-24.28452,1005.919
0.827652455,2.708272,-7.078995,-2.973226,-0.0003342519,0.06226496,1.001694,16.0878,-36.74034,-24.28452,1005.919
0.827652455,2.708272,-7.078995,-2.973226,-0.0003342519,0.06226496,1.001694,16.0878,-36.74034,-24.28452,1005.919
0.830130577,2.095937,-6.473867,-3.156713,-0.01200075,0.05829744,0.9969111,16.0878,-36.74034,-24.28452,1005.919
0.832608223,1.483603,-5.868741,-3.156713,-0.00574498,0.06903781,0.9950013,16.0878,-36.74034,-24.28452,1005.921
0.837564469,0.6263342,-5.263614,-2.973226,-0.01017432,0.0748442,0.9892632,16.0878,-36.74034,-24.28452,1005.921
0.837564469,0.6263342,-5.263614,-2.973226,-0.01017432,0.0748442,0.9892632,16.0878,-36.74034,-24.28452,1005.921
0.840042114,0.07523298,-4.96105,-2.728576,-0.007725239,0.07144713,0.9887497,16.0878,-36.74034,-24.28452,1005.921
0.842520237,-0.2921678,-5.021563,-2.789738,-0.003810631,0.06659568,0.987738,16.0878,-36.74034,-24.28452,1005.921
0.844998360,-0.3534013,-5.203101,-2.545089,-0.009160232,0.06803462,0.9901881,16.0878,-36.74034,-24.28452,1005.921
0.849954128,-0.3534013,-4.900537,-2.483926,-0.00870286,0.06850532,0.9824651,16.0878,-36.74034,-24.28452,1005.921
0.849954128,-0.3534013,-4.900537,-2.483926,-0.00870286,0.06850532,0.9824651,16.0878,-36.74034,-24.28452,1005.921
0.854909897,0.5038673,-4.840024,-2.606251,-0.01450607,0.06556529,0.9873086,16.08945,-36.7235,-23.39781,1005.921
0.854909897,0.5038673,-4.840024,-2.606251,-0.01450607,0.06556529,0.9873086,16.08945,-36.7235,-23.39781,1005.921
0.859866142,1.054968,-4.537461,-2.545089,-0.01548471,0.06751147,0.9887719,16.08945,-36.7235,-23.39781,1005.921
0.859866142,1.054968,-4.537461,-2.545089,-0.01548471,0.06751147,0.9887719,16.08945,-36.7235,-23.39781,1005.921
0.862344265,1.177435,-4.416436,-2.667413,-0.01502295,0.06896304,0.9839502,16.08945,-36.7235,-23.39781,1005.921
0.867300034,1.60607,-4.174385,-2.667413,-0.01646607,0.06994457,0.9902379,16.08945,-36.7235,-23.39781,1005.921
0.867300034,1.60607,-4.174385,-2.667413,-0.01646607,0.06994457,0.9902379,16.08945,-36.7235,-23.39781,1005.921
0.872255802,1.667303,-4.29541,-2.667413,-0.02137467,0.07330912,0.9825592,16.08945,-36.7235,-23.39781,1005.918
0.872255802,1.667303,-4.29541,-2.667413,-0.02137467,0.07330912,0.9825592,16.08945,-36.7235,-23.39781,1005.918
0.874733925,1.728537,-4.355923,-2.789738,-0.02382207,0.07964062,0.9883973,16.08945,-36.7235,-23.39781,1005.918
0.877212048,1.728537,-4.234898,-2.606251,-0.01699325,0.07871256,0.9926992,16.08945,-36.7235,-23.39781,1005.918
0.882168293,1.973471,-4.113872,-2.361601,-0.02477011,0.0811198,0.9980636,16.08945,-36.7235,-23.39781,1005.918
0.884646416,1.912237,-3.932334,-2.116951,-0.0218647,0.08161479,0.9951541,16.08945,-36.7235,-23.39781,1005.918
0.887124539,1.912237,-3.992847,-1.811139,-0.02086907,0.08310286,1.004327,16.08945,-36.7235,-23.39781,1005.918
0.889602661,1.483603,-3.871821,-1.383002,-0.02380935,0.08942715,1.008237,16.08945,-36.7235,-23.39781,1005.918
0.892080307,1.116202,-4.05336,-1.260677,-0.02578303,0.09330779,1.006337,16.08945,-36.7235,-23.39781,1005.918
0.894558430,0.3201669,-4.174385,-0.9548646,-0.02874024,0.1005977,1.006874,16.08945,-36.7235,-23.39781,1005.918
0.897036553,-0.1084674,-3.992847,-1.07719,-0.0311217,0.09426568,1.011198,16.08945,-36.7235,-23.39781,1005.918
0.899514199,-0.9045025,-4.174385,-1.138352,-0.0286917,0.09427709,1.010702,16.08945,-36.7235,-23.39781,1005.918
0.901992321,-1.761771,-4.355923,-1.07719,-0.03110644,0.09183223,1.011668,16.08945,-36.7235,-23.39781,1005.918
0.904470444,-2.312872,-4.174385,-1.138352,-0.03159279,0.09036308,1.00925,16.45916,-36.72794,-23.84255,1005.918
0.906948090,-2.925207,-3.750796,-1.199515,-0.02915516,0.08842444,1.007779,16.45916,-36.72794,-23.84255,1005.918
0.909426213,-3.353841,-3.690283,-1.321839,-0.02864978,0.08355186,1.005337,16.45916,-36.72794,-23.84255,1005.918
0.911904335,-3.660008,-3.629771,-1.016027,-0.02428536,0.08552104,1.004841,16.45916,-36.72794,-23.84255,1005.916
0.914381981,-3.537542,-3.085156,-1.016027,-0.02575642,0.08208275,0.9956606,16.45916,-36.72794,-23.84255,1005.916
0.916860104,-3.415075,-2.903618,-1.016027,-0.02620841,0.07623832,0.9961157,16.45916,-36.72794,-23.84255,1005.916
0.919338227,-3.292608,-2.964131,-1.016027,-0.02865426,0.07670446,0.9927527,16.45916,-36.72794,-23.84255,1005.916
0.921816349,-2.680273,-2.903618,-0.8937021,-0.03404164,0.07371656,0.9768385,16.45916,-36.72794,-23.84255,1005.916
0.924293995,-2.251639,-2.72208,-0.9548646,-0.03162415,0.07714111,0.9782909,16.45916,-36.72794,-23.84255,1005.916
0.926772118,-1.700538,-2.540542,-1.07719,-0.03015313,0.07764614,0.9826295,16.45916,-36.72794,-23.84255,1005.916
0.929250241,-1.02697,-2.601054,-1.138352,-0.02674501,0.07668874,0.9821233,16.45916,-36.72794,-23.84255,1005.916
0.931727886,-0.4146348,-2.540542,-1.383002,-0.03158866,0.075211,0.9855209,16.45916,-36.72794,-23.84255,1005.916
0.934206009,0.0139995,-2.237978,-1.444164,-0.03743121,0.07224285,0.9787802,16.45916,-36.72794,-23.84255,1005.916
0.946595669,1.728537,-1.451313,-1.444164,-0.02918105,0.07569528,0.9792355,16.45916,-36.72794,-23.84255,1005.916
0.949074745,1.78977,-1.269775,-1.627652,-0.02968324,0.07470368,0.9729583,16.45916,-36.72794,-23.84255,1005.916
0.951552391,1.78977,-0.9066988,-1.688814,-0.03015588,0.07666644,0.9802111,16.45916,-36.72794,-23.84255,1005.916
0.954030514,1.912237,-0.6041352,-1.749977,-0.02962041,0.07377084,0.9898469,16.10012,-37.46531,-23.82821,1005.917
0.956508637,1.912237,-0.4225971,-1.811139,-0.02234239,0.07477424,0.9864335,16.10012,-37.46531,-23.82821,1005.917
0.958986283,1.912237,-0.3620844,-1.933464,-0.02575654,0.0747496,0.983556,16.10012,-37.46531,-23.82821,1005.917
0.961464405,2.095937,-0.241059,-2.055789,-0.03010838,0.07376716,0.9893668,16.10012,-37.46531,-23.82821,1005.917
0.963942528,1.973471,-0.3015717,-1.872301,-0.02330413,0.07428814,0.9888495,16.10012,-37.46531,-23.82821,1005.917
0.966420174,2.157171,-0.4225971,-2.055789,-0.02476584,0.07476752,0.98886,16.10012,-37.46531,-23.82821,1005.917
0.968898297,2.340871,-0.4225971,-1.872301,-0.02379859,0.07867967,0.9937016,16.10012,-37.46531,-23.82821,1005.917
0.971376419,2.463338,-0.5436226,-1.933464,-0.01940904,0.07968905,0.9989923,16.10012,-37.46531,-23.82821,1005.917
0.973854542,2.340871,-0.4831098,-1.566489,-0.01990842,0.08407705,1.002396,16.10012,-37.46531,-23.82821,1005.917
0.976332188,2.157171,-0.6041352,-1.321839,-0.010697,0.09192622,1.00673,16.10012,-37.46531,-23.82821,1005.917
0.978810310,1.912237,-0.846186,-1.383002,-0.01411168,0.09287894,1.005306,16.10012,-37.46531,-23.82821,1005.917
0.981288433,1.60607,-0.9066988,-1.383002,-0.01264825,0.09680063,1.013041,16.10012,-37.46531,-23.82821,1005.917
0.983766079,1.116202,-0.7251607,-1.383002,-0.01020899,0.09486318,1.012052,16.10012,-37.46531,-23.82821,1005.917
0.986244202,0.5651007,-0.9672114,-1.138352,-0.01165975,0.0963281,1.016894,16.10012,-37.46531,-23.82821,1005.917
0.988722324,0.1364664,-1.027724,-1.138352,-0.01115869,0.09487455,1.018815,16.10012,-37.46531,-23.82821,1005.917
0.991199970,-0.2309344,-1.209262,-1.016027,-0.005818861,0.09782847,1.020732,16.10012,-37.46531,-23.82821,1005.917
0.993678093,-0.7208021,-1.269775,-0.7713773,-0.008743948,0.0973194,1.017849,16.10012,-37.46531,-23.82821,1005.919
0.996156216,-1.39437,-1.451313,-0.5878899,-0.01021823,0.09827867,1.014966,16.10012,-37.46531,-23.82821,1005.919
0.998633862,-1.761771,-1.632851,-0.5878899,-0.007742978,0.09050047,1.014912,16.10012,-37.46531,-23.82821,1005.919
1.001111984,-2.067938,-1.814389,-0.6490523,-0.001448568,0.09051327,1.006672,16.10012,-37.46531,-23.82821,1005.919
1.003590107,-2.435339,-2.177466,-0.4044026,-0.001428916,0.0890607,1.010044,16.45188,-36.37688,-24.6724,1005.919
1.006068230,-2.61904,-2.419516,-0.1597527,0.0009999378,0.0851603,1.00277,16.45188,-36.37688,-24.6724,1005.919
1.008545876,-2.680273,-2.480029,-0.1597527,0.0005506964,0.08029557,1.005644,16.45188,-36.37688,-24.6724,1005.919
1.011023998,-2.98644,-2.661567,-0.1597527,-0.002378272,0.07636165,0.9959859,16.45188,-36.37688,-24.6724,1005.919
1.013502598,-2.80274,-3.024643,0.3295469,0.002016706,0.07493056,0.9988506,16.45188,-36.37688,-24.6724,1005.919
1.015980721,-2.61904,-3.266694,0.207222,0.005904639,0.07690424,1.001253,16.45188,-36.37688,-24.6724,1005.919
1.018458366,-2.496573,-3.206182,0.3295469,0.002471906,0.07637744,0.992098,16.45188,-36.37688,-24.6724,1005.919
1.020936489,-2.61904,-3.38772,0.4518718,0.006872219,0.06663933,0.9828529,16.45188,-36.37688,-24.6724,1005.919
1.025892258,-2.129172,-3.750796,0.4518718,0.01174923,0.07009641,0.9924976,16.45188,-36.37688,-24.6724,1005.919
1.025892258,-2.129172,-3.750796,0.4518718,0.01174923,0.07009641,0.9924976,16.45188,-36.37688,-24.6724,1005.919
1.028370380,-2.190405,-3.690283,0.6353592,0.00736781,0.06469297,0.9823576,16.45188,-36.37688,-24.6724,1005.919
1.033326626,-1.945472,-3.508745,0.5741968,0.01270208,0.06128758,0.9721746,16.45188,-36.37688,-24.6724,1005.914
1.033326626,-1.945472,-3.508745,0.5741968,0.01270208,0.06128758,0.9721746,16.45188,-36.37688,-24.6724,1005.914
1.043238163,-1.088203,-2.782593,0.8188466,0.01271984,0.04370088,0.948433,16.45188,-36.37688,-24.6724,1005.914
1.043238163,-1.088203,-2.782593,0.8188466,0.01271984,0.04370088,0.948433,16.45188,-36.37688,-24.6724,1005.914
1.045716286,-0.5983351,-2.72208,0.8188466,0.01862671,0.03547095,0.9555987,16.45188,-36.37688,-24.6724,1005.914
1.048194408,0.1976999,-2.237978,0.6965217,0.01909939,0.03644145,0.9531876,16.45188,-36.37688,-24.6724,1005.914
1.050672054,0.8712681,-1.995928,1.063496,0.01761863,0.04179593,0.9556367,16.45188,-36.37688,-24.6724,1005.914
1.055628300,2.034704,-0.7856733,1.552796,0.02442566,0.04622989,0.9623796,16.47641,-37.82803,-23.82311,1005.914
1.055628300,2.034704,-0.7856733,1.552796,0.02442566,0.04622989,0.9623796,16.47641,-37.82803,-23.82311,1005.914
1.058105946,2.340871,-0.05952091,1.613959,0.02683935,0.05062949,0.9643197,16.47641,-37.82803,-23.82311,1005.914
1.060584068,2.708272,0.7876569,1.797446,0.02877489,0.05503242,0.9686758,16.47641,-37.82803,-23.82311,1005.914
1.065540314,1.912237,2.784576,2.225583,0.02495375,0.05995066,0.9972,16.47641,-37.82803,-23.82311,1005.914
1.065540314,1.912237,2.784576,2.225583,0.02495375,0.05995066,0.9972,16.47641,-37.82803,-23.82311,1005.914
1.068017960,1.177435,3.873805,2.470233,0.02490416,0.06969267,0.9986984,16.47641,-37.82803,-23.82311,1005.914
1.070496082,0.0139995,4.781495,2.470233,0.02399372,0.06386563,1.007362,16.47641,-37.82803,-23.82311,1005.914
1.072974205,-0.8432691,5.507648,2.592558,0.02303577,0.06093788,1.006869,16.47641,-37.82803,-23.82311,1005.914
1.077930450,-3.170141,6.354825,2.837208,0.00895792,0.061861,1.016122,16.47641,-37.82803,-23.82311,1005.914
1.077930450,-3.170141,6.354825,2.837208,0.00895792,0.061861,1.016122,16.47641,-37.82803,-23.82311,1005.914
1.080408573,-4.088643,6.89944,2.714883,0.004626264,0.05844863,1.023851,16.47641,-37.82803,-23.82311,1005.914
1.082886696,-4.823445,7.080978,2.837208,-0.0006650018,0.0506407,1.028184,16.47641,-37.82803,-23.82311,1005.914
1.085364819,-5.374546,6.89944,2.776045,-0.007487285,0.05010682,1.023392,16.47641,-37.82803,-23.82311,1005.914
1.090320587,-6.109347,6.2338,3.081857,-0.0152244,0.04276503,1.024362,16.47641,-37.82803,-23.82311,1005.914
1.090320587,-6.109347,6.2338,3.081857,-0.0152244,0.04276503,1.024362,16.47641,-37.82803,-23.82311,1005.914
1.092798710,-6.354281,5.507648,2.837208,-0.02199765,0.03199987,1.017103,16.47641,-37.82803,-23.82311,1005.914
1.095276356,-6.170581,4.539444,2.89837,-0.01910365,0.03688656,1.018078,16.47641,-37.82803,-23.82311,1005.914
1.097754478,-6.170581,3.934317,2.714883,-0.01859386,0.03446149,1.020959,16.47641,-37.82803,-23.82311,1005.914
1.102710247,-5.680713,2.542525,2.286746,-0.01806665,0.02716014,1.020918,16.47641,-37.82803,-23.82311,1005.914
1.102710247,-5.680713,2.542525,2.286746,-0.01806665,0.02716014,1.020918,16.47641,-37.82803,-23.82311,1005.914
1.105188370,-5.374546,1.997911,2.042096,-0.02148294,0.02957832,1.021432,15.7223,-37.11824,-24.65667,1005.914
1.107666492,-4.945911,1.574322,1.858608,-0.02144421,0.02471727,1.024786,15.7223,-37.11824,-24.65667,1005.914
1.110144138,-4.39481,0.9086823,1.797446,-0.01855353,0.02666835,1.019953,15.7223,-37.11824,-24.65667,1005.914
1.115100384,-3.353841,-0.4831098,1.613959,-0.01954859,0.02713618,1.014169,15.7223,-37.11824,-24.65667,1005.912
1.115100384,-3.353841,-0.4831098,1.613959,-0.01954859,0.02713618,1.014169,15.7223,-37.11824,-24.65667,1005.912
1.117578506,-2.557806,-0.7856733,1.491634,-0.02247147,0.0285842,1.015158,15.7223,-37.11824,-24.65667,1005.912
1.120056152,-1.884238,-1.209262,1.246984,-0.01954693,0.02860399,1.017072,15.7223,-37.11824,-24.65667,1005.912
1.125012398,-0.965736,-2.05644,0.9411715,-0.02007134,0.03981831,1.024373,15.7223,-37.11824,-24.65667,1005.912
1.125012398,-0.965736,-2.05644,0.9411715,-0.02007134,0.03981831,1.024373,15.7223,-37.11824,-24.65667,1005.912
1.127490044,-0.9045025,-1.995928,0.6965217,-0.009379186,0.04084636,1.023837,15.7223,-37.11824,-24.65667,1005.912
1.129968166,-0.6595686,-2.237978,1.002334,-0.004481552,0.03502961,1.024263,15.7223,-37.11824,-24.65667,1005.912
1.132446289,-0.5983351,-2.05644,1.246984,-0.01083758,0.04426134,1.029655,15.7223,-37.11824,-24.65667,1005.912
1.144836903,-0.6595686,-1.088237,0.9411715,-0.005993842,0.05160561,1.035941,15.7223,-37.11824,-24.65667,1005.912
1.144836903,-0.6595686,-1.088237,0.9411715,-0.005993842,0.05160561,1.035941,15.7223,-37.11824,-24.65667,1005.912
1.147314549,-1.39437,-0.6646479,0.5741968,-0.007446849,0.04964685,1.034491,15.7223,-37.11824,-24.65667,1005.912
1.149792671,-2.067938,-0.5436226,0.3907094,-0.01372719,0.04035553,1.031581,15.7223,-37.11824,-24.65667,1005.912
1.152270794,-2.863973,-0.6041352,0.08489711,-0.01473315,0.04277106,1.025807,15.7223,-37.11824,-24.65667,1005.912
1.157226563,-3.721242,-0.7251607,-0.4044026,-0.01229995,0.03691829,1.016593,15.73534,-37.83599,-23.82034,1005.913
1.157226563,-3.721242,-0.7251607,-0.4044026,-0.01229995,0.03691829,1.016593,15.73534,-37.83599,-23.82034,1005.913
1.159704685,-3.966176,-0.9672114,-0.6490523,-0.01766489,0.03639079,1.01131,15.73534,-37.83599,-23.82034,1005.913
1.162182331,-4.333577,-1.088237,-0.7713773,-0.01670976,0.03393893,1.002121,15.73534,-37.83599,-23.82034,1005.913
1.167138577,-4.21111,-1.874902,-1.07719,-0.008882184,0.02423485,0.9996152,15.73534,-37.83599,-23.82034,1005.913
1.169616222,-3.721242,-2.177466,-1.199515,-0.005042861,0.02812929,0.9909259,15.73534,-37.83599,-23.82034,1005.913
1.172094345,-3.231374,-2.359004,-1.321839,-0.005037989,0.02519954,0.9875321,15.73534,-37.83599,-23.82034,1005.913
1.174572468,-2.925207,-2.359004,-1.566489,-0.002112969,0.0213087,0.983152,15.73534,-37.83599,-23.82034,1005.913
1.177050591,-2.61904,-2.540542,-1.749977,-0.004065353,0.02373794,0.9851059,15.73534,-37.83599,-23.82034,1005.913
1.179528236,-1.884238,-2.782593,-1.749977,-0.005500392,0.01739217,0.9817024,15.73534,-37.83599,-23.82034,1005.913
1.182006359,-1.761771,-2.964131,-1.627652,-0.006013419,0.02274817,0.982698,15.73534,-37.83599,-23.82034,1005.913
1.184484482,-1.516837,-3.024643,-1.872301,-0.008958645,0.02760231,0.9827391,15.73534,-37.83599,-23.82034,1005.913
1.186962128,-1.455604,-3.206182,-1.872301,-0.008967951,0.02661792,0.97839,15.73534,-37.83599,-23.82034,1005.913
1.189440250,-1.761771,-3.38772,-2.055789,-0.004589325,0.02810837,0.9812698,15.73534,-37.83599,-23.82034,1005.913
1.191918373,-2.006705,-3.327207,-2.300439,0.0002734377,0.02911091,0.9826963,15.73534,-37.83599,-23.82034,1005.913
1.194396019,-2.129172,-3.38772,-2.606251,0.001207346,0.03251035,0.9769166,15.73534,-37.83599,-23.82034,1005.909
1.196874142,-2.496573,-3.266694,-2.545089,0.003150493,0.03349661,0.9778764,15.73534,-37.83599,-23.82034,1005.909
1.199352741,-3.170141,-3.266694,-2.667413,0.00317287,0.03155712,0.9812451,15.73534,-37.83599,-23.82034,1005.909
1.201830864,-3.904943,-3.024643,-2.912063,0.006565721,0.03303317,0.9802686,15.73534,-37.83599,-23.82034,1005.909
1.204308987,-4.272344,-2.661567,-2.789738,0.0085318,0.0325692,0.985565,16.45188,-36.37688,-24.6724,1005.909
1.206786633,-4.823445,-2.601054,-2.667413,0.009937235,0.03302735,0.9705967,16.45188,-36.37688,-24.6724,1005.909
1.209264755,-5.252079,-1.935415,-2.606251,0.009913218,0.03496567,0.9667453,16.45188,-36.37688,-24.6724,1005.909
1.211742878,-5.497013,-1.693364,-2.483926,0.008948735,0.03349986,0.9667431,16.45188,-36.37688,-24.6724,1005.909
1.214220524,-5.741947,-1.693364,-2.422764,0.006496927,0.03738385,0.9672591,16.45188,-36.37688,-24.6724,1005.909
1.219176769,-6.109347,-1.269775,-2.545089,0.02012992,0.03257687,0.963781,16.45188,-36.37688,-24.6724,1005.909
1.219176769,-6.109347,-1.269775,-2.545089,0.02012992,0.03257687,0.963781,16.45188,-36.37688,-24.6724,1005.909
1.221654415,-5.986881,-1.027724,-2.300439,0.01574534,0.03450426,0.9647803,16.45188,-36.37688,-24.6724,1005.909
1.224132538,-5.864414,-0.9672114,-2.239276,0.01428148,0.03742646,0.9681821,16.45188,-36.37688,-24.6724,1005.909
1.226610661,-5.741947,-0.6646479,-2.239276,0.01428365,0.03645027,0.9672117,16.45188,-36.37688,-24.6724,1005.909
1.229088783,-5.43578,-0.4831098,-2.178114,0.01524642,0.03351501,0.9594684,16.45188,-36.37688,-24.6724,1005.909
1.231566429,-4.823445,-0.3015717,-1.811139,0.01719227,0.03254771,0.9580048,16.45188,-36.37688,-24.6724,1005.909
1.234044552,-4.21111,-0.6041352,-1.566489,0.01816389,0.0359741,0.9633266,16.45188,-36.37688,-24.6724,1005.909
1.236522675,-3.966176,-0.7856733,-1.566489,0.01278921,0.0413061,0.9648315,16.45188,-36.37688,-24.6724,1005.909
1.241478443,-3.476308,-0.7856733,-1.199515,0.007940141,0.04226885,0.9706551,16.45188,-36.37688,-24.6724,1005.909
1.241478443,-3.476308,-0.7856733,-1.199515,0.007940141,0.04226885,0.9706551,16.45188,-36.37688,-24.6724,1005.909
1.243956566,-3.415075,-1.027724,-1.383002,0.009836894,0.04713292,0.9643948,16.45188,-36.37688,-24.6724,1005.909
1.246434212,-2.98644,-1.330288,-1.505327,0.007940719,0.04422475,0.9740438,16.45188,-36.37688,-24.6724,1005.909
1.248912335,-2.741507,-1.753877,-1.260677,0.009411115,0.0398406,0.9701518,16.45188,-36.37688,-24.6724,1005.909
1.253868103,-2.129172,-1.874902,-1.138352,0.01422587,0.04618641,0.9662966,16.45188,-36.37688,-24.6724,1005.909
1.256346226,-1.700538,-1.814389,-1.321839,0.01322924,0.05105297,0.9672925,16.45188,-36.37688,-24.6724,1005.909
1.258824349,-1.271903,-1.874902,-1.138352,0.01665911,0.0432669,0.9619242,16.45188,-36.37688,-24.6724,1005.909
1.261302948,-0.8432691,-1.935415,-1.260677,0.01275917,0.04226238,0.9575963,16.45188,-36.37688,-24.6724,1005.909
1.266258717,0.0139995,-1.753877,-1.07719,0.01372589,0.04715188,0.9638909,16.45188,-36.37688,-24.6724,1005.909
1.266258717,0.0139995,-1.753877,-1.07719,0.01372589,0.04715188,0.9638909,16.45188,-36.37688,-24.6724,1005.909
1.268736839,0.3201669,-1.693364,-1.07719,0.01422037,0.044227,0.9614599,16.45188,-36.37688,-24.6724,1005.909
1.271214962,0.3201669,-1.511826,-0.8937021,0.00788063,0.04613729,0.9595736,16.45188,-36.37688,-24.6724,1005.909
1.273692608,0.6875677,-1.572338,-1.07719,0.01033521,0.04469964,0.9638969,16.45188,-36.37688,-24.6724,1005.909
1.278648853,0.8712681,-1.14875,-0.7713773,0.01082537,0.04519377,0.9658275,16.45188,-36.37688,-24.6724,1005.903
1.278648853,0.8712681,-1.14875,-0.7713773,0.01082537,0.04519377,0.9658275,16.45188,-36.37688,-24.6724,1005.903
1.281126499,0.993735,-0.846186,-0.7713773,0.008884996,0.04665386,0.9697071,16.45188,-36.37688,-24.6724,1005.903
1.283604622,0.9325016,-0.5436226,-0.8937021,0.005963209,0.04761377,0.9702106,16.45188,-36.37688,-24.6724,1005.903
1.288560867,0.8712681,-0.1200336,-1.016027,0.00697455,0.0398245,0.968717,16.45188,-36.37688,-24.6724,1005.903
1.288560867,0.8712681,-0.1200336,-1.016027,0.00697455,0.0398245,0.968717,16.45188,-36.37688,-24.6724,1005.903
1.291038513,0.8100346,0.364068,-0.8937021,0.004532557,0.04224889,0.9697083,16.45188,-36.37688,-24.6724,1005.903
1.293516636,0.8100346,0.9086823,-0.8325397,0.003540245,0.04369642,0.9663423,16.45188,-36.37688,-24.6724,1005.903
1.295994759,0.5651007,1.271759,-1.016027,0.005521566,0.03933237,0.9696879,16.45188,-36.37688,-24.6724,1005.903
1.300951004,0.5651007,1.997911,-0.9548646,-0.0007935353,0.0441935,0.9798837,16.45188,-36.37688,-24.6724,1005.903
1.300951004,0.5651007,1.997911,-0.9548646,-0.0007935353,0.0441935,0.9798837,16.45188,-36.37688,-24.6724,1005.903
1.303428650,0.3814003,2.4215,-0.9548646,-0.004205993,0.04710329,0.9823306,16.45188,-36.37688,-24.6724,1005.903
1.305906296,0.2589334,2.845089,-1.016027,-0.006135515,0.04368241,0.9813583,16.08134,-36.38087,-24.67101,1005.903
1.308384419,0.07523298,2.966114,-1.07719,-0.007125146,0.04170975,0.973148,16.08134,-36.38087,-24.67101,1005.903
1.313341141,1.973471,3.510728,-1.444164,-0.02422099,0.04254629,0.9529734,16.08134,-36.38087,-24.67101,1005.903
1.313341141,1.973471,3.510728,-1.444164,-0.02422099,0.04254629,0.9529734,16.08134,-36.38087,-24.67101,1005.903
1.315818310,2.708272,3.571241,-2.422764,-0.03242164,0.05966188,1.000891,16.08134,-36.38087,-24.67101,1005.904
1.318296433,1.299902,4.418419,-3.401363,-0.003482477,0.04678645,1.051348,16.08134,-36.38087,-24.67101,1005.904
1.320774555,-1.455604,5.205084,-2.973226,0.006787757,0.04248042,1.060923,16.08134,-36.38087,-24.67101,1005.904
1.325730801,-5.374546,6.2338,-2.055789,0.002679147,0.04817097,1.006432,16.08134,-36.38087,-24.67101,1005.904
1.325730801,-5.374546,6.2338,-2.055789,0.002679147,0.04817097,1.006432,16.08134,-36.38087,-24.67101,1005.904
1.335642815,-2.80274,8.049181,-4.869262,-0.01376617,0.02908362,1.001598,16.08134,-36.38087,-24.67101,1005.904
1.338120937,-2.80274,8.049181,-4.991587,-0.01671022,0.03931619,1.010837,16.08134,-36.38087,-24.67101,1005.904
1.340599060,-3.537542,8.47277,-5.542049,-0.01959432,0.03883643,1.020021,16.08134,-36.38087,-24.67101,1005.904
1.345554829,-4.333577,8.835846,-5.970186,-0.0113475,0.03788662,1.012248,16.08134,-36.38087,-24.67101,1005.904
1.345554829,-4.333577,8.835846,-5.970186,-0.0113475,0.03788662,1.012248,16.08134,-36.38087,-24.67101,1005.904
1.348032951,-3.782475,8.714821,-5.909023,-0.0128055,0.03152445,1.002088,16.08134,-36.38087,-24.67101,1005.904
1.350510597,-3.537542,8.47277,-6.031348,-0.007445483,0.03204843,1.005922,16.08134,-36.38087,-24.67101,1005.904
1.355466843,-2.374106,7.444054,-5.725536,-0.005105379,0.04959498,1.00793,16.82817,-36.73959,-24.66731,1005.904
1.355466843,-2.374106,7.444054,-5.725536,-0.005105379,0.04959498,1.00793,16.82817,-36.73959,-24.66731,1005.904
1.357944489,-2.251639,6.838927,-5.542049,0.01200125,0.03947758,1.01599,16.82817,-36.73959,-24.66731,1005.899
1.360422611,-2.61904,6.294313,-4.318799,0.03695189,0.02260108,1.031213,16.82817,-36.73959,-24.66731,1005.899
1.362900734,-2.61904,5.991749,-2.728576,0.01738313,0.04050606,1.027068,16.82817,-36.73959,-24.66731,1005.899
1.367856503,0.6263342,7.80713,-3.034388,-0.01881849,0.06901087,1.011966,16.82817,-36.73959,-24.66731,1005.899
1.367856503,0.6263342,7.80713,-3.034388,-0.01881849,0.06901087,1.011966,16.82817,-36.73959,-24.66731,1005.899
1.370334625,2.463338,7.928156,-4.012987,-0.02126484,0.07192101,1.012478,16.82817,-36.73959,-24.66731,1005.899
1.372812748,3.565541,7.080978,-4.746937,-0.01595619,0.07338602,1.002802,16.82817,-36.73959,-24.66731,1005.899
1.375290394,3.688008,5.628673,-4.991587,-0.01157807,0.07732047,1.009556,16.82817,-36.73959,-24.66731,1005.899
1.380247116,1.851004,3.631754,-5.175074,-0.009645248,0.08221033,1.013915,16.82817,-36.73959,-24.66731,1005.899
1.380247116,1.851004,3.631754,-5.175074,-0.009645248,0.08221033,1.013915,16.82817,-36.73959,-24.66731,1005.899
1.382725239,1.116202,2.603038,-5.236237,-0.006212629,0.07540398,1.010965,16.82817,-36.73959,-24.66731,1005.899
1.385202885,0.8100346,1.513809,-4.930424,0.003055411,0.06960519,1.009436,16.82817,-36.73959,-24.66731,1005.899
1.387681007,1.116202,0.6061188,-4.685774,0.005032853,0.06181626,1.006007,16.82817,-36.73959,-24.66731,1005.899
1.392636776,2.157171,-0.7251607,-4.196475,0.01824605,0.04776575,1.006828,16.82817,-36.73959,-24.66731,1005.899
1.392636776,2.157171,-0.7251607,-4.196475,0.01824605,0.04776575,1.006828,16.82817,-36.73959,-24.66731,1005.899
1.395114899,2.708272,-0.846186,-3.523688,0.01827718,0.04632138,1.013578,16.82817,-36.73959,-24.66731,1005.899
1.397593021,2.953206,-1.027724,-2.850901,0.02359032,0.05463382,1.016487,16.82817,-36.73959,-24.66731,1005.898
1.402548790,3.19814,-1.209262,-2.361601,0.02208387,0.06045881,1.012181,16.82817,-36.73959,-24.66731,1005.898
1.402548790,3.19814,-1.209262,-2.361601,0.02208387,0.06045881,1.012181,16.82817,-36.73959,-24.66731,1005.898
1.405026913,3.136906,-1.330288,-2.055789,0.02010749,0.06629302,1.012705,16.0878,-36.74034,-24.28452,1005.898
1.407505035,2.830739,-1.209262,-1.872301,0.02403355,0.05998313,1.012651,16.0878,-36.74034,-24.28452,1005.898
1.409982681,2.463338,-1.511826,-1.627652,0.02454006,0.05755571,1.014566,16.0878,-36.74034,-24.28452,1005.898
1.414938927,1.973471,-1.209262,-1.383002,0.0152845,0.05700808,1.009305,16.0878,-36.74034,-24.28452,1005.898
1.414938927,1.973471,-1.209262,-1.383002,0.0152845,0.05700808,1.009305,16.0878,-36.74034,-24.28452,1005.898
1.417416573,1.851004,-1.209262,-1.07719,0.01872257,0.04922787,1.00635,16.0878,-36.74034,-24.28452,1005.898
1.419894695,2.095937,-1.511826,-0.8325397,0.02260718,0.04826596,1.002945,16.0878,-36.74034,-24.28452,1005.898
1.422372818,2.585805,-1.451313,-0.5878899,0.02114985,0.04972621,1.005857,16.0878,-36.74034,-24.28452,1005.898
1.427328587,3.932941,-1.814389,0.02373465,0.0226142,0.04289338,0.9961599,16.0878,-36.74034,-24.28452,1005.898
1.427328587,3.932941,-1.814389,0.02373465,0.0226142,0.04289338,0.9961599,16.0878,-36.74034,-24.28452,1005.898
1.432284832,4.912677,-2.359004,1.246984,0.03587545,0.02643285,1.007104,16.0878,-36.74034,-24.28452,1005.898
1.432284832,4.912677,-2.359004,1.246984,0.03587545,0.02643285,1.007104,16.0878,-36.74034,-24.28452,1005.898
1.434762478,5.769945,-2.601054,1.919771,0.02119731,0.04389366,1.01017,16.0878,-36.74034,-24.28452,1005.898
1.439718723,7.423249,-2.05644,1.613959,-0.000346723,0.06861139,1.008485,16.0878,-36.74034,-24.28452,1005.892
1.439718723,7.423249,-2.05644,1.613959,-0.000346723,0.06861139,1.008485,16.0878,-36.74034,-24.28452,1005.892
1.442196369,7.668183,-2.419516,1.185821,0.001103558,0.07105707,1.009937,16.0878,-36.74034,-24.28452,1005.892
1.447153092,6.504747,-4.05336,0.8188466,0.01182631,0.07161812,1.017604,16.0878,-36.74034,-24.28452,1005.892
1.447153092,6.504747,-4.05336,0.8188466,0.01182631,0.07161812,1.017604,16.0878,-36.74034,-24.28452,1005.892
1.452109337,4.422809,-4.840024,1.124659,0.01820649,0.06924785,1.030589,16.0878,-36.74034,-24.28452,1005.892
1.454586983,3.871708,-4.597974,1.246984,0.02062389,0.0668059,1.022358,16.45258,-36.36966,-24.29239,1005.892
1.457065106,3.688008,-4.597974,1.369309,0.01819053,0.06239224,1.014626,16.45258,-36.36966,-24.29239,1005.892
1.459543228,3.810475,-4.779512,1.308146,0.01721404,0.06189559,1.012698,16.45258,-36.36966,-24.29239,1005.892
1.462020874,3.871708,-4.537461,1.246984,0.01674081,0.06043581,1.014141,16.45258,-36.36966,-24.29239,1005.892
1.464498997,3.932941,-4.476948,1.430471,0.02256635,0.05850309,1.007825,16.45258,-36.36966,-24.29239,1005.892
1.466977120,3.749241,-4.355923,1.736283,0.01669331,0.0633351,1.004985,16.45258,-36.36966,-24.29239,1005.892
1.469454765,3.504307,-4.174385,1.797446,0.02300522,0.06433815,1.003508,16.45258,-36.36966,-24.29239,1005.892
1.471932888,3.01444,-4.355923,2.042096,0.01762232,0.06819766,1.000179,16.45258,-36.36966,-24.29239,1005.892
1.476888657,2.647039,-4.537461,2.531395,0.008446927,0.05744101,1.001621,16.45258,-36.36966,-24.29239,1005.892
1.476888657,2.647039,-4.537461,2.531395,0.008446927,0.05744101,1.001621,16.45258,-36.36966,-24.29239,1005.892
1.479366779,2.524572,-4.718999,2.470233,0.01375452,0.06086076,0.9948525,16.45258,-36.36966,-24.29239,1005.889
1.481844902,2.524572,-4.840024,2.592558,0.01376267,0.05793336,0.9924241,16.45258,-36.36966,-24.29239,1005.889
1.484323025,2.524572,-4.658486,2.89837,0.009901991,0.05109043,0.9899967,16.45258,-36.36966,-24.29239,1005.889
1.486800671,2.647039,-4.597974,3.020695,0.01183202,0.05206731,0.9870951,16.45258,-36.36966,-24.29239,1005.889
1.489278793,2.769506,-4.658486,3.14302,0.01716961,0.05159752,0.9827193,16.45258,-36.36966,-24.29239,1005.889
1.491756916,3.19814,-4.718999,3.081857,0.01426088,0.04816692,0.9798217,16.45258,-36.36966,-24.29239,1005.889
1.494234562,3.565541,-4.29541,2.959532,0.01137451,0.04279682,0.9802924,16.45258,-36.36966,-24.29239,1005.889
1.496712685,3.688008,-4.05336,2.959532,0.01479683,0.0413607,0.9831625,16.45258,-36.36966,-24.29239,1005.889
1.499190807,3.932941,-3.871821,2.959532,0.0123859,0.03794082,0.9836408,16.45258,-36.36966,-24.29239,1005.889
1.501668453,3.932941,-3.206182,2.837208,0.01284664,0.04428038,0.9865668,16.45258,-36.36966,-24.29239,1005.889
1.504147053,3.810475,-2.964131,2.714883,0.01137456,0.04573008,0.9851343,16.45258,-36.36966,-24.29239,1005.889
1.506625176,3.626774,-2.540542,2.65372,0.008040642,0.03842969,0.9938033,16.4568,-36.752,-25.10928,1005.889
1.509103298,3.075673,-2.359004,2.531395,0.01335539,0.04527666,0.9947747,16.4568,-36.752,-25.10928,1005.889
1.511581421,2.647039,-1.874902,2.531395,0.007989951,0.04719316,0.9933659,16.4568,-36.752,-25.10928,1005.889
1.514059067,2.279638,-1.451313,2.470233,0.005550615,0.04473072,0.9870918,16.4568,-36.752,-25.10928,1005.889
1.516537190,1.912237,-1.209262,2.347908,0.01187669,0.04232179,0.9841487,16.4568,-36.752,-25.10928,1005.889
1.519015312,1.667303,-0.9672114,2.286746,0.01189802,0.04380365,0.9928445,16.4568,-36.752,-25.10928,1005.889
1.521492958,1.422369,-0.4831098,2.347908,0.01333463,0.0457507,0.9894679,16.4568,-36.752,-25.10928,1005.889
1.531404972,0.1364664,-0.3015717,2.042096,0.0006835794,0.05008047,0.9948688,16.4568,-36.752,-25.10928,1005.889
1.533883095,-0.2921678,-0.3620844,1.797446,-0.00173659,0.05007609,0.9982607,16.4568,-36.752,-25.10928,1005.889
1.536360741,-0.6595686,-0.5436226,1.675121,-0.002235482,0.05055347,0.9953699,16.4568,-36.752,-25.10928,1005.889
1.538838863,-0.9045025,-0.7251607,1.552796,-0.001745897,0.0490917,0.9939117,16.4568,-36.752,-25.10928,1005.889
1.541316986,-1.02697,-1.269775,1.369309,-0.005648585,0.04710745,0.9871653,16.4568,-36.752,-25.10928,1005.889
1.546272755,-0.2921678,-1.693364,0.9411715,0.0007123328,0.0364126,0.9808007,16.4568,-36.752,-25.10928,1005.889
1.546272755,-0.2921678,-1.693364,0.9411715,0.0007123328,0.0364126,0.9808007,16.4568,-36.752,-25.10928,1005.889
1.548750878,0.2589334,-1.935415,1.002334,0.004580082,0.04081623,0.9812849,16.4568,-36.752,-25.10928,1005.889
1.551229000,0.9325016,-1.935415,0.8188466,0.00655161,0.03937842,0.9865761,16.4568,-36.752,-25.10928,1005.889
1.568575382,3.810475,-1.3908,1.369309,-0.0003282474,0.06178037,1.002657,16.82817,-36.73959,-24.66731,1005.886
1.571053505,3.38184,-1.330288,1.491634,0.002109427,0.06277501,1.006028,16.82817,-36.73959,-24.66731,1005.886
1.573531151,3.136906,-1.451313,1.369309,0.0006548257,0.06374834,1.008937,16.82817,-36.73959,-24.66731,1005.886
1.576009274,2.708272,-1.269775,1.369309,-0.002260957,0.06422368,1.010403,16.82817,-36.73959,-24.66731,1005.886
1.578487396,2.157171,-1.330288,1.430471,0.005026317,0.06327821,1.006497,16.82817,-36.73959,-24.66731,1005.886
1.583443165,1.299902,-1.269775,1.675121,0.005518606,0.05986288,1.002615,16.82817,-36.73959,-24.66731,1005.886
1.583443165,1.299902,-1.269775,1.675121,0.005518606,0.05986288,1.002615,16.82817,-36.73959,-24.66731,1005.886
1.585921288,0.8712681,-1.027724,1.491634,0.004053104,0.0627839,1.005535,16.82817,-36.73959,-24.66731,1005.886
1.588398934,0.5651007,-0.846186,1.369309,0.01140206,0.0569938,1.011739,16.82817,-36.73959,-24.66731,1005.886
1.590877056,0.0139995,-0.7856733,1.430471,0.005049734,0.05791735,1.004539,16.82817,-36.73959,-24.66731,1005.886
1.595833302,-0.7820356,-0.846186,1.369309,0.002660118,0.0545127,1.011292,16.82817,-36.73959,-24.66731,1005.886
1.595833302,-0.7820356,-0.846186,1.369309,0.002660118,0.0545127,1.011292,16.82817,-36.73959,-24.66731,1005.886
1.598310948,-0.9045025,-0.7856733,1.124659,0.004070495,0.056441,1.000192,16.82817,-36.73959,-24.66731,1005.886
1.600789070,-1.02697,-0.7856733,1.185821,0.0001629549,0.05885314,0.9992607,16.82817,-36.73959,-24.66731,1005.881
1.605744839,-1.639304,-0.9066988,1.063496,0.003574859,0.05545408,0.9958459,16.46984,-37.46975,-24.27295,1005.881
1.605744839,-1.639304,-0.9066988,1.063496,0.003574859,0.05545408,0.9958459,16.46984,-37.46975,-24.27295,1005.881
1.608222962,-1.578071,-1.088237,1.063496,0.001148685,0.05593428,0.998275,16.46984,-37.46975,-24.27295,1005.881
1.610701084,-1.516837,-0.7856733,1.185821,0.00259234,0.05397539,0.9905343,16.46984,-37.46975,-24.27295,1005.881
1.613178730,-1.39437,-0.7856733,1.063496,0.006012996,0.05107146,0.9905006,16.46984,-37.46975,-24.27295,1005.881
1.625569344,-1.516837,-0.4225971,1.491634,0.01279491,0.05646521,0.9914565,16.46984,-37.46975,-24.27295,1005.881
1.625569344,-1.516837,-0.4225971,1.491634,0.01279491,0.05646521,0.9914565,16.46984,-37.46975,-24.27295,1005.881
1.628047466,-1.578071,-0.05952091,1.491634,0.01032502,0.05740304,0.9818213,16.46984,-37.46975,-24.27295,1005.881
1.630525589,-1.578071,0.1825299,1.430471,0.01033756,0.05545651,0.9822939,16.46984,-37.46975,-24.27295,1005.881
1.633003235,-1.700538,0.1825299,1.491634,0.01425332,0.05451686,0.9880598,16.46984,-37.46975,-24.27295,1005.881
1.637959480,-1.945472,0.3035553,1.369309,0.009894324,0.0501072,0.9861304,16.46984,-37.46975,-24.27295,1005.881
1.637959480,-1.945472,0.3035553,1.369309,0.009894324,0.0501072,0.9861304,16.46984,-37.46975,-24.27295,1005.881
1.640437126,-2.006705,0.2430426,1.430471,0.005037036,0.04959745,0.9871197,16.46984,-37.46975,-24.27295,1005.88
1.642915249,-1.945472,0.5456061,1.430471,0.007462678,0.05009462,0.9861436,16.46984,-37.46975,-24.27295,1005.88
1.645393372,-2.067938,0.364068,1.430471,0.006988334,0.04765631,0.985651,16.46984,-37.46975,-24.27295,1005.88
1.650349140,-1.945472,0.5456061,1.124659,0.007486695,0.04815629,0.9899949,16.46984,-37.46975,-24.27295,1005.88
1.650349140,-1.945472,0.5456061,1.124659,0.007486695,0.04815629,0.9899949,16.46984,-37.46975,-24.27295,1005.88
1.652827263,-1.884238,0.5456061,1.185821,0.01138876,0.04525136,0.9885105,16.46984,-37.46975,-24.27295,1005.88
1.655305386,-1.823005,0.4245807,1.369309,0.006041332,0.04571412,0.9899902,16.46984,-37.46975,-24.27295,1005.88
1.660261154,-1.700538,0.4850934,1.430471,0.002137003,0.04372871,0.9827612,16.46338,-37.11027,-24.65944,1005.88
1.660261154,-1.700538,0.4850934,1.430471,0.002137003,0.04372871,0.9827612,16.46338,-37.11027,-24.65944,1005.88
1.662739277,-1.578071,0.364068,1.491634,0.0007004156,0.0432483,0.9885587,16.46338,-37.11027,-24.65944,1005.88
1.665216923,-1.333137,0.3035553,1.430471,0.005555534,0.04473424,0.9885398,16.46338,-37.11027,-24.65944,1005.88
1.667695046,-1.271903,0.3035553,1.675121,0.001133306,0.05103457,0.9857004,16.46338,-37.11027,-24.65944,1005.88
1.675128937,-1.578071,1.029708,1.858608,0.006474777,0.05398966,0.9880997,16.46338,-37.11027,-24.65944,1005.88
1.675128937,-1.578071,1.029708,1.858608,0.006474777,0.05398966,0.9880997,16.46338,-37.11027,-24.65944,1005.88
1.677607060,-1.271903,1.392784,1.797446,0.006952909,0.05398633,0.9856837,16.46338,-37.11027,-24.65944,1005.88
1.682563782,-1.455604,2.179449,2.65372,0.016197,0.05452576,0.9875665,16.46338,-37.11027,-24.65944,1005.876
1.682563782,-1.455604,2.179449,2.65372,0.016197,0.05452576,0.9875665,16.46338,-37.11027,-24.65944,1005.876
1.687519550,-1.271903,3.208165,3.204182,0.01474455,0.05305626,0.9870843,16.46338,-37.11027,-24.65944,1005.876
1.687519550,-1.271903,3.208165,3.204182,0.01474455,0.05305626,0.9870843,16.46338,-37.11027,-24.65944,1005.876
1.689997673,-1.271903,3.752779,3.38767,0.01229983,0.05596757,0.988078,16.46338,-37.11027,-24.65944,1005.876
1.692475319,-1.333137,4.66047,3.754644,0.01574621,0.05552638,0.9996411,16.46338,-37.11027,-24.65944,1005.876
1.694953442,-1.516837,5.447135,4.305107,0.01569716,0.06429102,0.9996864,16.46338,-37.11027,-24.65944,1005.876
1.699909210,-2.61904,6.959952,5.344869,0.01809063,0.06965392,0.9972874,16.46338,-37.11027,-24.65944,1005.876
1.699909210,-2.61904,6.959952,5.344869,0.01809063,0.06965392,0.9972874,16.46338,-37.11027,-24.65944,1005.876
1.756903649,-2.435339,1.997911,3.509995,-0.008789395,0.01647921,1.014055,16.09272,-37.11546,-24.72139,1005.871
1.759381294,-1.088203,1.211246,3.204182,0.008242412,0.009730442,1.005722,16.09272,-37.11546,-24.72139,1005.871
1.761859417,-0.2921678,-0.241059,3.938132,0.04489874,-0.01341684,1.020365,16.09272,-37.11546,-24.72139,1005.872
1.764337540,-0.04723396,-1.209262,5.161381,0.01312439,0.0161243,1.021656,16.09272,-37.11546,-24.72139,1005.872
1.766815663,0.993735,-0.7856733,5.161381,-0.004050878,0.04085881,1.017533,16.09272,-37.11546,-24.72139,1005.872
1.769293308,2.279638,0.1220172,4.488594,-0.006485713,0.04671041,1.026265,16.09272,-37.11546,-24.72139,1005.872
1.774249554,2.647039,-0.4225971,3.204182,-0.0002130589,0.05355188,1.022887,16.09272,-37.11546,-24.72139,1005.872
1.774249554,2.647039,-0.4225971,3.204182,-0.0002130589,0.05355188,1.022887,16.09272,-37.11546,-24.72139,1005.872
1.776727200,1.851004,-1.3908,3.081857,-0.0002049063,0.05062447,1.020458,16.09272,-37.11546,-24.72139,1005.872
1.779205322,0.9325016,-2.05644,2.89837,0.006147974,0.05019019,1.028627,16.09272,-37.11546,-24.72139,1005.872
1.781683445,0.07523298,-2.177466,3.081857,0.006635366,0.04823797,1.025718,16.09272,-37.11546,-24.72139,1005.872
1.784161091,-0.3534013,-2.177466,3.265345,0.005698665,0.04092555,1.024238,16.09272,-37.11546,-24.72139,1005.872
1.786639214,-0.6595686,-2.237978,3.632319,0.007624839,0.03994419,1.016982,16.09272,-37.11546,-24.72139,1005.872
1.789117336,-0.965736,-2.480029,4.182782,0.01011655,0.0365776,1.029018,16.09272,-37.11546,-24.72139,1005.872
1.791594982,-1.271903,-2.540542,4.427432,0.007170769,0.04094248,1.028091,16.09272,-37.11546,-24.72139,1005.872
1.794074059,-1.945472,-2.298491,4.305107,0.009153175,0.03609033,1.030951,16.09272,-37.11546,-24.72139,1005.872
1.796551705,-2.680273,-2.116953,4.488594,0.007658738,0.04094617,1.028571,16.09272,-37.11546,-24.72139,1005.872
1.799029827,-3.231374,-1.753877,4.733244,0.003769166,0.0389713,1.025686,16.09272,-37.11546,-24.72139,1005.872
1.801507950,-3.843709,-1.511826,4.366269,0.007160909,0.03946882,1.022774,16.09272,-37.11546,-24.72139,1005.867
1.803985596,-4.456044,-1.330288,3.938132,0.004713906,0.03602315,1.012634,16.09272,-37.11546,-24.72139,1005.867
1.806463719,-5.068378,-1.088237,3.448832,0.004740626,0.03213127,1.014062,16.45188,-36.37688,-24.6724,1005.867
1.808941841,-5.313313,-1.14875,3.571157,0.007139458,0.03065379,1.001974,16.45188,-36.37688,-24.6724,1005.867
1.811419487,-5.497013,-1.088237,3.448832,0.01007161,0.02872354,1.002913,16.45188,-36.37688,-24.6724,1005.867
1.813897610,-5.558246,-0.9066988,3.693482,0.01103277,0.02725373,0.9971083,16.45188,-36.37688,-24.6724,1005.867
1.816375733,-5.374546,-0.9066988,3.693482,0.01001379,0.03552642,0.9971563,16.45188,-36.37688,-24.6724,1005.867
1.821331501,-5.007145,-0.6646479,3.999295,0.0100236,0.03406681,0.9976315,16.45188,-36.37688,-24.6724,1005.867
1.821331501,-5.007145,-0.6646479,3.999295,0.0100236,0.03406681,0.9976315,16.45188,-36.37688,-24.6724,1005.867
1.823809624,-4.884678,-0.6041352,3.876969,0.008068933,0.03013909,0.9884511,16.45188,-36.37688,-24.6724,1005.867
1.826287747,-4.517277,-0.6041352,3.693482,0.01341694,0.03163223,0.9903603,16.45188,-36.37688,-24.6724,1005.867
1.828765392,-4.02741,-0.4831098,3.632319,0.01485406,0.03113528,0.9831097,16.45188,-36.37688,-24.6724,1005.867
1.831243515,-3.598775,-0.4225971,3.571157,0.01432789,0.03501527,0.977823,16.45188,-36.37688,-24.6724,1005.867
1.833721638,-3.292608,-0.4831098,3.38767,0.01435299,0.03258885,0.9811892,16.45188,-36.37688,-24.6724,1005.867
1.836199284,-3.047674,-0.6041352,3.448832,0.0134038,0.03015623,0.9840779,16.45188,-36.37688,-24.6724,1005.867
1.838677407,-2.863973,-0.5436226,3.571157,0.01144867,0.03160576,0.9836134,16.45188,-36.37688,-24.6724,1005.867
1.841155529,-2.61904,-0.7856733,3.326507,0.01438847,0.0291921,0.9859983,16.45188,-36.37688,-24.6724,1005.867
1.843633175,-2.251639,-1.14875,3.326507,0.01385246,0.03306506,0.9778156,16.45188,-36.37688,-24.6724,1005.869
1.846111298,-1.945472,-1.451313,3.326507,0.01246167,0.02528429,0.9850234,16.45188,-36.37688,-24.6724,1005.869
1.848589421,-1.578071,-1.814389,3.265345,0.01099287,0.02673634,0.9845563,16.45188,-36.37688,-24.6724,1005.869
1.851067543,-1.333137,-2.298491,3.14302,0.0109852,0.02575312,0.9806898,16.45188,-36.37688,-24.6724,1005.869
1.856023789,-0.1697009,-3.085156,2.837208,0.007053668,0.03157022,0.9783278,16.45188,-36.37688,-24.6724,1005.869
1.856023789,-0.1697009,-3.085156,2.837208,0.007053668,0.03157022,0.9783278,16.45188,-36.37688,-24.6724,1005.869
1.858501911,0.1976999,-3.750796,2.837208,0.01192458,0.02964535,0.9773259,15.71151,-36.37763,-24.28961,1005.869
1.860980034,0.5651007,-3.932334,2.714883,0.01385514,0.02964487,0.9729713,15.71151,-36.37763,-24.28961,1005.869
1.863457680,1.054968,-4.29541,2.592558,0.0134032,0.02673369,0.9782681,15.71151,-36.37763,-24.28961,1005.869
1.868413925,1.851004,-5.203101,2.470233,0.01096663,0.0267176,0.9768334,15.71151,-36.37763,-24.28961,1005.869
1.868413925,1.851004,-5.203101,2.470233,0.01096663,0.0267176,0.9768334,15.71151,-36.37763,-24.28961,1005.869
1.870891571,2.218405,-5.384639,2.225583,0.01292669,0.02527157,0.978746,15.71151,-36.37763,-24.28961,1005.869
1.873369694,2.585805,-5.324126,2.40907,0.01973204,0.0267711,0.9801643,15.71151,-36.37763,-24.28961,1005.869
1.875847817,2.769506,-5.384639,2.40907,0.01337269,0.03306723,0.979749,15.71151,-36.37763,-24.28961,1005.869
1.880803585,2.340871,-5.62669,2.776045,0.01523945,0.04182084,0.9710954,15.71151,-36.37763,-24.28961,1005.869
1.880803585,2.340871,-5.62669,2.776045,0.01523945,0.04182084,0.9710954,15.71151,-36.37763,-24.28961,1005.869
1.883281708,2.034704,-5.566177,2.714883,0.01617783,0.0520677,0.9779004,15.71151,-36.37763,-24.28961,1005.867
1.885759831,1.60607,-5.263614,2.89837,0.01617622,0.05353316,0.9798387,15.71151,-36.37763,-24.28961,1005.867
1.890715599,0.8100346,-4.355923,2.714883,0.02104214,0.04720487,0.970126,15.71151,-36.37763,-24.28961,1005.867
1.890715599,0.8100346,-4.355923,2.714883,0.02104214,0.04720487,0.970126,15.71151,-36.37763,-24.28961,1005.867
1.893193722,0.5651007,-3.871821,3.081857,0.01860833,0.04816848,0.9711096,15.71151,-36.37763,-24.28961,1005.867
1.895671368,0.3814003,-3.508745,3.265345,0.0210596,0.04526186,0.9720466,15.71151,-36.37763,-24.28961,1005.867
1.898149491,0.5038673,-3.206182,3.632319,0.01571326,0.04523652,0.9730412,15.71151,-36.37763,-24.28961,1005.867
1.903105259,0.2589334,-2.540542,4.243944,0.01185971,0.04035417,0.9759331,15.71151,-36.37763,-24.28961,1005.867
1.903105259,0.2589334,-2.540542,4.243944,0.01185971,0.04035417,0.9759331,15.71151,-36.37763,-24.28961,1005.867
1.905583382,0.2589334,-2.116953,4.121619,0.01571709,0.04572813,0.9749743,15.71151,-36.37763,-24.28961,1005.867
1.908061981,-0.2921678,-1.511826,4.243944,0.01721375,0.04282937,0.9812261,16.09355,-37.10704,-24.27804,1005.867
1.910540104,-0.5371017,-0.846186,4.488594,0.0191689,0.04284646,0.9841115,16.09355,-37.10704,-24.27804,1005.867
1.915495873,-1.271903,0.4245807,4.427432,0.01227514,0.05008346,0.9711541,16.09355,-37.10704,-24.27804,1005.867
1.915495873,-1.271903,0.4245807,4.427432,0.01227514,0.05008346,0.9711541,16.09355,-37.10704,-24.27804,1005.867
1.917973995,-1.761771,0.8481696,4.427432,0.0118363,0.04571503,0.9778916,16.09355,-37.10704,-24.27804,1005.867
1.920452118,-1.884238,1.392784,4.488594,0.008429218,0.04325107,0.9730709,16.09355,-37.10704,-24.27804,1005.867
1.922929764,-1.945472,1.574322,4.794406,0.005019486,0.04567393,0.9755154,16.09355,-37.10704,-24.27804,1005.862
1.927886009,-1.700538,1.937398,4.733244,-0.0002674384,0.03591362,0.9779075,16.09355,-37.10704,-24.27804,1005.862
1.927886009,-1.700538,1.937398,4.733244,-0.0002674384,0.03591362,0.9779075,16.09355,-37.10704,-24.27804,1005.862
1.930363655,-1.39437,1.997911,4.672081,-0.001669109,0.03154718,0.9875463,16.09355,-37.10704,-24.27804,1005.862
1.932841778,-0.965736,2.058424,4.672081,0.003200675,0.02717714,0.9821877,16.09355,-37.10704,-24.27804,1005.862
1.935319901,-0.5983351,1.876886,4.610919,-0.001175181,0.02813302,0.9841473,16.09355,-37.10704,-24.27804,1005.862
1.947709561,1.238669,0.7876569,4.121619,-0.01525363,0.02563361,0.9875903,16.09355,-37.10704,-24.27804,1005.862
1.947709561,1.238669,0.7876569,4.121619,-0.01525363,0.02563361,0.9875903,16.09355,-37.10704,-24.27804,1005.862
1.950187683,1.299902,0.2430426,4.121619,-0.01180242,0.01932941,0.9909177,16.09355,-37.10704,-24.27804,1005.862
1.952665806,1.60607,-0.4225971,3.754644,-0.01084937,0.02372029,0.9923831,16.09355,-37.10704,-24.27804,1005.862
1.957621575,1.60607,-0.846186,3.448832,-0.01769452,0.02903653,0.9905173,15.71644,-36.75274,-24.72648,1005.862
1.957621575,1.60607,-0.846186,3.448832,-0.01769452,0.02903653,0.9905173,15.71644,-36.75274,-24.72648,1005.862
1.960099697,1.422369,-1.269775,3.14302,-0.01723327,0.0329321,0.9895694,15.71644,-36.75274,-24.72648,1005.862
1.962577820,1.361136,-1.572338,3.020695,-0.0172202,0.03000821,0.9885888,15.71644,-36.75274,-24.72648,1005.859
1.965056420,1.238669,-1.814389,3.14302,-0.01625029,0.02903354,0.9861653,15.71644,-36.75274,-24.72648,1005.859
1.970012188,1.361136,-2.480029,3.081857,-0.01185642,0.02662391,0.9870941,15.71644,-36.75274,-24.72648,1005.859
1.970012188,1.361136,-2.480029,3.081857,-0.01185642,0.02662391,0.9870941,15.71644,-36.75274,-24.72648,1005.859
1.972490311,1.422369,-2.480029,2.837208,-0.0157552,0.02953118,0.9895438,15.71644,-36.75274,-24.72648,1005.859
1.974967957,1.60607,-2.540542,2.837208,-0.01187277,0.02954546,0.9871092,15.71644,-36.75274,-24.72648,1005.859
1.977446079,1.544836,-2.601054,2.714883,-0.01282905,0.02808551,0.9895204,15.71644,-36.75274,-24.72648,1005.859
1.982401848,1.116202,-2.540542,2.286746,-0.01474495,0.02223,0.9885353,15.71644,-36.75274,-24.72648,1005.859
1.982401848,1.116202,-2.540542,2.286746,-0.01474495,0.02223,0.9885353,15.71644,-36.75274,-24.72648,1005.859
1.984879971,0.993735,-2.419516,2.286746,-0.01280078,0.01832827,0.9817472,15.71644,-36.75274,-24.72648,1005.859
1.987358093,1.238669,-2.601054,1.980933,-0.01381764,0.02269149,0.975983,15.71644,-36.75274,-24.72648,1005.859
1.989836216,1.361136,-2.419516,1.919771,-0.01188537,0.02709208,0.9793738,15.71644,-36.75274,-24.72648,1005.859
1.994791985,1.422369,-2.480029,1.552796,-0.01233353,0.02173926,0.9817622,15.71644,-36.75274,-24.72648,1005.859
1.994791985,1.422369,-2.480029,1.552796,-0.01233353,0.02173926,0.9817622,15.71644,-36.75274,-24.72648,1005.859
1.999747753,2.034704,-2.601054,1.063496,-0.007986609,0.02271818,0.9745032,15.71644,-36.75274,-24.72648,1005.859
1.999747753,2.034704,-2.601054,1.063496,-0.007986609,0.02271818,0.9745032,15.71644,-36.75274,-24.72648,1005.859
2.004703999,2.524572,-2.782593,1.124659,0.002190814,0.02470116,0.9672176,15.71644,-36.75274,-24.72648,1005.859
2.004703999,2.524572,-2.782593,1.124659,0.002190814,0.02470116,0.9672176,15.71644,-36.75274,-24.72648,1005.859
2.007181644,2.891973,-2.540542,1.124659,-0.003137517,0.02322207,0.9711005,16.08627,-36.75598,-25.10789,1005.859
2.012137890,3.749241,-2.419516,1.185821,0.003622597,0.03251122,0.9720765,16.08627,-36.75598,-25.10789,1005.859
2.014615536,3.871708,-2.359004,1.430471,0.007029074,0.03155264,0.9710876,16.08627,-36.75598,-25.10789,1005.859
2.017093658,3.932941,-2.116953,1.797446,0.008446654,0.03984143,0.9725705,16.08627,-36.75598,-25.10789,1005.859
2.019571781,3.994175,-1.874902,1.980933,0.002615666,0.042748,0.9788922,16.08627,-36.75598,-25.10789,1005.859
2.022050381,3.749241,-1.632851,2.042096,0.01187119,0.04036237,0.9793119,16.08627,-36.75598,-25.10789,1005.859
2.024528503,3.259373,-1.451313,2.225583,0.01039749,0.04327754,0.9798177,16.08627,-36.75598,-25.10789,1005.859
2.027006149,2.953206,-1.14875,2.225583,0.0118598,0.0462207,0.9856169,16.08627,-36.75598,-25.10789,1005.859
2.029484272,2.647039,-0.6041352,2.286746,0.007977875,0.04376243,0.9841774,16.08627,-36.75598,-25.10789,1005.859
2.031962395,2.340871,-0.1200336,2.286746,0.01088599,0.04230387,0.9788446,16.08627,-36.75598,-25.10789,1005.859
2.034440041,2.095937,0.4850934,2.286746,0.008466929,0.04327802,0.9841723,16.08627,-36.75598,-25.10789,1005.859
2.036918163,1.78977,0.9691951,2.470233,0.008512193,0.03695503,0.9870357,16.08627,-36.75598,-25.10789,1005.859
2.039396286,1.667303,1.695347,2.65372,0.01143885,0.03306536,0.9831383,16.08627,-36.75598,-25.10789,1005.859
2.041873932,1.544836,2.542525,2.714883,0.01096781,0.03209603,0.986032,16.08627,-36.75598,-25.10789,1005.859
2.044352055,1.422369,3.026627,2.776045,0.01093779,0.03451893,0.9812178,16.08627,-36.75598,-25.10789,1005.856
2.046830177,1.238669,3.571241,2.89837,0.008494157,0.03694214,0.9817262,16.08627,-36.75598,-25.10789,1005.856
2.049308300,1.054968,4.176368,3.020695,0.001732494,0.03351836,0.9899512,16.08627,-36.75598,-25.10789,1005.856
2.051785946,0.9325016,4.842008,2.837208,0.003706748,0.03159361,0.99524,16.08627,-36.75598,-25.10789,1005.856
2.054264069,0.6875677,4.963033,2.592558,0.0008067612,0.02865814,0.9957234,16.08627,-36.75598,-25.10789,1005.856
2.056742191,0.5038673,5.265597,2.592558,-0.005520438,0.0286219,0.9943099,16.08627,-36.75598,-25.10789,1005.856
2.059219837,0.5651007,5.749699,2.531395,-0.00648654,0.02862156,0.9962459,16.45751,-36.74478,-24.72926,1005.856
2.061697960,0.7488011,6.112775,2.347908,-0.008416014,0.02813394,1.000115,16.45751,-36.74478,-24.72926,1005.856
2.064176083,0.8712681,5.991749,2.40907,-0.01225596,0.01935033,1.000574,16.45751,-36.74478,-24.72926,1005.856
2.066653729,1.422369,6.052262,2.042096,-0.01226196,0.01983491,0.9996111,16.45751,-36.74478,-24.72926,1005.856
2.069131851,1.912237,5.870724,1.980933,-0.01421712,0.01981781,0.9967256,16.45751,-36.74478,-24.72926,1005.856
2.071609974,2.402105,5.568161,1.858608,-0.01957328,0.02125208,0.997245,16.45751,-36.74478,-24.72926,1005.856
2.074088097,2.708272,5.205084,1.797446,-0.02495126,0.0251151,0.9953636,16.45751,-36.74478,-24.72926,1005.856
2.076565743,3.075673,4.963033,1.675121,-0.02447089,0.02853546,0.9992399,16.45751,-36.74478,-24.72926,1005.856
2.079044342,3.443074,4.66047,1.552796,-0.02690529,0.02754317,0.9968348,16.45751,-36.74478,-24.72926,1005.856
2.081522465,3.810475,4.478932,1.308146,-0.02546699,0.03242465,0.9987827,16.45751,-36.74478,-24.72926,1005.856
2.084000587,3.994175,3.99483,1.246984,-0.0259451,0.03389463,1.00362,16.45751,-36.74478,-24.72926,1005.854
2.086478233,3.994175,3.873805,0.9411715,-0.0283707,0.03633073,1.009438,16.45751,-36.74478,-24.72926,1005.854
2.088956356,4.116642,3.692266,1.063496,-0.02739422,0.03536074,1.008945,16.45751,-36.74478,-24.72926,1005.854
2.091434479,3.749241,3.450216,1.002334,-0.02887337,0.03924976,1.009455,16.45751,-36.74478,-24.72926,1005.854
2.093912125,3.749241,3.08714,0.9411715,-0.02693566,0.04267649,1.012841,16.45751,-36.74478,-24.72926,1005.854
2.096390247,3.688008,2.905602,0.8800091,-0.02161711,0.04708181,1.010904,16.45751,-36.74478,-24.72926,1005.854
2.098868370,3.075673,2.542525,1.185821,-0.02160349,0.04464719,1.010891,16.45751,-36.74478,-24.72926,1005.854
2.101346493,2.708272,2.300474,1.246984,-0.02546247,0.04220533,1.016209,16.45751,-36.74478,-24.72926,1005.854
2.103824139,2.402105,1.997911,1.185821,-0.02158169,0.0407518,1.010871,16.45751,-36.74478,-24.72926,1005.854
2.106302261,2.095937,1.816373,1.185821,-0.02013198,0.04124159,1.008935,16.45751,-36.74478,-24.72926,1005.854
2.108780384,1.851004,1.816373,1.124659,-0.01867568,0.04466933,1.013771,16.09355,-37.10704,-24.27804,1005.854
2.113736153,0.4426338,1.816373,0.8188466,-0.0196708,0.04073726,1.000724,16.09355,-37.10704,-24.27804,1005.854
2.113736153,0.4426338,1.816373,0.8188466,-0.0196708,0.04073726,1.000724,16.09355,-37.10704,-24.27804,1005.854
2.116214275,-0.2309344,1.876886,0.8188466,-0.01190216,0.03685753,0.9905257,16.09355,-37.10704,-24.27804,1005.854
2.118691921,-0.5371017,2.118936,0.7576842,-0.01337584,0.04123932,0.9934523,16.09355,-37.10704,-24.27804,1005.854
2.121170044,-0.6595686,2.179449,0.3907094,-0.00804811,0.03929588,0.9837596,16.09355,-37.10704,-24.27804,1005.854
2.126125813,-0.8432691,2.542525,0.3295469,-0.001694766,0.03348433,0.9832123,16.09355,-37.10704,-24.27804,1005.854
2.126125813,-0.8432691,2.542525,0.3295469,-0.001694766,0.03348433,0.9832123,16.09355,-37.10704,-24.27804,1005.854
2.128603935,-0.8432691,2.603038,0.207222,0.003657605,0.03449173,0.9856016,16.09355,-37.10704,-24.27804,1005.854
2.138516426,-0.965736,3.32919,-0.3432401,0.003585069,0.04421733,0.9803424,16.09355,-37.10704,-24.27804,1005.854
2.138516426,-0.965736,3.32919,-0.3432401,0.003585069,0.04421733,0.9803424,16.09355,-37.10704,-24.27804,1005.854
2.143472672,-1.333137,3.631754,-0.4044026,0.005966487,0.04761612,0.971176,16.09355,-37.10704,-24.27804,1005.854
2.143472672,-1.333137,3.631754,-0.4044026,0.005966487,0.04761612,0.971176,16.09355,-37.10704,-24.27804,1005.854
2.145950317,-1.639304,3.631754,-0.465565,0.007875757,0.04906704,0.9629675,16.09355,-37.10704,-24.27804,1005.854
2.148428440,-1.823005,3.389703,-0.7713773,0.01130516,0.04665824,0.966315,16.09355,-37.10704,-24.27804,1005.854
2.150906563,-1.884238,3.450216,-0.8325397,0.01225104,0.04615526,0.9576191,16.09355,-37.10704,-24.27804,1005.854
2.155862331,-1.761771,4.176368,-0.7713773,0.01670054,0.0364523,0.9628543,16.09355,-37.10704,-24.27804,1005.854
2.155862331,-1.761771,4.176368,-0.7713773,0.01670054,0.0364523,0.9628543,16.09355,-37.10704,-24.27804,1005.854
2.158340454,-1.39437,4.599957,-0.8937021,0.01375963,0.03788743,0.9585338,15.34672,-36.74831,-24.28174,1005.854
2.160818577,-0.965736,4.781495,-0.9548646,0.01914251,0.03256129,0.9594422,15.34672,-36.74831,-24.28174,1005.854
2.165774345,0.2589334,5.810211,-0.7713773,0.0249305,0.04086804,0.9589706,15.34672,-36.74831,-24.28174,1005.854
2.165774345,0.2589334,5.810211,-0.7713773,0.0249305,0.04086804,0.9589706,15.34672,-36.74831,-24.28174,1005.854
2.168252468,1.116202,6.173287,-0.6490523,0.01715521,0.03887656,0.9575549,15.34672,-36.74831,-24.28174,1005.854
2.170730114,1.544836,6.717902,-0.5267274,0.01813613,0.04328734,0.9672257,15.34672,-36.74831,-24.28174,1005.854
2.173208237,1.728537,7.202003,-0.5267274,0.01912468,0.04574809,0.9759211,15.34672,-36.74831,-24.28174,1005.854
2.178164005,1.667303,7.928156,-0.465565,0.01964599,0.04626448,0.9870226,15.34672,-36.74831,-24.28174,1005.854
2.178164005,1.667303,7.928156,-0.465565,0.01964599,0.04626448,0.9870226,15.34672,-36.74831,-24.28174,1005.854
2.180642128,1.299902,8.412257,-0.465565,0.0142926,0.05014509,0.9923812,15.34672,-36.74831,-24.28174,1005.854
2.183120251,1.116202,8.714821,-0.4044026,0.01674665,0.04968481,0.9981576,15.34672,-36.74831,-24.28174,1005.854
2.185598373,0.8100346,9.259436,-0.2820776,0.01772421,0.04822673,0.9971793,15.34672,-36.74831,-24.28174,1005.854
2.190554619,0.7488011,10.0461,0.207222,0.01872966,0.0482552,1.006828,15.34672,-36.74831,-24.28174,1005.854
2.190554619,0.7488011,10.0461,0.207222,0.01872966,0.0482552,1.006828,15.34672,-36.74831,-24.28174,1005.854
2.193032742,0.3814003,10.46969,0.3295469,0.01479002,0.05993296,1.011736,15.34672,-36.74831,-24.28174,1005.854
2.195510864,-0.04723396,11.0143,0.3907094,0.02066747,0.05754846,1.019897,15.34672,-36.74831,-24.28174,1005.854
2.197988510,-0.4146348,11.55892,0.3295469,0.02555644,0.05710311,1.026626,15.34672,-36.74831,-24.28174,1005.854
2.202944756,-1.333137,12.8902,0.2683845,0.02363086,0.06150701,1.039691,15.34672,-36.74831,-24.28174,1005.854
2.202944756,-1.333137,12.8902,0.2683845,0.02363086,0.06150701,1.039691,15.34672,-36.74831,-24.28174,1005.854
2.205422401,-2.006705,13.43481,0.3907094,0.02270463,0.05909079,1.049337,15.34672,-36.74831,-24.28174,1005.851
2.207900524,-2.863973,13.79789,0.6965217,0.01978448,0.06005187,1.050323,15.34672,-36.74831,-24.28174,1005.851
2.210378647,-4.02741,14.22148,0.8800091,0.01735338,0.06052856,1.051305,15.71233,-36.36921,-23.84626,1005.851
2.215334415,-5.190845,13.97943,0.7576842,0.01346266,0.05464189,1.041642,15.71233,-36.36921,-23.84626,1005.851
2.215334415,-5.190845,13.97943,0.7576842,0.01346266,0.05464189,1.041642,15.71233,-36.36921,-23.84626,1005.851
2.217812538,-5.313313,13.43481,0.8188466,0.01056477,0.04633033,1.033892,15.71233,-36.36921,-23.84626,1005.851
2.220290661,-5.190845,13.01122,0.5741968,0.009589368,0.04534559,1.031479,15.71233,-36.36921,-23.84626,1005.851
2.222768307,-4.762211,12.4061,0.3907094,0.007711691,0.03707303,1.037722,15.71233,-36.36921,-23.84626,1005.851
2.227724552,-3.415075,10.65123,0.5741968,0.01065255,0.03270464,1.037201,15.71233,-36.36921,-23.84626,1005.851
2.227724552,-3.415075,10.65123,0.5741968,0.01065255,0.03270464,1.037201,15.71233,-36.36921,-23.84626,1005.851
2.230202198,-2.80274,9.864562,0.3907094,0.005768036,0.03853077,1.040636,15.71233,-36.36921,-23.84626,1005.851
2.232680321,-2.312872,9.077897,0.2683845,0.009664144,0.03904369,1.043031,15.71233,-36.36921,-23.84626,1005.851
2.237636089,-1.516837,7.746618,-0.09859026,0.008706195,0.03611594,1.042538,15.71233,-36.36921,-23.84626,1005.851
2.237636089,-1.516837,7.746618,-0.09859026,0.008706195,0.03611594,1.042538,15.71233,-36.36921,-23.84626,1005.851
2.240115166,-1.271903,6.838927,-0.1597527,0.01257173,0.0385625,1.039151,15.71233,-36.36921,-23.84626,1005.851
2.242592812,-1.21067,5.810211,-0.2820776,0.009703957,0.03369455,1.045899,15.71233,-36.36921,-23.84626,1005.851
2.245070934,-0.8432691,4.902521,-0.2820776,0.01162466,0.03222041,1.036228,15.71233,-36.36921,-23.84626,1005.851
2.250026703,-0.2921678,3.32919,-0.6490523,0.01259402,0.03075647,1.032836,15.71233,-36.36921,-23.84626,1005.847
2.250026703,-0.2921678,3.32919,-0.6490523,0.01259402,0.03075647,1.032836,15.71233,-36.36921,-23.84626,1005.847
2.252504826,-0.1697009,2.542525,-0.9548646,0.01746983,0.02736848,1.030861,15.71233,-36.36921,-23.84626,1005.847
2.254982948,-0.04723396,1.816373,-1.138352,0.02382483,0.02302474,1.033217,15.71233,-36.36921,-23.84626,1005.847
2.259938717,0.5038673,0.7876569,-1.260677,0.02281448,0.02445938,1.024542,16.08709,-36.74756,-24.66454,1005.847
2.259938717,0.5038673,0.7876569,-1.260677,0.02281448,0.02445938,1.024542,16.08709,-36.74756,-24.66454,1005.847
2.262416840,0.7488011,0.2430426,-1.199515,0.01935889,0.0297827,1.018314,16.08709,-36.74756,-24.66454,1005.847
2.264894486,1.054968,-0.3015717,-1.138352,0.02615002,0.03029432,1.013935,16.08709,-36.74756,-24.66454,1005.847
2.267372608,1.361136,-0.5436226,-1.260677,0.02807679,0.03273549,1.012489,16.08709,-36.74756,-24.66454,1005.847
2.272328854,1.422369,-1.209262,-1.199515,0.03290898,0.03567167,1.008134,16.08709,-36.74756,-24.66454,1005.847
2.272328854,1.422369,-1.209262,-1.199515,0.03290898,0.03567167,1.008134,16.08709,-36.74756,-24.66454,1005.847
2.274806500,1.422369,-1.269775,-1.260677,0.032433,0.03323218,1.007158,16.08709,-36.74756,-24.66454,1005.847
2.277284622,0.993735,-1.330288,-1.199515,0.03387067,0.0332245,1.000875,16.08709,-36.74756,-24.66454,1005.847
2.279762745,0.6875677,-1.572338,-1.321839,0.03194771,0.0298083,1.001834,16.08709,-36.74756,-24.66454,1005.847
2.284718514,0.7488011,-0.846186,-1.566489,0.03630606,0.02786216,0.9931116,16.08709,-36.74756,-24.66454,1005.847
2.284718514,0.7488011,-0.846186,-1.566489,0.03630606,0.02786216,0.9931116,16.08709,-36.74756,-24.66454,1005.847
2.287196636,0.6875677,-0.5436226,-1.566489,0.03920926,0.02640008,0.9863307,16.08709,-36.74756,-24.66454,1005.848
2.289674282,0.8100346,-0.4831098,-1.749977,0.04069658,0.02105029,0.9858125,16.08709,-36.74756,-24.66454,1005.848
2.294630528,1.177435,0.2430426,-1.749977,0.04260104,0.02983086,0.9882604,16.08709,-36.74756,-24.66454,1005.848
2.297109127,0.9325016,0.6666315,-1.627652,0.04307105,0.03422156,0.9906938,16.08709,-36.74756,-24.66454,1005.848
2.299587250,0.993735,1.150733,-1.505327,0.04160338,0.03811878,0.9945833,16.08709,-36.74756,-24.66454,1005.848
2.302064896,0.5038673,1.695347,-1.383002,0.0439663,0.04688194,0.9888233,16.08709,-36.74756,-24.66454,1005.848
2.304543018,0.2589334,2.118936,-1.016027,0.04300241,0.04883867,0.9946307,16.08709,-36.74756,-24.66454,1005.848
2.307021141,-0.3534013,2.360987,-0.9548646,0.0429544,0.05418195,0.9893491,16.08709,-36.74756,-24.66454,1005.848
2.309498787,-1.088203,2.784576,-0.9548646,0.03758023,0.05706995,0.9869799,16.07629,-36.00695,-24.29748,1005.848
2.311976910,-1.639304,2.784576,-0.7713773,0.03560323,0.05801498,0.9792727,16.07629,-36.00695,-24.29748,1005.848
2.314455032,-2.006705,2.966114,-0.6490523,0.03222513,0.05654948,0.9845932,16.07629,-36.00695,-24.29748,1005.848
2.316932678,-2.496573,3.026627,-0.6490523,0.03078905,0.05362507,0.9865167,16.07629,-36.00695,-24.29748,1005.848
2.329322815,-1.884238,3.873805,-0.5267274,0.0211081,0.03600796,0.9710335,16.07629,-36.00695,-24.29748,1005.844
2.331800938,-1.271903,3.752779,-0.4044026,0.0245342,0.03213017,0.9709948,16.07629,-36.00695,-24.29748,1005.844
2.334278584,-0.4758682,3.631754,-0.2820776,0.02210261,0.03505086,0.9758499,16.07629,-36.00695,-24.29748,1005.844
2.336756706,-0.1084674,3.510728,-0.465565,0.01870324,0.03650339,0.9797375,16.07629,-36.00695,-24.29748,1005.844
2.339234829,0.6263342,3.510728,-0.3432401,0.01772074,0.03649132,0.9768466,16.07629,-36.00695,-24.29748,1005.844
2.341712475,1.054968,3.32919,-0.2209152,0.01574924,0.03939577,0.9739763,16.07629,-36.00695,-24.29748,1005.844
2.344190598,1.544836,3.208165,-0.2820776,0.01430503,0.0408654,0.9807492,16.07629,-36.00695,-24.29748,1005.844
2.346668720,1.78977,3.08714,-0.1597527,0.01382087,0.03988669,0.9797815,16.07629,-36.00695,-24.29748,1005.844
2.349146366,2.034704,2.784576,-0.2820776,0.01136581,0.04523496,0.9817531,16.07629,-36.00695,-24.29748,1005.844
2.351624489,2.218405,2.724063,-0.4044026,0.006550616,0.04573304,0.996745,16.07629,-36.00695,-24.29748,1005.844
2.354103088,1.912237,2.784576,-0.4044026,0.009946146,0.0437889,0.9909243,16.07629,-36.00695,-24.29748,1005.844
2.356581211,1.973471,2.845089,-0.2820776,0.01237297,0.0496645,0.9991467,16.07629,-36.00695,-24.29748,1005.844
2.359059334,1.60607,2.845089,-0.2820776,0.01287678,0.04919064,1.003486,16.44601,-36.01139,-24.74222,1005.844
2.361536980,1.361136,2.663551,-0.2820776,0.01285382,0.04917423,0.9967282,16.44601,-36.01139,-24.74222,1005.844
2.364015102,1.422369,2.966114,-0.09859026,0.01478884,0.05455453,1.002537,16.44601,-36.01139,-24.74222,1005.844
2.366493225,1.116202,3.32919,-0.09859026,0.01724993,0.05018831,1.00395,16.44601,-36.01139,-24.74222,1005.844
2.368970871,0.993735,3.450216,0.1460596,0.01432163,0.05407681,1.007364,16.44601,-36.01139,-24.74222,1005.845
2.371448994,0.6263342,3.450216,0.2683845,0.009892821,0.05890583,1.000173,16.44601,-36.01139,-24.74222,1005.845
2.373927116,0.6263342,3.813292,0.2683845,0.0050868,0.05158851,1.004989,16.44601,-36.01139,-24.74222,1005.845
2.378882885,-0.1084674,3.99483,0.207222,0.01090693,0.05356289,1.003519,16.44601,-36.01139,-24.74222,1005.845
2.378882885,-0.1084674,3.99483,0.207222,0.01090693,0.05356289,1.003519,16.44601,-36.01139,-24.74222,1005.845
2.381361008,-0.4146348,4.055343,0.02373465,0.002657901,0.05255563,1.00742,16.44601,-36.01139,-24.74222,1005.845
2.383839130,-0.5983351,4.055343,0.02373465,-0.001240377,0.0530189,1.005996,16.44601,-36.01139,-24.74222,1005.845
2.386316776,-0.5983351,3.873805,0.1460596,0.003630006,0.05207139,1.006447,16.44601,-36.01139,-24.74222,1005.845
2.388794899,-0.5983351,3.99483,0.02373465,0.002688476,0.05062199,1.013202,16.44601,-36.01139,-24.74222,1005.845
2.391273022,-0.9045025,4.115856,0.08489711,0.004131092,0.05208446,1.010789,16.44601,-36.01139,-24.74222,1005.845
2.393750668,-1.21067,3.99483,0.1460596,0.00219889,0.05208377,1.014661,16.44601,-36.01139,-24.74222,1005.845
2.396228790,-1.21067,4.176368,-0.03742781,-0.002190614,0.05400764,1.014212,16.44601,-36.01139,-24.74222,1005.845
2.398706913,-1.516837,3.99483,0.02373465,-0.001686317,0.04962315,1.012256,16.44601,-36.01139,-24.74222,1005.845
2.401184559,-1.639304,3.873805,0.207222,0.001208196,0.05206584,1.009356,16.44601,-36.01139,-24.74222,1005.845
2.403662682,-1.700538,3.934317,0.207222,0.003626772,0.05500232,1.010324,16.44601,-36.01139,-24.74222,1005.845
2.406141281,-2.006705,3.934317,0.1460596,0.004081486,0.06035983,1.009866,16.44601,-36.01139,-24.74222,1005.845
2.408619404,-2.251639,4.115856,0.02373465,-0.003200361,0.05886482,1.011346,16.44601,-36.01139,-24.74222,1005.842
2.411097527,-2.680273,4.236881,-0.09859026,-0.004641913,0.05544762,1.010854,17.20434,-37.10351,-24.72556,1005.842
2.416053295,-3.170141,4.297394,-0.5878899,-0.006570394,0.04860538,1.004554,17.20434,-37.10351,-24.72556,1005.842
2.416053295,-3.170141,4.297394,-0.5878899,-0.006570394,0.04860538,1.004554,17.20434,-37.10351,-24.72556,1005.842
2.418531418,-3.353841,4.115856,-0.7713773,-0.005610344,0.04615704,0.9968138,17.20434,-37.10351,-24.72556,1005.842
2.421009064,-3.170141,3.99483,-0.8325397,-0.004156874,0.04273855,0.9895481,17.20434,-37.10351,-24.72556,1005.842
2.425965309,-2.61904,3.692266,-1.199515,-0.002182135,0.03690318,0.9885419,17.20434,-37.10351,-24.72556,1005.842
2.425965309,-2.61904,3.692266,-1.199515,-0.002182135,0.03690318,0.9885419,17.20434,-37.10351,-24.72556,1005.842
2.428442955,-2.251639,3.510728,-1.138352,-0.00948957,0.04174522,0.992951,17.20434,-37.10351,-24.72556,1005.842
2.430921078,-1.761771,3.026627,-1.321839,-0.0002935578,0.04322803,0.9822893,17.20434,-37.10351,-24.72556,1005.842
2.433399201,-1.02697,2.966114,-1.627652,0.003118946,0.04325151,0.9846842,17.20434,-37.10351,-24.72556,1005.842
2.438354969,0.6875677,2.784576,-1.749977,0.002595505,0.04664457,0.979395,17.20434,-37.10351,-24.72556,1005.842
2.438354969,0.6875677,2.784576,-1.749977,0.002595505,0.04664457,0.979395,17.20434,-37.10351,-24.72556,1005.842
2.440833092,1.667303,2.663551,-1.933464,0.004055556,0.04469739,0.9764809,17.20434,-37.10351,-24.72556,1005.842
2.443311215,2.279638,2.603038,-1.994627,0.003587239,0.04324113,0.979372,17.20434,-37.10351,-24.72556,1005.842
2.445788860,2.953206,2.360987,-2.178114,0.00553699,0.04716534,0.9871044,17.20434,-37.10351,-24.72556,1005.842
2.450745106,3.810475,2.179449,-1.811139,0.001583147,0.05932184,0.9886364,17.20434,-37.10351,-24.72556,1005.838
2.450745106,3.810475,2.179449,-1.811139,0.001583147,0.05932184,0.9886364,17.20434,-37.10351,-24.72556,1005.838
2.453222752,4.239109,1.937398,-2.116951,0.008835042,0.06763966,0.9896049,17.20434,-37.10351,-24.72556,1005.838
2.455700874,4.239109,1.997911,-2.055789,0.009830654,0.0676611,0.9963571,17.20434,-37.10351,-24.72556,1005.838
2.460657597,3.749241,1.876886,-2.178114,0.009797975,0.07497083,0.9988082,16.82805,-36.7408,-24.73065,1005.838
2.460657597,3.749241,1.876886,-2.178114,0.009797975,0.07497083,0.9988082,16.82805,-36.7408,-24.73065,1005.838
2.463135719,3.259373,1.816373,-2.116951,0.01271925,0.0764549,1.002179,16.82805,-36.7408,-24.73065,1005.838
2.465613365,2.708272,1.75586,-1.872301,0.01660176,0.08086907,1.007007,16.82805,-36.7408,-24.73065,1005.838
2.468091488,2.157171,1.695347,-1.688814,0.01560781,0.08231543,1.003158,16.82805,-36.7408,-24.73065,1005.838
2.473047257,1.238669,1.513809,-1.260677,0.01704883,0.08671,1.005104,16.82805,-36.7408,-24.73065,1005.838
2.473047257,1.238669,1.513809,-1.260677,0.01704883,0.08671,1.005104,16.82805,-36.7408,-24.73065,1005.838
2.475525379,0.5651007,1.453297,-1.138352,0.01606684,0.08425393,0.9983388,16.82805,-36.7408,-24.73065,1005.838
2.478003502,0.1364664,1.634835,-1.016027,0.01411721,0.08766288,1.002711,16.82805,-36.7408,-24.73065,1005.838
2.480481148,-0.2309344,1.332271,-0.8325397,0.007309612,0.08273966,0.9950002,16.82805,-36.7408,-24.73065,1005.838
2.485437393,-0.7208021,0.9691951,-0.5267274,0.01363194,0.08570564,0.9998077,16.82805,-36.7408,-24.73065,1005.838
2.485437393,-0.7208021,0.9691951,-0.5267274,0.01363194,0.08570564,0.9998077,16.82805,-36.7408,-24.73065,1005.838
2.487915039,-0.7820356,0.7876569,-0.5267274,0.01512083,0.07595713,0.9925093,16.82805,-36.7408,-24.73065,1005.838
2.490393162,-0.5983351,0.6666315,-0.2820776,0.01512243,0.07302503,0.9881501,16.82805,-36.7408,-24.73065,1005.841
2.492871285,-0.2309344,0.6061188,-0.1597527,0.01560546,0.07155856,0.9847612,16.82805,-36.7408,-24.73065,1005.841
2.497827053,0.8100346,0.5456061,-0.2209152,0.02095725,0.07061006,0.9837617,16.82805,-36.7408,-24.73065,1005.841
2.497827053,0.8100346,0.5456061,-0.2209152,0.02095725,0.07061006,0.9837617,16.82805,-36.7408,-24.73065,1005.841
2.500305176,1.116202,0.3035553,-0.1597527,0.0161234,0.06620609,0.9852135,16.82805,-36.7408,-24.73065,1005.841
2.502783299,1.544836,0.3035553,0.1460596,0.0136569,0.07447942,0.9886482,16.82805,-36.7408,-24.73065,1005.841
2.505260944,1.60607,0.1220172,0.2683845,0.01755846,0.0740185,0.9910379,16.82805,-36.7408,-24.73065,1005.841
2.510217190,2.034704,-0.3620844,0.207222,0.01216575,0.0793376,0.9872334,17.58063,-37.46622,-24.72046,1005.841
2.510217190,2.034704,-0.3620844,0.207222,0.01216575,0.0793376,0.9872334,17.58063,-37.46622,-24.72046,1005.841
2.522607803,2.034704,-1.088237,-0.09859026,0.01172196,0.07349902,0.9901019,17.58063,-37.46622,-24.72046,1005.841
2.522607803,2.034704,-1.088237,-0.09859026,0.01172196,0.07349902,0.9901019,17.58063,-37.46622,-24.72046,1005.841
2.525085449,1.78977,-1.14875,-0.2209152,0.01319187,0.07302551,0.9925048,17.58063,-37.46622,-24.72046,1005.841
2.530041695,1.238669,-0.6041352,-0.1597527,0.00986019,0.06914882,1.007466,17.58063,-37.46622,-24.72046,1005.839
2.530041695,1.238669,-0.6041352,-0.1597527,0.00986019,0.06914882,1.007466,17.58063,-37.46622,-24.72046,1005.839
2.532519341,0.8100346,-0.4831098,-0.3432401,0.009429492,0.06185297,1.011775,17.58063,-37.46622,-24.72046,1005.839
2.534997463,0.4426338,-0.241059,-0.4044026,0.008465631,0.06527633,1.020004,17.58063,-37.46622,-24.72046,1005.839
2.539953232,-0.4146348,-0.3015717,-0.7102148,0.004607121,0.0574572,1.016606,17.58063,-37.46622,-24.72046,1005.839
2.539953232,-0.4146348,-0.3015717,-0.7102148,0.004607121,0.0574572,1.016606,17.58063,-37.46622,-24.72046,1005.839
2.542431355,-0.7208021,-0.4225971,-1.016027,0.00119404,0.05547782,1.010822,17.58063,-37.46622,-24.72046,1005.839
2.544909477,-0.9045025,-0.6646479,-1.199515,-0.001694447,0.05401719,1.017105,17.58063,-37.46622,-24.72046,1005.839
2.547387600,-1.149436,-1.14875,-1.505327,-0.003148584,0.04961326,1.011298,17.58063,-37.46622,-24.72046,1005.839
2.552343369,-1.271903,-2.419516,-2.055789,-0.009927728,0.04666584,1.015182,17.58063,-37.46622,-24.72046,1005.839
2.552343369,-1.271903,-2.419516,-2.055789,-0.009927728,0.04666584,1.015182,17.58063,-37.46622,-24.72046,1005.839
2.557299137,-1.02697,-4.113872,-2.606251,0.003728199,0.04040864,1.01604,17.58063,-37.46622,-24.72046,1005.839
2.557299137,-1.02697,-4.113872,-2.606251,0.003728199,0.04040864,1.01604,17.58063,-37.46622,-24.72046,1005.839
2.559777260,-0.6595686,-4.779512,-2.789738,-0.0006929662,0.04475425,1.010295,17.57417,-37.10674,-25.10696,1005.839
2.564733029,0.2589334,-6.413355,-3.279038,-0.002169459,0.04375644,1.00354,17.57417,-37.10674,-25.10696,1005.839
2.564733029,0.2589334,-6.413355,-3.279038,-0.002169459,0.04375644,1.00354,17.57417,-37.10674,-25.10696,1005.839
2.567211628,0.5651007,-7.139507,-3.340201,-0.001173868,0.04231125,1.007871,17.57417,-37.10674,-25.10696,1005.839
2.569689751,1.054968,-7.805147,-3.523688,0.001750666,0.04233104,1.009786,17.57417,-37.10674,-25.10696,1005.837
2.574645996,1.912237,-9.43899,-4.012987,0.01143031,0.04576993,1.001545,17.57417,-37.10674,-25.10696,1005.837
2.577123642,2.524572,-10.04412,-4.196475,0.01095979,0.04382323,1.002986,17.57417,-37.10674,-25.10696,1005.837
2.579601765,2.953206,-10.58873,-4.196475,0.01387943,0.04530613,1.005874,17.57417,-37.10674,-25.10696,1005.837
2.582079888,3.565541,-11.07283,-4.318799,0.01825307,0.04239318,1.000043,17.57417,-37.10674,-25.10696,1005.837
2.584557533,4.055408,-11.25437,-4.257637,0.02404489,0.05119154,1.001504,17.57417,-37.10674,-25.10696,1005.837
2.587035656,4.60651,-11.49642,-4.07415,0.02892405,0.05220579,1.007757,17.57417,-37.10674,-25.10696,1005.837
2.589513779,4.912677,-11.43591,-4.012987,0.02209967,0.057048,1.011198,17.57417,-37.10674,-25.10696,1005.837
2.591991425,4.728976,-11.43591,-3.523688,0.02549748,0.06146083,1.016512,17.57417,-37.10674,-25.10696,1005.837
2.594469547,4.300342,-11.07283,-3.523688,0.02598984,0.0624454,1.019893,17.57417,-37.10674,-25.10696,1005.837
2.596947670,3.871708,-10.70976,-3.462525,0.02637906,0.07362257,1.009812,17.57417,-37.10674,-25.10696,1005.837
2.599425316,3.320607,-10.10463,-3.401363,0.02540652,0.0809507,1.021922,17.57417,-37.10674,-25.10696,1005.837
2.601903439,2.708272,-9.43899,-3.340201,0.0312206,0.0804764,1.014648,17.57417,-37.10674,-25.10696,1005.837
2.604381561,2.402105,-8.652325,-3.095551,0.03508555,0.08096705,1.007871,17.57417,-37.10674,-25.10696,1005.837
2.606859684,2.157171,-7.805147,-2.728576,0.0350774,0.08389446,1.0103,17.57417,-37.10674,-25.10696,1005.837
2.609337330,1.78977,-7.018482,-2.361601,0.03558226,0.07999924,1.009312,17.57417,-37.10674,-25.10696,1005.837
2.611815453,1.361136,-6.231817,-1.811139,0.03652272,0.08340336,1.005463,17.56842,-36.74005,-25.11344,1005.84
2.614293575,1.361136,-5.021563,-1.138352,0.03116107,0.08287822,1.001145,17.56842,-36.74005,-25.11344,1005.84
2.616772175,1.483603,-4.29541,-0.7102148,0.02923321,0.08092514,1.003076,17.56842,-36.74005,-25.11344,1005.84
2.619249821,1.544836,-3.508745,-0.2209152,0.02242247,0.08479936,1.008926,17.56842,-36.74005,-25.11344,1005.84
2.621727944,1.483603,-2.540542,0.6965217,0.01998757,0.08625107,1.010395,17.56842,-36.74005,-25.11344,1005.84
2.624206066,1.60607,-1.995928,1.185821,0.015091,0.09011309,1.007062,17.56842,-36.74005,-25.11344,1005.84
2.626683712,1.667303,-1.632851,1.797446,0.006374731,0.08716147,1.01337,17.56842,-36.74005,-25.11344,1005.84
2.629161835,1.667303,-1.3908,2.225583,0.001516865,0.08469582,1.01097,17.56842,-36.74005,-25.11344,1005.84
2.631639958,1.544836,-1.14875,2.531395,-0.0003979227,0.07981885,1.011921,17.56842,-36.74005,-25.11344,1005.84
2.634118080,1.422369,-0.846186,3.14302,-0.004739415,0.07639944,1.016754,17.56842,-36.74005,-25.11344,1005.84
2.639073849,0.8712681,-0.3620844,4.060457,-0.01787689,0.07486018,1.012474,17.56842,-36.74005,-25.11344,1005.84
2.639073849,0.8712681,-0.3620844,4.060457,-0.01787689,0.07486018,1.012474,17.56842,-36.74005,-25.11344,1005.84
2.641551972,0.7488011,0.0009917939,4.305107,-0.01879609,0.06853801,1.017756,17.56842,-36.74005,-25.11344,1005.84
2.644029617,0.6263342,0.4245807,4.672081,-0.02023106,0.06659213,1.021615,17.56842,-36.74005,-25.11344,1005.84
2.646507740,0.3814003,0.6061188,4.977894,-0.02312504,0.06317207,1.023062,17.56842,-36.74005,-25.11344,1005.84
2.648985863,0.3201669,0.9086823,5.344869,-0.02891629,0.05632961,1.024989,17.56842,-36.74005,-25.11344,1005.84
2.651463509,-0.04723396,1.453297,5.589519,-0.03133925,0.05241226,1.021121,17.56842,-36.74005,-25.11344,1005.838
2.653941631,-0.4146348,1.816373,5.773006,-0.03860636,0.04946116,1.024524,17.56842,-36.74005,-25.11344,1005.838
2.656419754,-0.5371017,1.876886,6.201143,-0.04686479,0.04160297,1.014393,17.56842,-36.74005,-25.11344,1005.838
2.663853645,-0.965736,2.239962,6.201143,-0.05167848,0.03330243,1.015342,17.20363,-37.11073,-25.10557,1005.838
2.666331768,-1.21067,2.239962,6.262305,-0.05653039,0.02741893,1.009063,17.20363,-37.11073,-25.10557,1005.838
2.668810368,-1.39437,2.239962,6.262305,-0.06082124,0.0123028,1.009492,17.20363,-37.11073,-25.10557,1005.838
2.671288014,-1.700538,1.997911,5.89533,-0.06420538,0.00838861,1.009007,17.20363,-37.11073,-25.10557,1005.838
2.673766136,-1.639304,1.937398,5.89533,-0.06318209,-0.004769723,1.002177,17.20363,-37.11073,-25.10557,1005.838
2.678721905,-1.578071,1.997911,5.589519,-0.06898263,-0.01112994,1.002176,17.20363,-37.11073,-25.10557,1005.838
2.678721905,-1.578071,1.997911,5.589519,-0.06898263,-0.01112994,1.002176,17.20363,-37.11073,-25.10557,1005.838
2.681200028,-1.39437,2.118936,5.222544,-0.07093238,-0.01505416,0.9944437,17.20363,-37.11073,-25.10557,1005.838
2.683678150,-1.271903,2.118936,5.100219,-0.07288048,-0.0189772,0.9871939,17.20363,-37.11073,-25.10557,1005.838
2.688633919,-0.5371017,2.542525,3.754644,-0.0747719,-0.03214829,0.9813445,17.20363,-37.11073,-25.10557,1005.838
2.688633919,-0.5371017,2.542525,3.754644,-0.0747719,-0.03214829,0.9813445,17.20363,-37.11073,-25.10557,1005.838
2.691112042,0.4426338,2.784576,3.326507,-0.07229935,-0.03797294,0.9837145,17.20363,-37.11073,-25.10557,1005.836
2.693590164,1.177435,3.08714,3.020695,-0.07132013,-0.03796322,0.9856399,17.20363,-37.11073,-25.10557,1005.836
2.696067810,1.78977,3.32919,2.40907,-0.07082672,-0.03893338,0.9861149,17.20363,-37.11073,-25.10557,1005.836
2.701024056,2.953206,3.692266,1.491634,-0.07032998,-0.03696793,0.992397,17.20363,-37.11073,-25.10557,1005.836
2.701024056,2.953206,3.692266,1.491634,-0.07032998,-0.03696793,0.992397,17.20363,-37.11073,-25.10557,1005.836
2.703501702,3.259373,4.176368,0.8188466,-0.06742068,-0.03304806,0.9962627,17.20363,-37.11073,-25.10557,1005.836
2.705979824,3.688008,4.357906,0.1460596,-0.06596437,-0.02962032,1.001099,17.20363,-37.11073,-25.10557,1005.836
2.708457947,3.994175,4.539444,-0.09859026,-0.0639983,-0.03008428,1.006395,17.20363,-37.11073,-25.10557,1005.836
2.720847607,3.994175,6.2338,-2.545089,-0.06018113,-0.009584026,1.018547,17.1872,-36.00222,-24.68166,1005.836
2.723325730,3.932941,6.2338,-3.095551,-0.05529652,-0.009543625,1.024795,17.1872,-36.00222,-24.68166,1005.836
2.725804329,3.994175,6.294313,-3.58485,-0.05675167,-0.009059563,1.026736,17.1872,-36.00222,-24.68166,1005.836
2.728282452,3.994175,6.536364,-4.196475,-0.05919098,-0.01005537,1.022883,17.1872,-36.00222,-24.68166,1005.836
2.730760098,4.055408,6.415338,-4.502287,-0.05432763,-0.005630305,1.030119,17.1872,-36.00222,-24.68166,1005.836
2.735716343,4.484043,5.991749,-5.358562,-0.05245699,0.006548188,1.028241,17.1872,-36.00222,-24.68166,1005.838
2.735716343,4.484043,5.991749,-5.358562,-0.05245699,0.006548188,1.028241,17.1872,-36.00222,-24.68166,1005.838
2.738193989,4.667743,5.810211,-5.664374,-0.04860448,0.0148519,1.030676,17.1872,-36.00222,-24.68166,1005.838
2.740672112,4.851443,5.507648,-6.031348,-0.05200438,0.01728179,1.036016,17.1872,-36.00222,-24.68166,1005.838
2.745628357,5.035144,4.478932,-6.58181,-0.05009827,0.02606353,1.038947,17.1872,-36.00222,-24.68166,1005.838
2.745628357,5.035144,4.478932,-6.58181,-0.05009827,0.02606353,1.038947,17.1872,-36.00222,-24.68166,1005.838
2.748106003,4.728976,3.934317,-6.642973,-0.0525741,0.03188584,1.035612,17.1872,-36.00222,-24.68166,1005.838
2.750584126,4.728976,3.32919,-6.704135,-0.04866702,0.03485096,1.045259,17.1872,-36.00222,-24.68166,1005.838
2.755539894,4.484043,2.118936,-6.948785,-0.04535107,0.04653836,1.038544,17.1872,-36.00222,-24.68166,1005.838
2.755539894,4.484043,2.118936,-6.948785,-0.04535107,0.04653836,1.038544,17.1872,-36.00222,-24.68166,1005.838
2.758018017,4.239109,1.634835,-7.07111,-0.04050628,0.0519279,1.041924,17.1872,-36.00222,-24.68166,1005.838
2.760496140,4.055408,1.029708,-7.254598,-0.04296026,0.05678808,1.04341,17.55762,-35.99944,-24.74638,1005.838
2.762973786,3.688008,0.364068,-7.31576,-0.03761613,0.05485635,1.038544,17.55762,-35.99944,-24.74638,1005.838
2.767930031,3.565541,-0.4831098,-7.682735,-0.03425325,0.06168856,1.037595,17.55762,-35.99944,-24.74638,1005.838
2.767930031,3.565541,-0.4831098,-7.682735,-0.03425325,0.06168856,1.037595,17.55762,-35.99944,-24.74638,1005.838
2.770407677,3.504307,-1.027724,-7.621572,-0.02893095,0.0621856,1.030329,17.55762,-35.99944,-24.74638,1005.838
2.772885800,3.19814,-1.3908,-7.621572,-0.03086971,0.06218021,1.03227,17.55762,-35.99944,-24.74638,1005.838
2.775364399,3.19814,-1.632851,-7.80506,-0.02502667,0.06123774,1.032716,17.55762,-35.99944,-24.74638,1005.838
2.780320645,2.708272,-1.935415,-7.682735,-0.02165501,0.07003172,1.037569,17.55762,-35.99944,-24.74638,1005.838
2.780320645,2.708272,-1.935415,-7.682735,-0.02165501,0.07003172,1.037569,17.55762,-35.99944,-24.74638,1005.838
2.782798290,2.585805,-1.874902,-7.80506,-0.02116651,0.06905805,1.036596,17.55762,-35.99944,-24.74638,1005.838
2.785276413,2.891973,-1.814389,-7.80506,-0.01877747,0.0705068,1.026454,17.55762,-35.99944,-24.74638,1005.838
2.787754536,2.708272,-1.874902,-7.743897,-0.01682015,0.0695477,1.028369,17.55762,-35.99944,-24.74638,1005.838
2.792710304,2.585805,-1.935415,-7.31576,-0.01149995,0.07542083,1.029336,17.55762,-35.99944,-24.74638,1005.838
2.792710304,2.585805,-1.935415,-7.31576,-0.01149995,0.07542083,1.029336,17.55762,-35.99944,-24.74638,1005.838
2.795188427,2.340871,-2.116953,-7.009948,-0.01539333,0.07442098,1.026939,17.55762,-35.99944,-24.74638,1005.838
2.797666550,2.157171,-2.419516,-6.642973,-0.01834297,0.07682762,1.021658,17.55762,-35.99944,-24.74638,1005.838
2.802622318,2.034704,-2.298491,-6.153673,-0.017832,0.07978097,1.033737,17.55762,-35.99944,-24.74638,1005.838
2.802622318,2.034704,-2.298491,-6.153673,-0.017832,0.07978097,1.033737,17.55762,-35.99944,-24.74638,1005.838
2.805100441,1.973471,-2.237978,-5.970186,-0.01638996,0.07928754,1.027934,17.55762,-35.99944,-24.74638,1005.838
2.807578087,1.667303,-2.419516,-5.603211,-0.01490957,0.08517685,1.043885,17.55762,-35.99944,-24.74638,1005.838
2.810056210,0.9325016,-2.661567,-5.052749,-0.01683579,0.08322494,1.046299,17.55762,-35.99944,-24.74638,1005.838
2.815011978,-0.4146348,-3.38772,-4.441124,-0.02271539,0.08805227,1.041529,17.55692,-36.00666,-25.1264,1005.835
2.815011978,-0.4146348,-3.38772,-4.441124,-0.02271539,0.08805227,1.041529,17.55692,-36.00666,-25.1264,1005.835
2.817490101,-1.21067,-3.871821,-3.951825,-0.02564805,0.09242652,1.044464,17.55692,-36.00666,-25.1264,1005.835
2.819968224,-1.823005,-4.476948,-3.646013,-0.02955178,0.09386364,1.043044,17.55692,-36.00666,-25.1264,1005.835
2.822445870,-2.251639,-4.779512,-3.58485,-0.03053813,0.09189334,1.0358,17.55692,-36.00666,-25.1264,1005.835
2.827402592,-3.476308,-6.292329,-2.789738,-0.03052238,0.08554926,1.029975,17.55692,-36.00666,-25.1264,1005.835
2.827402592,-3.476308,-6.292329,-2.789738,-0.03052238,0.08554926,1.029975,17.55692,-36.00666,-25.1264,1005.835
2.829880715,-3.782475,-6.897457,-2.483926,-0.03246336,0.0835868,1.028044,17.55692,-36.00666,-25.1264,1005.835
2.832358837,-3.721242,-7.20002,-2.239276,-0.03445888,0.08842957,1.021323,17.55692,-36.00666,-25.1264,1005.835
2.834836483,-3.721242,-7.926172,-1.933464,-0.03056233,0.0820986,1.012581,17.55692,-36.00666,-25.1264,1005.835
2.839792729,-2.80274,-8.591812,-1.383002,-0.0325421,0.08059729,1.000034,17.55692,-36.00666,-25.1264,1005.835
2.839792729,-2.80274,-8.591812,-1.383002,-0.0325421,0.08059729,1.000034,17.55692,-36.00666,-25.1264,1005.835
2.842270374,-2.129172,-8.833863,-1.07719,-0.03398638,0.07766703,0.9995443,17.55692,-36.00666,-25.1264,1005.835
2.844748497,-1.578071,-9.015401,-0.7713773,-0.03352185,0.08156493,0.9995618,17.55692,-36.00666,-25.1264,1005.835
2.849704266,-0.6595686,-9.560016,0.207222,-0.03455778,0.08933663,0.9938152,17.55692,-36.00666,-25.1264,1005.835
2.849704266,-0.6595686,-9.560016,0.207222,-0.03455778,0.08933663,0.9938152,17.55692,-36.00666,-25.1264,1005.835
2.854660511,-0.1084674,-9.923092,0.7576842,-0.03896803,0.09320117,0.9904805,17.55692,-36.00666,-25.1264,1005.837
2.854660511,-0.1084674,-9.923092,0.7576842,-0.03896803,0.09320117,0.9904805,17.55692,-36.00666,-25.1264,1005.837
2.859616280,-0.4146348,-10.04412,1.185821,-0.03558009,0.0946737,0.9880561,17.55692,-36.00666,-25.1264,1005.837
2.862094403,-0.6595686,-10.16514,1.552796,-0.03460198,0.09370489,0.9880458,18.66924,-35.98749,-24.75055,1005.837
2.864572525,-0.8432691,-9.983604,1.919771,-0.03606157,0.09027481,0.9822441,18.66924,-35.98749,-24.75055,1005.837
2.867050171,-1.02697,-9.741553,2.225583,-0.03363374,0.09126242,0.9827185,18.66924,-35.98749,-24.75055,1005.837
2.869528294,-1.39437,-9.43899,2.470233,-0.02972781,0.09031573,0.9855883,18.66924,-35.98749,-24.75055,1005.837
2.872006893,-1.700538,-9.196939,2.959532,-0.03168955,0.08882731,0.9783513,18.66924,-35.98749,-24.75055,1005.837
2.874484062,-1.823005,-8.894376,3.204182,-0.03072724,0.09126931,0.9793239,18.66924,-35.98749,-24.75055,1005.837
2.876962185,-2.190405,-8.470787,3.693482,-0.0312141,0.09224416,0.9807795,18.66924,-35.98749,-24.75055,1005.837
2.879440785,-2.435339,-8.107711,4.060457,-0.03365341,0.09124836,0.9769264,18.66924,-35.98749,-24.75055,1005.837
2.881918907,-3.231374,-7.744634,4.182782,-0.03705779,0.08683084,0.9696822,18.66924,-35.98749,-24.75055,1005.837
2.884397030,-3.966176,-7.139507,4.549757,-0.03366325,0.09124132,0.9740304,18.66924,-35.98749,-24.75055,1005.837
2.886874676,-4.578511,-6.594893,4.733244,-0.03317477,0.08880101,0.9706364,18.66924,-35.98749,-24.75055,1005.837
2.889352799,-5.129612,-5.929253,4.916731,-0.03513538,0.08975776,0.967756,18.66924,-35.98749,-24.75055,1005.837
2.891830921,-5.925647,-5.445152,5.283706,-0.03463868,0.08878995,0.9691963,18.66924,-35.98749,-24.75055,1005.837
2.894308567,-6.293048,-4.658486,5.222544,-0.03707633,0.08926194,0.9682467,18.66924,-35.98749,-24.75055,1005.835
2.896786690,-6.782916,-4.29541,5.222544,-0.0341497,0.08390564,0.9619284,18.66924,-35.98749,-24.75055,1005.835
2.899264813,-6.966616,-3.690283,5.222544,-0.03801091,0.07804006,0.960954,18.66924,-35.98749,-24.75055,1005.835
2.906698704,-7.272783,-2.540542,5.039056,-0.04673712,0.06774826,0.9522608,18.66924,-35.98749,-24.75055,1005.835
2.909176827,-7.272783,-1.995928,4.916731,-0.04820382,0.06382421,0.9435604,18.66924,-35.98749,-24.75055,1005.835
2.911654473,-7.39525,-1.814389,4.977894,-0.04869068,0.06479907,0.9450161,18.66113,-35.64485,-26.02375,1005.835
2.914132595,-6.966616,-1.753877,4.733244,-0.04725952,0.06771996,0.9416445,18.66113,-35.64485,-26.02375,1005.835
2.916610718,-6.844149,-1.451313,4.549757,-0.04580658,0.06527882,0.9358319,18.66113,-35.64485,-26.02375,1005.835
2.919088364,-6.354281,-1.3908,4.549757,-0.04382963,0.06140052,0.9386972,18.66113,-35.64485,-26.02375,1005.835
2.921566487,-5.864414,-1.14875,4.488594,-0.03996301,0.06335898,0.9348247,18.66113,-35.64485,-26.02375,1005.835
2.924044609,-5.43578,-0.9672114,4.427432,-0.03998537,0.06676511,0.9338769,18.66113,-35.64485,-26.02375,1005.835
2.926522255,-4.639744,-0.7251607,4.488594,-0.03268497,0.06582902,0.9338322,18.66113,-35.64485,-26.02375,1005.835
2.929000378,-4.088643,-0.6041352,4.610919,-0.03126799,0.07069527,0.9295053,18.66113,-35.64485,-26.02375,1005.835
2.931478977,-3.660008,-0.7251607,4.733244,-0.03223795,0.06873667,0.9270872,18.66113,-35.64485,-26.02375,1005.835
2.933957100,-3.108907,-0.6646479,4.733244,-0.0312609,0.06972259,0.929983,18.66113,-35.64485,-26.02375,1005.834
2.936435223,-2.925207,-0.7251607,4.855569,-0.03127668,0.07460005,0.9333869,18.66113,-35.64485,-26.02375,1005.834
2.938912869,-2.741507,-1.027724,4.977894,-0.02839417,0.07801189,0.9285618,18.66113,-35.64485,-26.02375,1005.834
2.941390991,-2.741507,-1.14875,5.222544,-0.02694495,0.08241232,0.9329206,18.66113,-35.64485,-26.02375,1005.834
2.943869114,-2.863973,-1.269775,5.283706,-0.02209256,0.08438518,0.9329042,18.66113,-35.64485,-26.02375,1005.834
