Time (s),Gyroscope X (deg/s),Gyroscope Y (deg/s),Gyroscope Z (deg/s),Accelerometer X (g),Accelerometer Y (g),Accelerometer Z (g),Magnetometer X (uT),Magnetometer Y (uT),Magnetometer Z (uT),Barometer (hPa)
0.000000000,-3.047674,2.058424,11.95041,0.1113003,-0.07790816,0.9897444,-18.31586,33.53114,-29.71623,1000.375
0.012386322,-2.312872,0.6666315,11.82809,0.1098298,-0.08085717,0.9815318,-18.3209,33.90505,-29.34269,1000.372
0.032204151,1.299902,-1.632851,12.37855,0.1030464,-0.07745229,0.9946188,-18.3209,33.90505,-29.34269,1000.372
0.052021980,0.6875677,-2.177466,10.78833,0.1147374,-0.07933373,0.9969585,-18.3209,33.90505,-29.34269,1000.37
0.071839809,-1.088203,0.2430426,10.1767,0.1176351,-0.07982196,0.9901826,-17.5864,34.27129,-29.7953,1000.37
0.091658592,-2.435339,0.7271442,8.402991,0.1239202,-0.08666009,0.96791,-17.5864,34.27129,-29.7953,1000.373
0.111476421,-1.21067,0.9086823,8.464154,0.1233999,-0.08913121,0.9539024,-16.85025,34.65437,-29.36121,1000.373
0.131294251,1.78977,-1.14875,9.442753,0.1293258,-0.1022363,0.9586295,-16.85025,34.65437,-29.36121,1000.372
0.151112080,5.157611,0.6061188,9.014616,0.1211043,-0.08904654,0.9939777,-16.85025,34.65437,-29.36121,1000.372
0.170929909,0.993735,1.997911,6.568118,0.1026429,-0.09108401,0.9964817,-17.22654,35.01709,-29.3663,1000.375
0.242770195,-5.374546,6.959952,-6.948785,0.1115268,-0.1324999,0.9662943,-16.86009,35.33386,-28.99307,1000.375
0.250201702,-4.39481,6.717902,-8.477847,0.1130376,-0.141744,0.9662385,-16.86009,35.33386,-28.99307,1000.374
0.272496700,0.3201669,4.478932,-12.63689,0.1115877,-0.1525002,0.9512282,-16.18148,35.33395,-29.37563,1000.374
0.292315006,0.993735,4.720983,-17.59105,0.1247295,-0.1587798,0.9438838,-16.18148,35.33395,-29.37563,1000.375
0.312132835,2.769506,7.625592,-22.11707,0.1174678,-0.1612381,0.9497031,-16.8608,35.32665,-29.37309,1000.375
0.331950665,-1.02697,7.988668,-29.88471,0.1253052,-0.1709352,0.9500932,-16.8608,35.32665,-29.37309,1000.374
0.351768494,-4.578511,12.95071,-32.27004,0.1316999,-0.1894279,0.9407922,-16.8608,35.32665,-29.37309,1000.374
0.371587277,-8.068818,13.67686,-35.57281,0.1211687,-0.208918,0.9581262,-17.21504,34.2837,-29.35334,1000.375
0.391405106,-7.578951,10.40918,-42.78999,0.1140646,-0.2357073,0.9700944,-17.21504,34.2837,-29.35334,1000.375
0.411222935,-3.231374,11.49841,-46.76554,0.1345618,-0.2507057,0.9660438,-18.32665,34.27175,-29.34917,1000.375
0.431040764,-5.497013,12.58763,-52.82063,0.1398254,-0.2326512,0.9704518,-18.32665,34.27175,-29.34917,1000.375
0.450859070,-12.7838,18.27583,-59.85431,0.1515681,-0.2452509,0.9703228,-18.32665,34.27175,-29.34917,1000.376
0.470676899,-12.84503,20.81736,-62.60662,0.1661749,-0.2476076,0.9711961,-19.05705,33.52197,-29.77679,1000.376
0.490494728,-9.967056,21.90659,-65.84823,0.1745103,-0.2440943,0.9967504,-19.05705,33.52197,-29.77679,1000.375
0.510312557,-13.57983,24.38761,-68.35589,0.1695985,-0.2348655,0.9977902,-19.05705,33.52197,-29.77679,1000.375
0.532607556,-14.4371,23.47992,-72.20913,0.1439949,-0.2568754,1.012298,-20.83495,32.78496,-28.93375,1000.377
0.552425861,-9.967056,20.63582,-73.49354,0.1148,-0.2472598,1.024091,-20.83495,32.78496,-28.93375,1000.377
0.572243691,-7.21155,17.61019,-75.26725,0.1295079,-0.2456332,1.061185,-21.94234,32.39068,-29.74648,1000.378
0.592061520,-3.537542,16.94455,-76.73515,0.1346572,-0.2345047,1.020669,-21.94234,32.39068,-29.74648,1000.378
0.611879349,0.8100346,11.0143,-75.94003,0.136321,-0.234207,0.9386063,-22.97508,31.34885,-29.28083,1000.379
0.631698132,5.831179,3.692266,-73.98284,0.1435513,-0.2102607,0.9589621,-22.97508,31.34885,-29.28083,1000.379
0.651515961,1.60607,2.966114,-73.92168,0.1673419,-0.1871886,0.985015,-22.97508,31.34885,-29.28083,1000.378
0.671333790,-5.374546,7.56508,-72.75959,0.1391098,-0.1805083,0.9890652,-25.17613,29.84975,-29.68993,1000.378
0.691151619,-7.150316,6.959952,-72.51494,0.1319315,-0.1975732,0.9952917,-25.17613,29.84975,-29.68993,1000.377
0.710969925,-5.61948,7.080978,-72.02564,0.1328398,-0.1907699,0.9875989,-25.17613,29.84975,-29.68993,1000.377
0.730787754,-2.61904,5.326109,-70.06844,0.1318207,-0.1868971,0.9803842,-27.67952,28.0586,-29.20577,1000.377
0.750605583,-2.61904,3.934317,-69.51797,0.1278655,-0.1933188,0.9509295,-27.67952,28.0586,-29.20577,1000.377
0.770423413,-0.6595686,5.628673,-67.1938,0.1302411,-0.1762357,0.9625885,-28.77317,26.95378,-28.80215,1000.376
0.790241718,0.5038673,6.173287,-65.17545,0.1340802,-0.1899409,0.9248482,-28.77317,26.95378,-28.80215,1000.376
0.812536717,6.076113,2.905602,-61.62802,0.1200439,-0.1855659,0.9519774,-28.77317,26.95378,-28.80215,1000.377
0.832354546,8.647919,6.717902,-57.65246,0.134556,-0.1615912,0.9684322,-30.15498,24.42554,-29.13257,1000.377
0.852172375,3.38184,7.323029,-54.77783,0.1194302,-0.1548605,0.9651709,-30.15498,24.42554,-29.13257,1000.372
0.871991158,1.361136,8.170207,-55.08364,0.1306665,-0.1576996,0.9752309,-31.61412,22.94283,-29.10109,1000.372
0.891808987,4.300342,9.13841,-51.47506,0.1382507,-0.1450895,0.938088,-31.61412,22.94283,-29.10109,1000.372
0.911626816,2.034704,6.173287,-48.47809,0.1444669,-0.147577,0.9028057,-31.61412,22.94283,-29.10109,1000.372
0.931444645,0.8100346,4.781495,-44.99183,0.1403075,-0.1435331,0.9733203,-32.61975,20.05068,-29.48975,1000.373
0.951262951,-2.067938,8.956872,-43.89091,0.1472266,-0.1385302,1.013853,-32.61975,20.05068,-29.48975,1000.373
0.971080780,-10.08952,15.37122,-45.90927,0.1374027,-0.1406056,0.9820395,-34.09207,19.35526,-29.85234,1000.374
0.990898609,-11.19173,14.52404,-45.11416,0.1758939,-0.1672439,0.9585233,-34.09207,19.35526,-29.85234,1000.374
1.010716438,-3.721242,10.77225,-41.75023,0.1641561,-0.1546407,0.9601004,-34.09207,19.35526,-29.85234,1000.372
1.030534744,0.8100346,8.593796,-42.91231,0.1669979,-0.1321919,0.9746805,-34.44536,18.25119,-29.83151,1000.372
1.050352573,-8.558686,16.7025,-44.99183,0.1936959,-0.1228008,0.9750652,-34.44536,18.25119,-29.83151,1000.373
1.072647572,-18.29481,19.66762,-46.76554,0.1957445,-0.1574268,0.9483289,-34.78963,16.45921,-30.62217,1000.373
1.092465401,-22.70362,20.27275,-48.11112,0.1768342,-0.1785061,0.930465,-34.78963,16.45921,-30.62217,1000.375
1.112284184,-13.82476,9.683024,-47.98879,0.1823654,-0.2394576,0.8833019,-34.78963,16.45921,-30.62217,1000.375
1.132102013,17.09814,4.781495,-44.62486,0.1545051,-0.2198008,1.01774,-35.45099,15.35904,-30.22017,1000.378
1.151919842,6.504747,3.08714,-46.64322,0.1747856,-0.181667,1.037615,-35.45099,15.35904,-30.22017,1000.378
1.171738148,5.831179,6.052262,-43.89091,0.1399046,-0.1959292,1.054143,-35.0632,14.26293,-30.20212,1000.374
1.191555977,2.463338,5.628673,-44.68602,0.1169769,-0.1814315,1.057722,-35.0632,14.26293,-30.20212,1000.374
1.211373806,16.8532,-3.690283,-48.53926,0.1356198,-0.2115299,1.055535,-35.0632,14.26293,-30.20212,1000.373
1.231191635,-7.762651,13.79789,-44.80835,0.07776394,-0.1049552,0.9516575,-36.51756,12.47464,-30.16525,1000.373
1.251009941,9.199019,3.631754,-44.38021,0.07014936,-0.2155053,0.9612677,-36.51756,12.47464,-30.16525,1000.375
1.270827770,27.32413,-2.237978,-45.60346,0.04324998,-0.1727311,0.9876992,-36.86075,10.62275,-30.89149,1000.375
1.290645599,27.9977,-7.805147,-45.84811,0.04756782,-0.1439072,1.01775,-36.86075,10.62275,-30.89149,1000.375
1.310464382,25.91576,-13.49334,-47.07136,0.06991176,-0.135989,1.022495,-36.86075,10.62275,-30.89149,1000.375
1.330282211,12.75056,-14.88513,-47.37717,0.05118135,-0.0746653,1.050425,-37.56687,8.490162,-30.09088,1000.375
1.352577210,-23.68335,-9.196939,-51.29156,0.05124476,-0.07364223,1.070702,-37.56687,8.490162,-30.09088,1000.378
1.372395039,-38.93048,2.966114,-49.82367,0.0657556,-0.06091255,1.068275,-38.58235,6.348239,-29.60579,1000.374
1.392213345,-45.9111,4.176368,-46.58206,0.08172168,-0.0775103,1.016456,-38.58235,6.348239,-29.60579,1000.374
1.412031174,-30.60273,3.450216,-42.42301,0.06230532,-0.1000728,0.9903815,-38.58235,6.348239,-29.60579,1000.377
1.431849003,-25.33666,1.271759,-37.83583,0.02625127,-0.1061724,0.9615869,-38.92988,4.877476,-29.57849,1000.377
1.451667309,-16.21287,-4.05336,-33.37097,0.005034939,-0.1305966,0.9750925,-38.92988,4.877476,-29.57849,1000.378
1.471485138,-12.60009,-3.690283,-33.49329,0.0007913134,-0.1315017,1.01276,-39.27767,3.475045,-29.17224,1000.378
1.491302967,-15.9067,0.7271442,-33.00399,-0.02837485,-0.135554,1.010485,-39.27767,3.475045,-29.17224,1000.376
1.511120796,-22.88732,7.504567,-36.2456,-0.05163053,-0.1620109,0.9931005,-39.27767,3.475045,-29.17224,1000.376
1.530939579,-13.08996,11.86148,-37.89699,-0.05377734,-0.150432,0.9531094,-38.51852,2.391345,-28.71222,1000.376
1.550757408,-1.455604,2.784576,-44.50253,-0.006626247,-0.1443378,0.9557787,-38.51852,2.391345,-28.71222,1000.376
1.570575237,-1.02697,2.542525,-47.13252,0.01424095,-0.1188403,0.9842734,-38.87358,1.339972,-29.13583,1000.376
1.590393543,-13.57983,8.775333,-53.79923,-0.0004120723,-0.1023393,0.9931266,-38.87358,1.339972,-29.13583,1000.379
1.610211373,-18.35604,12.22456,-60.46593,-0.005148252,-0.1521386,0.9484904,-38.87358,1.339972,-29.13583,1000.379
1.632506371,-14.6208,16.82352,-60.58826,0.03476461,-0.1538635,0.9550205,-39.21032,-0.8713989,-29.47558,1000.375
1.652325154,-11.49789,20.87787,-55.38945,0.07106591,-0.1635761,0.8876796,-39.21032,-0.8713989,-29.47558,1000.378
1.672142983,-5.129612,16.33942,-51.16924,0.07882386,-0.1523084,0.8992793,-38.44145,-2.635794,-29.44703,1000.378
1.691960812,-6.721682,13.01122,-47.25484,0.09896021,-0.1461981,0.9667754,-38.44145,-2.635794,-29.44703,1000.374
1.711778164,-18.17234,18.33634,-45.97043,0.08067402,-0.1613099,0.9991373,-38.44145,-2.635794,-29.44703,1000.374
1.731596947,-22.76485,22.02761,-45.84811,0.06277761,-0.1994651,0.9652519,-37.3652,-4.482041,-30.68529,1000.375
1.751414776,-17.68247,12.4061,-45.053,0.07200167,-0.2224059,0.9226079,-37.3652,-4.482041,-30.68529,1000.375
1.771232605,-12.17146,10.22764,-45.90927,0.08669641,-0.2266553,0.9461569,-37.71018,-6.281238,-31.85597,1000.375
1.791050911,-5.925647,15.73429,-42.97347,0.09362622,-0.2353331,0.9673122,-37.71018,-6.281238,-31.85597,1000.377
1.810868740,-3.782475,18.21531,-39.36489,0.1067791,-0.2274275,0.9865878,-37.71018,-6.281238,-31.85597,1000.377
1.830686569,1.544836,17.1866,-36.97955,0.05763881,-0.2086307,1.012053,-35.09259,-7.71172,-31.39642,1000.372
1.850504875,-4.762211,15.49224,-45.72578,0.06921587,-0.1925053,1.010624,-35.09259,-7.71172,-31.39642,1000.372
1.870322705,-22.15252,18.27583,-48.96739,0.07361288,-0.2037124,0.9979928,-35.09259,-7.71172,-31.39642,1000.373
1.892618180,-16.4578,24.87171,-50.49646,0.0625382,-0.2418231,0.9679317,-35.07629,-8.750689,-31.37806,1000.375
1.912436009,-14.74327,28.32094,-48.66158,0.05671728,-0.2242431,1.001359,-35.07629,-8.750689,-31.37806,1000.375
1.932254315,-20.56045,33.94862,-47.80531,0.05509733,-0.2072552,0.9821477,-34.37128,-10.60814,-32.99495,1000.372
1.952072144,-16.94767,22.99582,-48.78391,0.05157636,-0.223489,0.921266,-34.37128,-10.60814,-32.99495,1000.372
1.971889973,-15.04943,10.5302,-42.23952,0.06513156,-0.2058634,0.9319013,-32.48658,-12.74291,-33.78746,1000.376
1.991708279,1.973471,3.32919,-36.85723,0.06927524,-0.2006299,0.8720534,-32.48658,-12.74291,-33.78746,1000.376
2.011526108,-1.823005,-7.078995,-34.65538,0.0726153,-0.1141279,0.9955623,-32.48658,-12.74291,-33.78746,1000.376
2.031343937,-20.62168,-19.30256,-36.49025,0.1009066,-0.1466761,0.9662796,-31.05046,-13.84337,-34.59671,1000.374
2.051162720,-46.89083,-18.81846,-39.97651,0.08744716,-0.1578779,0.9942911,-31.05046,-13.84337,-34.59671,1000.374
2.070980072,-21.35648,35.82451,-15.8785,0.1736176,-0.3458714,0.9952672,-31.05046,-13.84337,-34.59671,1000.376
2.090797901,-5.925647,51.0132,-0.8937021,0.1174657,-0.2283589,0.9812152,-30.66785,-14.49603,-33.76285,1000.376
2.110616684,-14.4371,39.75784,-5.297399,-0.007791733,-0.2135554,0.9279168,-30.66785,-14.49603,-33.76285,1000.373
2.130434513,2.095937,20.9989,-16.06199,-0.01890627,-0.2492502,0.8901455,-29.91834,-15.25272,-35.39941,1000.373
2.150252342,13.85276,-14.34052,-32.88167,-0.0393246,-0.2239292,0.934311,-29.91834,-15.25272,-35.39941,1000.375
2.172547817,18.01664,-24.50665,-48.47809,0.03842696,-0.2589127,1.000315,-29.91834,-15.25272,-35.39941,1000.372
2.192365646,14.58756,-14.76411,-39.54837,0.1682679,-0.3170557,1.042747,-28.43114,-15.6107,-35.7785,1000.372
2.212183476,13.05673,2.118936,-18.63081,0.1498121,-0.2314372,1.048597,-28.43114,-15.6107,-35.7785,1000.373
2.232002258,19.18008,8.109694,-14.16596,0.05279529,-0.2374852,0.9704206,-27.34703,-17.73126,-35.36461,1000.373
2.251820087,29.651,2.905602,-14.59409,-0.02503567,-0.1816807,1.058015,-27.34703,-17.73126,-35.36461,1000.373
2.271637917,6.259813,16.52096,-27.07123,0.01467016,-0.1465431,1.207126,-27.34703,-17.73126,-35.36461,1000.371
2.291456223,-19.27454,30.9835,-28.90611,0.04004557,-0.1814055,1.032079,-27.33553,-18.46465,-35.35165,1000.371
2.311274052,-18.78467,25.11376,-28.60029,0.01972511,-0.2184464,0.8596835,-27.33553,-18.46465,-35.35165,1000.373
2.331091881,-3.231374,21.90659,-24.07427,-0.004816181,-0.2364761,0.9070277,-25.44354,-20.95049,-35.31432,1000.373
2.350910187,6.688447,19.97018,-21.32196,-0.07115698,-0.2400384,0.9860491,-25.44354,-20.95049,-35.31432,1000.37
2.370728016,23.03778,6.778414,-20.58801,-0.09763432,-0.184597,1.014474,-25.44354,-20.95049,-35.31432,1000.37
2.390545845,21.26201,-2.237978,-18.69198,-0.08335003,-0.1594623,1.108647,-24.38947,-21.32153,-36.13514,1000.372
2.410364628,16.1184,-2.903618,-17.22408,-0.07809011,-0.1286998,1.13291,-24.38947,-21.32153,-36.13514,1000.372
2.432659626,0.4426338,-4.113872,-17.28524,-0.06106015,-0.1486494,1.102306,-23.25485,-22.77636,-36.11338,1000.373
2.452477455,-3.843709,-2.116953,-15.57269,-0.007206596,-0.1856166,1.002872,-23.25485,-22.77636,-36.11338,1000.373
2.472295761,-2.067938,-2.116953,-13.43201,0.02109165,-0.1886837,0.8815494,-23.25485,-22.77636,-36.11338,1000.375
2.492113590,11.21972,-4.29541,-9.150634,0.02577674,-0.1912303,0.8250373,-21.07275,-24.17323,-36.85668,1000.375
2.511931419,18.26157,1.453297,-2.178114,0.02642587,-0.1950224,0.8665246,-21.07275,-24.17323,-36.85668,1000.372
2.531749725,19.91488,1.634835,2.837208,0.00567725,-0.1867029,0.9284638,-20.68425,-25.26212,-36.45861,1000.372
2.551567555,14.52633,-1.995928,4.549757,-0.01159719,-0.1832046,1.002909,-20.68425,-25.26212,-36.45861,1000.376
2.571385384,8.096817,4.66047,6.017655,-0.0106421,-0.1885897,0.9888781,-20.68425,-25.26212,-36.45861,1000.376
2.591204167,10.66862,3.934317,9.687403,-0.006460847,-0.192129,0.9256063,-19.94246,-25.24693,-36.08137,1000.377
2.611021996,15.26113,-7.986685,12.92901,0.01938558,-0.1973225,0.9375051,-19.94246,-25.24693,-36.08137,1000.377
2.630839825,20.09858,-6.836944,15.80365,0.03795468,-0.1942303,0.9683107,-19.93895,-25.63648,-37.27827,1000.373
2.650658131,22.24175,-5.687202,17.94433,0.03326974,-0.2175939,0.9822141,-19.93895,-25.63648,-37.27827,1000.373
2.670475960,11.03602,-10.04412,20.08502,0.03450582,-0.1771692,0.9833803,-19.93895,-25.63648,-37.27827,1000.377
2.690294266,3.01444,-8.470787,21.79757,0.04704848,-0.1933094,0.9267553,-19.18427,-26.26952,-35.62243,1000.377
2.712589741,1.299902,-3.266694,25.10034,0.04639835,-0.1831627,0.8954369,-19.18427,-26.26952,-35.62243,1000.378
2.732407570,4.728976,-9.923092,24.24407,0.01450347,-0.2125162,0.907045,-18.87631,-26.27462,-36.06694,1000.378
2.752225876,12.26069,-13.06975,26.81289,0.0398169,-0.2359776,1.017802,-18.87631,-26.27462,-36.06694,1000.376
2.772043705,6.872148,-1.632851,24.36639,0.00343017,-0.2018824,1.100232,-18.87631,-26.27462,-36.06694,1000.376
2.791861534,0.8712681,7.746618,21.85873,0.009955003,-0.2153934,1.137293,-18.50495,-26.26222,-35.62498,1000.379
2.811679840,-5.741947,11.43789,20.452,0.01170519,-0.2169894,1.077423,-18.50495,-26.26222,-35.62498,1000.379
2.831497669,-15.66177,1.876886,21.85873,0.04949508,-0.2208068,1.028446,-19.55717,-26.29756,-36.88777,1000.379
2.851315499,-13.94723,0.2430426,23.93826,0.0666023,-0.2636783,0.9827602,-19.55717,-26.29756,-36.88777,1000.379
2.871133805,-1.149436,-3.448232,29.80985,0.01078569,-0.3132642,0.9345433,-19.55717,-26.29756,-36.88777,1000.373
2.890951634,8.096817,5.991749,35.80377,-0.07014571,-0.2929478,1.052864,-19.20363,-25.26182,-37.28753,1000.373
2.910769463,-11.37543,17.54967,28.64776,-0.1294441,-0.2663428,1.107385,-19.20363,-25.26182,-37.28753,1000.375
2.930588246,-19.64194,11.13533,17.57736,-0.09066604,-0.289699,1.03079,-18.52502,-25.26174,-37.6701,1000.375
2.950406075,-14.49833,-3.569258,12.19506,-0.02533419,-0.2646572,0.9765009,-18.52502,-25.26174,-37.6701,1000.372
2.970224381,-16.58027,-5.929253,8.586479,-0.0002783926,-0.2622488,0.9116973,-18.52502,-25.26174,-37.6701,1000.372
2.992519379,-20.19304,-6.776431,0.5741968,0.05454547,-0.2390812,0.9105508,-18.54885,-23.80338,-38.13937,1000.372
3.012337208,-20.74415,0.5456061,-3.523688,0.1538184,-0.172526,1.036811,-18.54885,-23.80338,-38.13937,1000.372
3.032155991,-32.19481,17.30762,-0.3432401,0.1463651,-0.1257451,1.067501,-17.45577,-22.77531,-39.36528,1000.369
3.051973820,-38.31815,36.42964,7.36323,-0.006661303,-0.1190853,1.129673,-17.45577,-22.77531,-39.36528,1000.369
3.071791649,-26.98996,24.56915,4.855569,-0.09975865,-0.1736347,1.122662,-17.45577,-22.77531,-39.36528,1000.364
3.091609955,-22.51992,-15.49026,-3.523688,-0.1098473,-0.1216345,1.102229,-17.10472,-21.69409,-40.5895,1000.364
3.111427784,-18.41727,-20.69435,-17.59105,-0.05222692,-0.1752916,0.9389755,-17.10472,-21.69409,-40.5895,1000.363
3.131245613,-4.884678,-22.14666,-18.325,0.0698408,-0.1608283,0.8181947,-15.70887,-20.22768,-41.44411,1000.363
3.151063919,-11.68159,-16.27693,-21.07731,0.1182806,-0.1387154,0.797288,-15.70887,-20.22768,-41.44411,1000.361
3.170881748,-13.08996,-0.846186,-22.48405,0.1525488,-0.1739222,0.6622524,-15.70887,-20.22768,-41.44411,1000.361
3.190700531,6.321046,2.058424,-12.45341,0.1760002,-0.1742133,0.6930139,-16.02972,-19.57436,-42.27821,1000.356
3.210518360,11.21972,-5.687202,-6.153673,0.1403304,-0.1448396,0.8352675,-16.02972,-19.57436,-42.27821,1000.356
3.230336189,3.688008,-14.64308,-4.441124,0.06313915,-0.1011447,0.9478958,-16.02972,-19.57436,-42.27821,1000.357
3.252631664,-9.967056,-36.54868,-15.14455,0.01764089,-0.118337,0.9837747,-15.72177,-19.57946,-42.72272,1000.357
3.272449493,-25.64282,-41.14764,-25.60333,0.05981899,-0.1020799,0.9710776,-15.72177,-19.57946,-42.72272,1000.352
3.292267323,-5.680713,-33.64407,-22.78986,0.1648294,-0.2165913,0.9129587,-14.97916,-19.55586,-41.90212,1000.352
3.312085629,24.20122,-46.1702,-17.52989,0.1243301,-0.2221297,0.722494,-14.97916,-19.55586,-41.90212,1000.353
3.331903458,37.79505,-71.82759,-27.74402,0.1427984,-0.05338193,0.9964556,-16.0248,-19.94948,-42.71508,1000.353
3.351722241,-161.8261,-170.0397,-89.21229,0.09873046,0.2024911,1.188186,-16.0248,-19.94948,-42.71508,1000.351
3.371540070,-137.2714,-110.8583,-129.396,0.4878921,-0.401368,0.9305137,-16.0248,-19.94948,-42.71508,1000.351
3.391357899,-94.53047,-69.10452,-103.9524,0.3361501,-0.4490902,0.85194,-16.75451,-20.6213,-42.25707,1000.353
3.411176205,-104.3278,-29.0451,-50.12948,0.4592943,-0.3300728,1.076323,-16.75451,-20.6213,-42.25707,1000.353
3.430994034,-35.31771,8.23072,-12.39224,0.5066702,-0.5579876,0.7597038,-16.75451,-20.6213,-42.25707,1000.352
3.450812340,66.63602,-16.76103,40.94142,0.2725432,-0.5832977,0.6619063,-19.02278,-17.77275,-42.2995,1000.352
3.470630169,143.2391,-5.808228,74.70309,0.4735631,-0.234264,0.9970948,-19.02278,-17.77275,-42.2995,1000.352
3.490447998,80.04614,51.55782,101.1253,0.347189,-0.2050461,1.067925,-19.7299,-16.00769,-42.32827,1000.352
3.510266781,64.67654,61.36087,95.49833,0.01079566,-0.1837634,0.7228299,-19.7299,-16.00769,-42.32827,1000.349
3.532561779,112.255,-31.4051,31.5224,-0.02522505,-0.2451682,1.183187,-19.7299,-16.00769,-42.32827,1000.349
3.552379608,99.27345,-19.36307,9.870891,0.1136905,-0.1312987,1.460069,-19.68907,-18.4978,-41.46063,1000.349
3.572197914,24.75232,-10.89129,44.85582,0.2388505,-0.5431359,0.8312345,-19.68907,-18.4978,-41.46063,1000.349
3.592015743,49.30694,84.77929,79.04563,0.06043798,-0.1062386,0.8605196,-19.64753,-20.9807,-40.21296,1000.352
3.611834526,8.709152,64.68907,32.19519,-0.1148927,-0.121646,0.9062893,-19.64753,-20.9807,-40.21296,1000.352
3.631652355,59.59417,36.79272,-3.217876,-0.06901598,-0.08252909,0.874865,-19.64753,-20.9807,-40.21296,1000.349
3.651470184,69.57522,11.19584,-5.297399,0.08093229,0.004746139,1.20561,-19.25481,-22.45192,-40.63178,1000.349
3.671288490,59.71663,33.16195,-7.866222,0.1094458,0.1080619,1.17992,-19.25481,-22.45192,-40.63178,1000.351
3.691106320,51.63382,19.60711,-12.08643,0.1665129,0.03137738,0.9591122,-17.44101,-23.82992,-40.17029,1000.351
3.710924626,79.98491,-72.85631,43.26559,0.3767501,-0.06290708,0.9854725,-17.44101,-23.82992,-40.17029,1000.349
3.730742455,76.24967,-16.76103,34.51936,-0.02223324,0.1048173,0.925287,-17.44101,-23.82992,-40.17029,1000.349
3.750560284,68.90165,-91.01012,4.366269,0.1138164,-0.02797031,1.096659,-15.92128,-25.98288,-38.49023,1000.35
3.770378590,7.606949,-67.1076,8.953453,0.2355255,0.00794832,1.191265,-15.92128,-25.98288,-38.49023,1000.35
3.790196419,-66.54678,-34.67279,41.98118,0.0480952,0.1969549,1.020463,-17.72362,-28.82112,-35.58239,1000.351
3.812492371,-59.68863,-53.85531,-28.78378,0.2353278,-0.04778056,0.8989595,-17.72362,-28.82112,-35.58239,1000.351
3.832310200,-57.85163,-15.73231,-40.34349,0.2659298,-0.1398439,1.021402,-17.72362,-28.82112,-35.58239,1000.349
3.852128029,31.6717,42.11784,4.060457,0.4732258,-0.2458929,1.021653,-19.88169,-29.2351,-36.83454,1000.349
3.871946335,56.22633,18.88095,42.53164,0.1578006,-0.09965584,0.755762,-19.88169,-29.2351,-36.83454,1000.349
3.891764164,39.08095,-57.06248,-26.45961,0.05270511,0.1396009,0.8516884,-19.52337,-28.50494,-37.2289,1000.349
3.911582947,21.56818,-52.70557,-52.14784,0.2279475,-0.0205025,0.9189298,-19.52337,-28.50494,-37.2289,1000.346
3.931400776,29.4673,-18.5159,7.057417,0.2680875,-0.07339667,0.9078195,-19.52337,-28.50494,-37.2289,1000.346
3.951218605,-2.61904,-23.2964,62.9599,0.2578067,-0.07545346,0.8846966,-19.87454,-29.51662,-35.56242,1000.347
3.971036911,-17.86617,-24.86973,58.73969,0.1805853,-0.1134218,0.8540329,-19.87454,-29.51662,-35.56242,1000.347
3.990854740,-14.13093,0.7271442,29.74869,0.2228023,-0.09043656,1.006446,-20.22066,-30.97295,-34.77507,1000.343
4.010673046,25.05849,43.20706,26.69057,0.1840554,-0.101768,1.035078,-20.22066,-30.97295,-34.77507,1000.343
4.030490875,35.46818,61.11882,51.15555,0.1468204,-0.1198984,1.068011,-20.22066,-30.97295,-34.77507,1000.344
4.050308704,37.85629,104.9905,62.34828,0.1682434,-0.1559466,1.015579,-22.03026,-29.90655,-35.54784,1000.344
4.072604656,28.9162,144.3238,49.07603,0.104402,-0.1226387,1.032511,-22.03026,-29.90655,-35.54784,1000.342
4.092422485,28.42633,145.8971,37.51632,0.02117296,-0.08630753,0.9313079,-20.96469,-31.01099,-36.3557,1000.342
4.112240791,13.66906,68.56188,20.08502,-0.009393767,0.05711253,0.9037338,-20.96469,-31.01099,-36.3557,1000.345
4.132058620,-19.39701,-17.78974,30.23799,0.06779991,0.09946088,0.9334549,-20.96469,-31.01099,-36.3557,1000.345
4.151877403,-52.09568,-30.921,48.64789,0.110965,0.006427041,1.030242,-18.05875,-31.37054,-37.62682,1000.341
4.171695232,-44.31903,20.45428,78.9233,0.1984161,-0.1990845,1.235294,-18.05875,-31.37054,-37.62682,1000.341
4.191513062,-3.231374,77.63879,101.9816,0.2228825,-0.30278,1.393428,-16.94867,-31.37423,-38.45436,1000.344
4.211331368,20.77215,60.81626,49.32067,-0.01673687,-0.03236581,1.170236,-16.94867,-31.37423,-38.45436,1000.344
4.231149197,10.72986,27.11068,-73.24889,0.02103974,0.06822465,1.004021,-16.94867,-31.37423,-38.45436,1000.34
4.250967503,7.117082,-4.779512,-76.42934,-0.02725301,0.2447853,0.824671,-18.46335,-29.59518,-40.50797,1000.34
4.270785332,-43.76793,-75.94245,-51.29156,-0.05499128,0.2798281,0.8776147,-18.46335,-29.59518,-40.50797,1000.343
4.290603161,-27.60229,-44.35482,7.730205,0.1033596,0.07509837,1.052357,-15.86383,-29.93399,-40.5112,1000.343
4.310421467,-2.741507,29.34965,56.59901,0.09694474,0.06277771,1.005026,-15.86383,-29.93399,-40.5112,1000.341
4.330239296,11.64836,42.05732,33.84657,0.05067201,0.1124963,0.923962,-15.86383,-29.93399,-40.5112,1000.341
4.352535248,18.75144,33.70657,18.67828,0.078245,0.09332433,0.9912876,-16.96394,-30.67933,-40.49408,1000.343
4.372353077,15.3836,35.94554,22.10338,0.09869469,0.00579517,0.9965182,-16.96394,-30.67933,-40.49408,1000.343
4.392171383,-10.76309,14.22148,31.46124,0.04633128,0.04733575,0.9699882,-15.85386,-30.68302,-41.32161,1000.344
4.411989212,-11.13049,-21.29948,19.90153,0.05981358,0.01196719,1.014622,-15.85386,-30.68302,-41.32161,1000.344
4.431807041,5.218844,-32.49433,3.632319,0.02310157,0.08019474,0.9152588,-15.85386,-30.68302,-41.32161,1000.345
4.451625824,-6.966616,-10.64924,-0.09859026,0.02767037,0.0803545,0.971708,-15.53358,-31.41309,-41.30981,1000.345
4.471443653,-11.25296,30.37837,11.46111,-0.006776345,0.08952344,1.011523,-15.53358,-31.41309,-41.30981,1000.343
4.491261959,-5.558246,74.49213,27.66916,-0.007962745,0.08139989,1.078098,-16.22511,-30.69422,-41.70024,1000.343
4.511079788,-8.926087,128.3484,47.36348,-0.03418859,0.07248996,1.074334,-16.22511,-30.69422,-41.70024,1000.344
4.530898094,-29.19436,169.9207,56.35436,-0.08041449,0.07223328,1.067345,-16.22511,-30.69422,-41.70024,1000.344
4.550715923,0.5038673,184.9278,52.92926,-0.1248018,0.09943102,0.931613,-15.17749,-30.70579,-42.90756,1000.344
4.570533753,25.91576,83.32698,24.73337,-0.4904523,0.2115814,0.5712165,-15.17749,-30.70579,-42.90756,1000.344
4.590352535,-49.46264,-130.2829,-51.35273,-0.1626364,0.119148,0.7084413,-15.17749,-30.70579,-42.90756,1000.341
4.610170365,-49.34018,-117.6962,-59.85431,0.003034049,-0.1294674,1.245892,-10.07612,-29.26908,-44.21833,1000.341
4.632465840,-20.25428,22.51172,22.22571,-0.08615539,-0.1524089,1.010715,-10.07612,-29.26908,-44.21833,1000.343
4.652283669,-8.252519,32.61734,16.0483,-0.2637546,-0.03934019,1.03061,-10.45394,-28.922,-45.0468,1000.343
4.672102451,-27.96969,19.30454,-18.8143,-0.1553459,-0.2317127,0.9851047,-10.45394,-28.922,-45.0468,1000.344
4.691920281,27.07919,28.68401,1.124659,0.0128903,-0.3271738,0.8157215,-10.84819,-27.46642,-45.45135,1000.344
4.711738110,136.136,1.937398,74.2138,-0.2057335,-0.1090449,0.6732349,-10.84819,-27.46642,-45.45135,1000.341
4.731556416,293.1998,-273.5164,56.17087,-0.4174886,0.1662453,-0.2132854,-10.84819,-27.46642,-45.45135,1000.341
4.751374245,140.5448,-1.874902,62.10363,1.299337,0.5069025,3.48507,-9.71977,-28.13374,-42.59242,1000.341
4.771192551,-209.4045,27.59478,81.8591,-0.2725325,0.2565378,0.3699429,-9.71977,-28.13374,-42.59242,1000.341
4.791010380,56.41002,4.842008,5.711843,0.2190013,-0.2145088,1.25634,-9.71977,-28.13374,-42.59242,1000.338
4.810829163,-39.97145,22.93531,7.669042,-0.06420965,0.09017101,0.9997739,-17.62182,-35.65189,-37.93262,1000.338
4.830646992,-1.455604,9.561998,7.730205,-0.01934767,0.05431156,0.9752104,-17.62182,-35.65189,-37.93262,1000.337
4.850465298,2.157171,5.205084,10.666,0.03206738,-0.006282702,0.9775138,-17.67391,-32.49672,-39.19217,1000.337
4.870283127,5.892412,6.717902,14.70272,0.01837826,0.04443813,1.040115,-17.67391,-32.49672,-39.19217,1000.335
4.892578125,-1.700538,7.383542,14.51924,0.01511122,0.0151863,1.032259,-17.67391,-32.49672,-39.19217,1000.335
4.912396431,-7.578951,1.513809,14.51924,-0.01679622,-0.01368727,1.040974,-16.95008,-31.38866,-39.21439,1000.336
4.932214260,-26.98996,-6.413355,13.78529,-0.03126752,-0.01465577,1.074353,-16.95008,-31.38866,-39.21439,1000.336
4.952033043,-27.66353,-7.139507,12.86785,-0.03141096,-0.14152,0.966065,-18.06323,-31.41625,-40.0336,1000.336
4.971850872,6.19858,-6.715919,15.0697,-0.03502669,-0.1358222,0.9135022,-18.06323,-31.41625,-40.0336,1000.336
4.991669178,12.93426,-12.76719,11.21646,-0.04739819,-0.00306436,1.069674,-18.06323,-31.41625,-40.0336,1000.333
5.011487007,-16.33534,-11.67796,2.286746,-0.02010277,-0.05323366,1.004588,-18.45102,-30.32015,-40.05165,1000.333
5.031305313,-8.191285,-4.355923,6.201143,0.001169779,-0.06885683,0.9416433,-18.45102,-30.32015,-40.05165,1000.334
5.051123142,4.361576,-4.537461,10.54368,-0.01931982,-0.02256527,0.999432,-19.50745,-29.97316,-40.49755,1000.334
5.070940971,-12.7838,-5.505664,9.993216,0.009265685,0.03128202,1.056026,-19.50745,-29.97316,-40.49755,1000.334
5.090759754,-6.354281,0.4245807,15.68132,0.01477836,-0.06194832,0.9502925,-19.50745,-29.97316,-40.49755,1000.334
5.110578060,1.851004,-11.79899,13.29599,-0.03411977,0.034896,1.03263,-18.46335,-29.59518,-40.50797,1000.333
5.130395889,17.95541,-4.113872,-38.87559,-0.05727533,0.276844,1.058616,-18.46335,-29.59518,-40.50797,1000.333
5.150213718,19.18008,10.65123,-45.5423,-0.003367296,-0.1077586,0.9733251,-19.887,-29.28923,-39.68467,1000.333
5.172509670,16.97567,14.22148,-52.57598,-0.02619025,0.04433079,1.091522,-19.887,-29.28923,-39.68467,1000.333
5.192327499,17.2206,23.29838,-60.89407,-0.001097194,0.01743357,0.9894015,-19.887,-29.28923,-39.68467,1000.336
5.212145805,35.03954,21.60403,-46.15392,0.06350659,-0.009175408,0.9218189,-19.13538,-29.95354,-39.67557,1000.336
5.231963635,55.92016,-16.88205,-2.667413,0.06452969,-0.0340668,0.8956207,-19.13538,-29.95354,-39.67557,1000.332
5.251781464,51.63382,-8.047197,13.05134,0.05896837,-0.01581246,1.006278,-16.95513,-31.01475,-38.84085,1000.332
5.271599770,30.9369,-5.687202,13.29599,-0.08078792,0.02146875,1.016888,-16.95513,-31.01475,-38.84085,1000.333
5.291417599,8.892852,0.4850934,9.075778,0.01095455,0.05799677,1.024779,-16.95513,-31.01475,-38.84085,1000.333
5.311236382,17.15937,-0.5436226,12.19506,-0.02667428,0.05669554,0.9699533,-16.55455,-32.76028,-37.60753,1000.334
5.331054211,10.42369,-2.843105,13.84645,-0.03822589,0.0601432,1.011062,-16.55455,-32.76028,-37.60753,1000.334
5.350872517,-1.455604,-0.05952091,10.97181,-0.03784307,0.08158212,1.015997,-17.28412,-33.50163,-37.5918,1000.334
5.370690346,-6.782916,0.364068,8.280666,-0.01608741,0.1050689,1.016481,-17.28412,-33.50163,-37.5918,1000.334
5.390508652,-5.374546,-2.298491,5.528356,-0.002466559,0.09243132,0.9965516,-17.28412,-33.50163,-37.5918,1000.331
5.410326481,-1.516837,-1.935415,1.185821,0.0008621817,0.1183052,1.016939,-17.27837,-33.86832,-37.58532,1000.331
5.432622433,-8.558686,-4.537461,-0.5878899,0.008284813,0.0705247,0.9756252,-17.27837,-33.86832,-37.58532,1000.333
5.452440262,-6.109347,-0.3015717,-1.933464,0.004398307,0.0900624,1.009051,-17.27837,-33.86832,-37.58532,1000.333
5.472258091,-10.70186,-0.1805463,-2.667413,-0.01849296,0.09627529,1.009691,-17.27837,-33.86832,-37.58532,1000.332
5.492076397,-11.37543,3.026627,-3.034388,-0.01299496,0.07832076,1.023567,-17.27837,-33.86832,-37.58532,1000.332
5.511894226,-3.721242,0.6666315,-15.81734,-0.05146439,0.2897108,0.9297754,-17.64891,-33.87231,-37.58393,1000.332
5.531712532,3.749241,-0.7251607,-18.87546,-0.0137167,0.01200845,0.9879946,-17.64891,-33.87231,-37.58393,1000.332
5.551530361,1.728537,0.2430426,-12.20876,0.003072946,0.03735217,0.9614856,-17.29141,-33.15057,-38.42165,1000.333
5.571349144,-6.415515,-4.113872,-1.627652,-0.005908893,0.0718539,0.9515756,-17.29141,-33.15057,-38.42165,1000.333
5.591166973,-2.496573,-0.9066988,0.2683845,-0.004484178,0.08210326,0.958378,-17.29141,-33.15057,-38.42165,1000.329
5.610985279,2.769506,-0.9066988,0.1460596,-0.03208339,0.06200293,0.9613219,-17.28566,-33.51727,-38.41517,1000.329
5.630803108,2.708272,0.6061188,-1.07719,-0.0369142,0.07764489,0.9966642,-17.28566,-33.51727,-38.41517,1000.332
5.650621414,-1.945472,0.6666315,-1.994627,-0.01980449,0.05433013,0.9839012,-16.54951,-33.13419,-37.98107,1000.332
5.670439243,-4.21111,-1.511826,-1.688814,-0.02669885,0.05814459,0.9651341,-16.54951,-33.13419,-37.98107,1000.328
5.690258026,-1.761771,-1.814389,1.308146,-0.01598847,0.0709186,0.9892749,-16.54951,-33.13419,-37.98107,1000.328
5.712553024,6.076113,2.118936,3.938132,-0.007740366,0.08268038,1.002805,-16.92087,-33.14659,-38.42303,1000.327
5.732371330,3.443074,4.963033,3.448832,-0.01597455,0.0875502,1.020734,-16.92087,-33.14659,-38.42303,1000.327
5.752189160,-4.823445,5.447135,-0.3432401,-0.02129748,0.08216399,1.01977,-16.91934,-33.13095,-37.59966,1000.326
5.772007942,-3.966176,2.603038,0.207222,-0.01899405,0.09626223,1.00535,-16.91934,-33.13095,-37.59966,1000.326
5.791825772,-4.945911,2.966114,1.675121,-0.0178001,0.05731565,1.006109,-16.91934,-33.13095,-37.59966,1000.326
5.811644077,-2.374106,3.208165,0.5130343,-0.01490088,0.08127208,1.040003,-17.27991,-33.88396,-38.40869,1000.326
5.831461907,-5.680713,-0.3015717,-0.8325397,-0.02675236,0.09623837,1.01215,-17.27991,-33.88396,-38.40869,1000.323
5.851279736,3.19814,0.4245807,-2.667413,-0.01211647,0.0327934,0.9210002,-16.90279,-34.23825,-37.96024,1000.323
5.871098042,-6.660449,-3.327207,-0.6490523,-0.03000187,0.06944341,1.013478,-16.90279,-34.23825,-37.96024,1000.323
5.890915871,-5.680713,-6.715919,-3.156713,-0.02504393,0.0402039,0.9930282,-16.90279,-34.23825,-37.96024,1000.323
5.910734654,-6.660449,11.49841,-0.5267274,-0.07469917,0.01057938,0.9303997,-16.92005,-33.13817,-37.97968,1000.32
5.930552483,0.5651007,3.510728,-0.09859026,-0.03093899,0.07044153,1.025555,-16.92005,-33.13817,-37.97968,1000.32
5.950370789,0.0139995,-2.116953,-0.465565,-0.024671,0.05870252,0.9902251,-16.92005,-33.13817,-37.97968,1000.321
5.970188618,-0.965736,2.724063,-0.4044026,-0.03497437,0.07569554,0.9918168,-17.28483,-33.50885,-37.97181,1000.321
5.992484570,-4.149877,2.239962,-1.444164,-0.03479397,0.04404778,0.9926186,-17.28483,-33.50885,-37.97181,1000.317
6.012302399,-2.129172,2.118936,-2.116951,-0.03142925,0.06408087,1.013941,-16.55608,-32.77591,-38.4309,1000.317
6.032120705,-5.252079,0.9086823,-0.2820776,-0.03235349,0.0489554,1.003249,-16.55608,-32.77591,-38.4309,1000.316
6.051938534,2.647039,-0.9672114,0.6353592,-0.0192532,0.04949035,0.9949749,-16.54036,-33.89163,-39.23484,1000.316
6.071756840,-3.108907,1.695347,-0.1597527,-0.02801244,0.0592187,1.009553,-16.54036,-33.89163,-39.23484,1000.318
6.091574669,-1.333137,3.08714,-1.321839,-0.02949337,0.05430675,0.9950556,-16.54036,-33.89163,-39.23484,1000.318
6.111393452,-1.21067,-0.1200336,-1.627652,-0.02309208,0.03875202,0.9925274,-16.55033,-33.14261,-38.42442,1000.316
6.131211281,1.422369,0.2430426,-2.300439,-0.01539492,0.07735308,1.031298,-16.55033,-33.14261,-38.42442,1000.316
6.151029587,-2.80274,0.364068,-2.300439,-0.009429087,0.03005551,0.9914426,-16.55033,-33.14261,-38.42442,1000.317
6.170847416,-2.435339,-0.4225971,-1.505327,-0.01883336,0.06166716,0.9955178,-15.80421,-33.50856,-38.80074,1000.317
6.190665722,-2.129172,2.058424,-1.505327,-0.03429877,0.05187859,1.008102,-15.80421,-33.50856,-38.80074,1000.319
6.210483551,-2.80274,0.1220172,-1.383002,-0.0347536,0.03918792,0.9964549,-16.16408,-34.25434,-39.22974,1000.319
6.230302334,-0.7820356,-1.693364,-1.383002,-0.04932546,0.03765867,0.9994228,-16.16408,-34.25434,-39.22974,1000.323
6.252597332,2.034704,-0.3015717,-2.483926,-0.03670543,0.04210643,0.9993765,-16.16408,-34.25434,-39.22974,1000.323
6.272415638,0.1976999,-0.1805463,-1.566489,-0.03575297,0.04307476,0.9950322,-16.169,-33.87923,-38.79287,1000.326
6.292233467,-0.4758682,-0.05952091,-0.8937021,-0.02452382,0.03387523,0.9925101,-16.169,-33.87923,-38.79287,1000.326
6.312052250,0.07523298,2.4215,-2.178114,-0.03086848,0.035782,0.9891759,-15.80421,-33.50856,-38.80074,1000.324
6.331869602,0.5651007,1.937398,-2.912063,-0.0391883,0.05183468,1.000406,-15.80421,-33.50856,-38.80074,1000.324
6.351688385,2.585805,2.542525,-3.462525,-0.04358865,0.05863951,1.004809,-15.80421,-33.50856,-38.80074,1000.326
6.371506214,1.422369,-0.241059,-3.095551,-0.03923725,0.06646585,1.010134,-16.15833,-34.62104,-39.22326,1000.326
6.391324520,-1.333137,0.6061188,-2.789738,-0.03100296,0.0689292,1.00431,-16.15833,-34.62104,-39.22326,1000.327
6.411142349,-1.271903,0.0009917939,-1.994627,-0.02081641,0.0601635,0.982006,-16.169,-33.87923,-38.79287,1000.327
6.430960655,0.4426338,1.150733,0.08489711,-0.008205078,0.0670494,0.9834203,-16.169,-33.87923,-38.79287,1000.326
6.450778484,1.238669,1.997911,0.3907094,-0.02126724,0.05823087,0.9892386,-16.169,-33.87923,-38.79287,1000.326
6.470597267,-1.149436,-0.7856733,-0.2820776,-0.02858655,0.07284187,1.006248,-16.17558,-33.52096,-39.24271,1000.324
6.490415096,-2.067938,0.364068,-0.3432401,-0.0309648,0.06211225,1.004275,-16.17558,-33.52096,-39.24271,1000.324
6.510233402,-4.945911,0.0009917939,-0.5878899,-0.04312831,0.07475624,1.023713,-15.79929,-33.88367,-39.23761,1000.325
6.532528401,1.054968,-0.6646479,1.858608,-0.03380697,0.0523739,1.010515,-15.79929,-33.88367,-39.23761,1000.325
6.552347183,-0.6595686,-3.266694,2.042096,-0.03770132,0.05919531,1.020708,-15.79929,-33.88367,-39.23761,1000.32
6.572165012,-3.782475,-3.327207,1.552796,-0.02605722,0.06363569,1.019701,-15.78849,-34.62428,-39.60467,1000.32
6.591983318,-3.660008,-4.355923,0.5130343,-0.02505678,0.05779411,1.018218,-15.78849,-34.62428,-39.60467,1000.322
6.611801148,-4.517277,-3.024643,0.9411715,-0.01194341,0.05540518,1.008963,-16.52886,-34.62502,-39.22188,1000.322
6.631619454,-2.557806,-4.416436,0.8188466,-0.0212512,0.07095301,1.014886,-16.52886,-34.62502,-39.22188,1000.323
6.651437283,-8.068818,-4.718999,-0.2820776,-0.007980286,0.04276646,1.009359,-16.52886,-34.62502,-39.22188,1000.323
6.671256066,-2.61904,-2.903618,-0.4044026,-0.01721519,0.03587826,0.9997206,-16.17558,-33.52096,-39.24271,1000.32
6.691073895,-7.640184,-6.231817,-0.8325397,-0.01575026,0.03100133,0.9934127,-16.17558,-33.52096,-39.24271,1000.32
6.710892201,-0.8432691,-1.511826,0.6965217,-0.0122773,0.01786847,0.9918783,-16.17711,-33.53659,-40.06608,1000.32
6.730710030,-2.98644,-3.38772,-0.5878899,-0.03275793,0.04314494,1.017702,-16.17711,-33.53659,-40.06608,1000.32
6.750528336,-2.863973,-4.537461,0.6965217,-0.02100065,0.01588953,0.997708,-16.17711,-33.53659,-40.06608,1000.323
6.770346165,1.299902,-5.687202,1.980933,-0.02539993,0.02220627,1.001626,-16.1805,-33.14584,-38.80583,1000.323
6.790164948,2.340871,-4.355923,1.308146,-0.01190487,0.03881108,0.9929491,-16.1805,-33.14584,-38.80583,1000.321
6.812459946,-1.639304,-1.693364,1.002334,-0.005995383,0.02276106,0.9880075,-16.91665,-33.52892,-39.23993,1000.321
6.832278252,-1.884238,-1.632851,0.8188466,-0.01716946,0.02417801,0.9938681,-16.91665,-33.52892,-39.23993,1000.322
6.852096081,0.5651007,-3.085156,0.207222,-0.00355219,0.02718174,0.9986358,-16.91665,-33.52892,-39.23993,1000.322
6.871914864,-0.965736,-3.024643,0.9411715,-0.008431234,0.03350066,1.004487,-16.8994,-34.62901,-39.22049,1000.318
6.891732693,-2.312872,-4.416436,0.8188466,-0.003562491,0.03255197,1.004456,-16.8994,-34.62901,-39.22049,1000.318
6.911550999,-3.047674,-3.690283,0.5130343,0.0002877538,0.03596535,0.9981772,-17.2879,-33.54012,-39.61856,1000.319
6.931368828,-1.700538,-4.96105,0.6353592,-0.004591959,0.03446183,0.9909559,-17.2879,-33.54012,-39.61856,1000.319
6.951187134,-3.721242,-5.808228,1.552796,0.008082999,0.02086057,0.9773018,-17.2879,-33.54012,-39.61856,1000.314
6.971004963,-2.067938,-3.992847,1.063496,0.01014064,0.004329267,0.9829978,-18.03473,-33.18139,-39.62226,1000.314
6.990823746,-3.170141,-1.874902,-0.8937021,0.0003607308,0.01939585,0.9922996,-18.03473,-33.18139,-39.62226,1000.314
7.010641575,-7.150316,-2.419516,-2.667413,0.001018071,-0.01910031,0.9790659,-17.2994,-32.80673,-39.63152,1000.314
7.030459881,-4.700978,1.09022,-3.340201,-0.003917137,-0.004510707,0.9820639,-17.2994,-32.80673,-39.63152,1000.313
7.050277710,-0.8432691,4.297394,-2.667413,-0.01953635,0.006123435,0.9831694,-17.2994,-32.80673,-39.63152,1000.313
7.072573662,0.6875677,3.147652,-3.462525,-0.0283158,0.01681508,0.9934086,-17.66419,-33.17741,-39.62365,1000.313
7.092391491,-1.761771,1.634835,-3.707175,-0.01715535,0.01783275,0.9875606,-17.66419,-33.17741,-39.62365,1000.313
7.112209797,-1.455604,3.32919,-4.07415,0.002229542,0.01984011,0.9705712,-17.2879,-33.54012,-39.61856,1000.312
7.132027626,-1.149436,7.625592,-5.236237,0.01437528,0.02478283,0.9748741,-17.2879,-33.54012,-39.61856,1000.312
7.151845932,-14.55957,10.89328,-7.254598,0.0085145,0.04477863,1.000591,-17.2879,-33.54012,-39.61856,1000.314
7.171663761,-10.08952,15.43173,-8.477847,-0.008345436,-0.002125688,0.9709988,-16.9304,-32.81839,-40.45628,1000.314
7.191482544,-5.80318,18.03378,-7.56041,-0.02775975,0.001712389,0.9889839,-16.9304,-32.81839,-40.45628,1000.316
7.211300850,-5.190845,17.73121,-8.477847,-0.07017255,0.04004131,1.022718,-16.92464,-33.18508,-40.4498,1000.316
7.231118679,-13.08996,9.440973,-14.28828,-0.07400771,0.02246143,1.010099,-16.92464,-33.18508,-40.4498,1000.313
7.250936985,-12.7838,8.896359,-16.97943,-0.02146355,-0.02418376,0.9386179,-16.92464,-33.18508,-40.4498,1000.313
7.270754814,-6.476748,14.3425,-11.23016,0.004196113,-0.0192444,0.9124382,-15.51,-32.80312,-40.4616,1000.31
7.290573597,-6.293048,26.38453,-15.32804,-0.0527311,0.02199619,0.9732965,-15.51,-32.80312,-40.4616,1000.31
7.310391426,-27.60229,33.64606,-25.05287,-0.1431128,0.03331501,1.01536,-15.51,-32.80312,-40.4616,1000.308
7.330209732,-28.5208,21.30146,-28.04983,-0.1771312,-0.07405035,0.9889297,-15.14579,-32.50919,-41.29176,1000.308
7.352504730,-2.374106,7.444054,-23.09567,-0.1171569,-0.001132609,1.011179,-15.14579,-32.50919,-41.29176,1000.306
7.372323513,3.320607,7.383542,-9.517609,-0.06910348,0.01958262,1.017297,-12.92409,-32.50093,-42.12346,1000.306
7.392140865,0.6875677,10.5302,-0.03742781,-0.08823843,0.06922927,1.049996,-12.92409,-32.50093,-42.12346,1000.307
7.411959648,-7.02785,5.386622,1.797446,-0.1018431,0.07014554,1.055385,-12.24548,-32.50085,-42.50602,1000.307
7.431777477,-7.640184,-1.935415,10.42135,-0.0515158,-0.0140019,0.9851718,-12.24548,-32.50085,-42.50602,1000.305
7.451595783,0.8712681,9.561998,25.1615,-0.06755532,0.02454262,1.051584,-12.24548,-32.50085,-42.50602,1000.305
7.471413612,1.483603,8.351745,26.87405,-0.1409183,0.03056992,1.083874,-11.8807,-32.13017,-42.51389,1000.307
7.491231918,-4.02741,-2.298491,27.30219,-0.1257073,-0.01814293,1.042995,-11.8807,-32.13017,-42.51389,1000.307
7.511049748,8.647919,-12.8277,30.78845,-0.09316775,-0.03560553,1.000734,-11.8807,-32.13017,-42.51389,1000.31
7.530868530,11.40342,-14.40103,29.80985,-0.06711967,6.532483E-05,0.9964311,-12.25053,-32.12693,-42.13248,1000.31
7.550686836,-1.700538,-7.321045,26.26243,-0.03499529,-0.009526972,0.9880005,-12.25053,-32.12693,-42.13248,1000.312
7.570504666,-1.700538,-0.846186,24.18291,-0.03963464,-0.05339058,0.9815257,-13.30684,-31.77874,-42.51505,1000.312
7.590322971,-3.537542,-3.024643,22.77617,-0.0579811,-0.07832287,0.98005,-13.30684,-31.77874,-42.51505,1000.311
7.610140801,2.157171,-6.110791,21.79757,-0.05549925,-0.08316313,0.9867691,-13.30684,-31.77874,-42.51505,1000.311
7.632436752,0.3201669,-6.715919,17.69968,-0.04289115,-0.07334631,0.99206,-14.80554,-30.68737,-42.14892,1000.311
7.652254582,-3.047674,-5.566177,13.78529,-0.05790369,-0.09097823,0.9819154,-14.80554,-30.68737,-42.14892,1000.311
7.672072888,1.78977,-5.747715,10.54368,-0.0448621,-0.0699526,0.9901575,-15.18183,-30.32466,-42.15401,1000.313
7.691890717,-0.2309344,-7.684122,8.586479,-0.04145897,-0.07531342,0.9809405,-15.18183,-30.32466,-42.15401,1000.313
7.711709500,4.484043,-7.018482,5.589519,-0.04547928,-0.04951601,0.9854391,-15.18183,-30.32466,-42.15401,1000.31
7.731527329,-0.7208021,-7.744634,3.693482,-0.04838864,-0.05783578,0.9743106,-16.23169,-30.33594,-42.15008,1000.31
7.751345635,5.096377,-5.868741,3.938132,-0.04544018,-0.06562084,0.9703931,-16.23169,-30.33594,-42.15008,1000.312
7.771163464,5.708712,-5.445152,1.858608,-0.05522704,-0.04078178,0.9937428,-16.23661,-29.96083,-41.7132,1000.312
7.790981770,5.218844,-1.753877,-1.444164,-0.05625203,-0.03202452,0.992828,-16.23661,-29.96083,-41.7132,1000.313
7.810799599,3.443074,-2.116953,-3.462525,-0.06451473,-0.03353043,0.9919002,-16.23661,-29.96083,-41.7132,1000.313
7.830618382,4.177875,-3.750796,-3.8295,-0.04889495,-0.04220867,0.9941835,-16.97276,-30.34391,-42.1473,1000.31
7.850436688,3.320607,-1.451313,-5.358562,-0.03961486,-0.04604336,0.9994224,-16.97276,-30.34391,-42.1473,1000.31
7.870254517,4.60651,0.8481696,-6.82646,-0.06107275,-0.03495249,1.000562,-16.97769,-29.96879,-41.71043,1000.311
7.892550469,6.56598,-2.116953,-6.642973,-0.06207053,-0.03399774,0.9947804,-16.97769,-29.96879,-41.71043,1000.311
7.912368298,7.606949,-2.903618,-6.765298,-0.05201239,-0.005700917,0.9958361,-16.97769,-29.96879,-41.71043,1000.309
7.932186604,3.749241,-0.3620844,-7.80506,-0.04763914,0.001163285,1.005984,-16.97698,-29.96158,-41.33041,1000.309
7.952004433,3.19814,-1.753877,-7.07111,-0.04037219,-0.006152044,0.9856339,-16.97698,-29.96158,-41.33041,1000.309
7.971822739,3.749241,-2.903618,-5.419724,-0.03944579,0.006530603,0.992934,-16.59423,-30.68377,-40.93882,1000.309
7.991640568,0.5038673,-3.206182,-4.685774,-0.03217807,0.01290423,0.9953404,-16.59423,-30.68377,-40.93882,1000.312
8.011459351,-3.843709,-3.992847,-4.685774,-0.01982883,-0.004984602,1.021728,-16.59423,-30.68377,-40.93882,1000.312
8.031277657,-2.98644,-4.718999,-4.930424,-0.006588825,-0.01706046,1.033661,-16.58765,-31.04204,-40.48899,1000.31
8.051095486,-3.537542,-7.926172,-4.930424,-0.01863478,-0.03659802,1.034592,-16.58765,-31.04204,-40.48899,1000.31
8.070913792,-2.61904,-12.28309,-5.909023,-0.005546469,-0.03362727,1.026813,-16.21219,-31.41317,-40.92725,1000.312
8.090731621,-1.271903,-11.19386,-5.970186,0.006081281,-0.02626534,1.025821,-16.21219,-31.41317,-40.92725,1000.312
8.110550404,-0.1697009,-9.075913,-5.603211,0.01181807,-0.006751126,1.028786,-16.21219,-31.41317,-40.92725,1000.311
8.130368233,-1.761771,-10.16514,-4.563449,0.0002143134,-0.01751801,1.031208,-16.22287,-30.67136,-40.49685,1000.311
8.150186539,-6.170581,-11.98052,-5.236237,0.007880509,-0.001916078,1.02304,-16.22287,-30.67136,-40.49685,1000.313
8.172481537,-11.37543,-13.19078,-8.049709,0.007545007,-0.03798733,1.007894,-16.58344,-31.42437,-41.30588,1000.313
8.192300320,-4.823445,-9.923092,-6.704135,0.01281796,-0.04779188,0.9692004,-16.58344,-31.42437,-41.30588,1000.31
8.212118149,-1.271903,-9.257452,-4.012987,0.01281152,-0.0404634,0.9793743,-16.58344,-31.42437,-41.30588,1000.31
8.231936455,-6.537982,-6.655406,-8.600172,-0.0003542232,-0.03224544,0.9828674,-17.69505,-31.43632,-41.30171,1000.312
8.251754761,-9.293488,-5.868741,-13.73782,-0.004237329,-0.04008215,0.9722294,-17.69505,-31.43632,-41.30171,1000.312
8.271572590,-7.21155,-2.298491,-12.39224,0.01615932,-0.05417459,0.9401886,-16.95397,-31.42836,-41.30449,1000.313
8.291391373,1.299902,0.2430426,-9.211796,0.01964819,-0.0633851,0.9497758,-16.95397,-31.42836,-41.30449,1000.313
8.311209202,-1.455604,2.542525,-10.86318,0.007809733,-0.01956605,0.9732342,-16.95397,-31.42836,-41.30449,1000.313
8.331027508,-1.516837,3.934317,-11.23016,0.009713711,-0.006874857,0.9819772,-16.95819,-31.04602,-40.4876,1000.313
8.350845337,-0.4146348,5.507648,-9.639934,-0.001011009,0.006739983,0.9970688,-16.95819,-31.04602,-40.4876,1000.312
8.370663643,-5.068378,4.176368,-10.86318,-0.0004449852,0.0004441193,1.010066,-17.3238,-31.42512,-40.92308,1000.312
8.390482426,-4.21111,6.959952,-8.539009,-0.01606553,-0.004566599,0.9850262,-17.3238,-31.42512,-40.92308,1000.314
8.410300255,1.238669,4.66047,-4.135312,-0.03436347,-0.03728618,0.9849583,-17.3238,-31.42512,-40.92308,1000.314
8.432595730,3.38184,5.447135,-5.113912,-0.03494049,-0.0001992395,1.019422,-16.20786,-31.7943,-41.6808,1000.311
8.452413559,-2.557806,5.810211,-5.970186,-0.04323056,-0.004169061,1.006415,-16.20786,-31.7943,-41.6808,1000.311
8.472232342,5.096377,5.386622,-1.811139,-0.03447143,-0.02123056,0.979732,-15.83732,-31.79032,-41.68219,1000.313
8.492050171,6.994615,3.813292,1.491634,-0.03453342,-0.0007422364,0.9952832,-15.83732,-31.79032,-41.68219,1000.313
8.511868477,6.627214,3.692266,1.797446,-0.0238544,-0.001190195,0.9884649,-15.83732,-31.79032,-41.68219,1000.314
8.531686306,1.667303,6.717902,1.613959,-0.03368445,0.02312913,0.9982972,-16.20786,-31.7943,-41.6808,1000.314
8.551504612,-2.251639,7.686105,1.430471,-0.02619335,-0.01482495,0.9932345,-16.20786,-31.7943,-41.6808,1000.312
8.571323395,3.19814,6.838927,3.754644,-0.02772206,0.0002727078,0.9976646,-14.781,-32.13851,-41.29963,1000.312
8.591141224,2.891973,7.746618,6.13998,-0.03791297,0.009524149,1.019488,-14.781,-32.13851,-41.29963,1000.314
8.610959530,-3.537542,5.991749,5.467194,-0.05484561,-0.003211089,1.024825,-14.781,-32.13851,-41.29963,1000.314
8.630777359,-0.1084674,4.055343,4.305107,-0.04457494,-0.01436101,1.023264,-15.51703,-32.52039,-41.67039,1000.313
8.650595665,3.443074,2.4215,5.344869,-0.04464918,-0.009036482,1.010259,-15.51703,-32.52039,-41.67039,1000.313
8.670413494,9.627654,-0.1805463,8.280666,-0.03350615,-0.003142531,1.007332,-15.51703,-32.52039,-41.67039,1000.313
8.690232277,10.11752,-1.511826,11.82809,-0.02686864,0.02952485,1.010842,-15.15154,-32.14249,-41.29824,1000.313
8.712527752,1.912237,-1.814389,11.27763,-0.01615087,0.02568248,1.009799,-15.15154,-32.14249,-41.29824,1000.317
8.732345581,0.3201669,-1.693364,9.565078,-0.004389082,0.006741113,1.00481,-15.51633,-32.51317,-41.29037,1000.317
8.752164364,-3.047674,-0.3015717,11.21646,0.0005106095,-0.007384995,0.9921612,-15.51633,-32.51317,-41.29037,1000.316
8.771982193,1.78977,1.876886,11.58344,-0.005751676,-0.01519679,0.9969821,-15.81456,-33.18877,-41.27733,1000.316
8.791800499,-2.374106,1.271759,11.03298,-0.01354424,-0.003512202,1.013013,-15.81456,-33.18877,-41.27733,1000.314
8.811618328,-2.006705,-2.419516,7.730205,-0.01300084,-0.02400152,0.9960113,-15.81456,-33.18877,-41.27733,1000.314
8.831436634,2.830739,-4.174385,5.956493,0.0006042789,-0.02882842,0.9843277,-15.81961,-32.81486,-40.9038,1000.315
8.851255417,6.19858,-4.840024,5.222544,0.002457521,-0.01030702,0.9877915,-15.81961,-32.81486,-40.9038,1000.315
8.871073246,2.891973,-3.024643,5.406031,0.005855891,-0.005404924,0.9940729,-15.81961,-32.81486,-40.9038,1000.313
8.890891552,0.8712681,-0.7251607,3.571157,0.004805776,0.004312127,0.987371,-17.31301,-32.16573,-41.29014,1000.313
8.910709381,-4.21111,1.695347,1.185821,0.0005324099,-0.01128039,0.9921411,-17.31301,-32.16573,-41.29014,1000.313
8.930527687,0.7488011,0.1220172,1.430471,0.01757726,-0.02241969,0.9804063,-17.31876,-31.79903,-41.29662,1000.313
8.950345516,3.443074,-1.451313,3.020695,0.01615931,-0.01946468,0.997323,-17.31876,-31.79903,-41.29662,1000.31
8.970164299,2.402105,-1.269775,2.65372,0.02195166,-0.01164368,0.9973314,-17.31876,-31.79903,-41.29662,1000.31
8.992459774,-2.925207,0.7876569,0.3295469,0.01474783,-0.02237151,1.006487,-17.6893,-31.80302,-41.29523,1000.311
9.012277603,-2.680273,1.271759,-0.6490523,0.02887196,-0.03450562,0.9923493,-17.6893,-31.80302,-41.29523,1000.311
9.032096386,-3.415075,2.482013,-2.055789,0.01918354,-0.03990626,0.9947881,-17.68284,-32.16249,-40.90874,1000.313
9.051914215,-1.02697,2.784576,-1.444164,0.02360344,-0.05549683,0.9816514,-17.68284,-32.16249,-40.90874,1000.313
9.071732521,6.688447,3.32919,1.308146,0.01864373,-0.03505829,0.987093,-17.68284,-32.16249,-40.90874,1000.315
9.091550350,4.361576,4.055343,1.308146,0.02198007,-0.01260113,1.004084,-18.05984,-31.807,-41.29385,1000.315
9.111368656,0.4426338,5.023546,-1.444164,0.02202706,-0.01305641,1.017114,-18.05984,-31.807,-41.29385,1000.312
9.131187439,-3.476308,4.418419,-2.422764,0.04543563,-0.03097759,1.006274,-16.94176,-32.15453,-40.91151,1000.312
9.151005268,-1.945472,6.475851,-2.239276,0.03808614,-0.02421012,1.001523,-16.94176,-32.15453,-40.91151,1000.314
9.170823574,0.5038673,5.205084,-2.912063,0.05458587,-0.02072779,0.9966234,-16.94176,-32.15453,-40.91151,1000.314
9.190641403,3.565541,3.631754,-1.444164,0.07056493,-0.01140605,0.9912745,-18.43542,-31.43707,-40.91892,1000.311
9.210459709,1.973471,2.966114,-0.6490523,0.08317525,0.0003678345,1.000437,-18.43542,-31.43707,-40.91892,1000.311
9.230278492,-0.5371017,3.752779,-1.138352,0.08321442,-0.0113371,0.9926535,-17.68284,-32.16249,-40.90874,1000.312
9.252573490,0.3201669,4.963033,-0.5878899,0.08173955,-0.01233374,0.9863817,-17.68284,-32.16249,-40.90874,1000.312
9.272391796,1.054968,6.354825,-0.2820776,0.07828694,0.008635616,1.006781,-17.68284,-32.16249,-40.90874,1000.314
9.292209625,-0.8432691,6.294313,0.02373465,0.06174843,0.007081065,1.003484,-18.04763,-32.53317,-40.90087,1000.314
9.312028408,-0.7820356,4.478932,1.124659,0.06274294,0.006123968,1.008301,-18.04763,-32.53317,-40.90087,1000.313
9.331846714,1.912237,2.966114,1.858608,0.06761425,-0.005578063,0.9913206,-18.42392,-32.17046,-40.90596,1000.313
9.351664543,1.361136,1.634835,1.308146,0.06418874,0.001722247,0.9971689,-18.42392,-32.17046,-40.90596,1000.315
9.371482849,-0.4146348,2.784576,-0.465565,0.06129033,-0.005611955,0.9908723,-18.42392,-32.17046,-40.90596,1000.315
9.391300678,0.2589334,3.208165,-1.260677,0.06614819,-0.003146305,0.9932717,-18.78308,-32.8383,-40.44934,1000.317
9.411119461,1.78977,0.6061188,-0.465565,0.05344522,0.001635237,0.9841949,-18.78308,-32.8383,-40.44934,1000.317
9.430936813,3.075673,0.364068,-1.321839,0.05389624,0.01530094,0.9963295,-18.78941,-32.54836,-41.27811,1000.317
9.450755596,-4.21111,2.784576,-4.012987,0.04626667,0.0002140489,1.016084,-18.78941,-32.54836,-41.27811,1000.317
9.470573902,-2.98644,1.271759,-5.358562,0.04476738,0.009466266,1.019518,-18.78941,-32.54836,-41.27811,1000.318
9.490391731,-1.945472,-1.027724,-4.502287,0.04293814,-0.01246009,1.017485,-20.19773,-33.22026,-40.43753,1000.318
9.510210514,-1.21067,-1.269775,-4.196475,0.05357912,0.001242056,1.022807,-20.19773,-33.22026,-40.43753,1000.316
9.532505512,-0.4146348,-2.480029,-4.808099,0.02307572,-0.01104158,1.0427,-20.20827,-32.54799,-40.44941,1000.316
9.552323818,3.994175,-7.744634,-4.930424,0.01535775,-0.01739194,1.050915,-20.20827,-32.54799,-40.44941,1000.319
9.572142601,2.279638,-9.196939,-5.970186,0.01871104,0.005566199,1.073701,-20.20827,-32.54799,-40.44941,1000.319
9.591959953,-3.476308,-10.95181,-6.58181,0.03437269,-0.01677054,1.065777,-21.33068,-31.81933,-40.07819,1000.32
9.611778736,1.973471,-6.836944,-4.07415,0.03534804,-0.02018569,1.060928,-21.33068,-31.81933,-40.07819,1000.32
9.631596565,0.6875677,-2.601054,-2.667413,0.01446944,-0.00511489,1.095872,-21.70544,-31.44098,-39.25991,1000.318
9.651414871,-5.925647,3.32919,-5.175074,0.002422338,-0.02856425,1.090026,-21.70544,-31.44098,-39.25991,1000.318
9.671233654,-5.864414,5.447135,-6.520648,-0.03931255,-0.04093858,1.096465,-21.70544,-31.44098,-39.25991,1000.314
9.691051483,-4.21111,4.842008,-6.520648,-0.06505653,-0.05522677,1.082535,-22.38546,-31.4555,-39.63738,1000.314
9.710869789,-0.2921678,-1.814389,-6.398323,-0.0714298,-0.06556223,1.05066,-22.38546,-31.4555,-39.63738,1000.317
9.730687618,6.872148,-8.047197,-6.520648,-0.02933864,-0.0523006,1.00754,-22.77747,-29.97707,-38.83855,1000.317
9.750505924,14.4651,-9.983604,-6.398323,-0.009073211,-0.03471014,0.9891773,-22.77747,-29.97707,-38.83855,1000.317
9.770324707,0.6263342,-5.324126,-13.00387,-0.01943326,-0.007002434,0.9917897,-22.77747,-29.97707,-38.83855,1000.317
9.790142536,0.0139995,-4.05336,-17.59105,-0.02711293,-0.04607986,0.9573609,-22.78156,-29.66427,-38.46393,1000.318
9.812438011,10.79109,-7.078995,-14.59409,-0.04607925,-0.04715538,0.9560111,-22.78156,-29.66427,-38.46393,1000.318
9.832255840,16.05717,-7.744634,-12.02527,-0.01846752,-0.03046821,0.9511188,-23.15714,-29.29434,-38.089,1000.315
9.852074146,15.1999,-1.14875,-11.23016,-0.01369178,-0.002151031,0.9719933,-23.15714,-29.29434,-38.089,1000.315
9.871892929,6.259813,2.542525,-13.06503,-0.0190315,0.002228212,0.9821813,-23.15714,-29.29434,-38.089,1000.318
9.891710758,3.994175,1.332271,-12.20876,6.645429E-05,-0.03668969,0.956295,-23.53189,-28.91599,-37.27072,1000.318
9.911529064,9.872588,0.9691951,-7.682735,0.01988264,-0.02396396,0.9408062,-23.53189,-28.91599,-37.27072,1000.315
9.931347847,3.075673,3.631754,-6.214836,0.01979287,0.002370973,0.9578356,-23.16136,-28.91201,-37.27211,1000.315
9.951165676,-1.639304,4.297394,-7.499248,0.01597716,-0.02986117,0.9267995,-23.16136,-28.91201,-37.27211,1000.318
9.970983982,1.851004,2.482013,-6.520648,0.03695738,-0.04632596,0.91936,-23.16136,-28.91201,-37.27211,1000.318
9.990801811,2.402105,4.902521,-6.765298,0.03741071,-0.02483666,0.9450498,-22.05396,-28.51772,-36.45938,1000.32
10.010620117,-1.700538,7.56508,-8.967146,0.0199046,-0.01759293,0.9577324,-22.05396,-28.51772,-36.45938,1000.32
10.030438900,-0.7820356,7.14149,-7.988547,0.01741349,-0.01080381,0.9515062,-22.05396,-28.51772,-36.45938,1000.318
10.050256729,6.137346,2.724063,-4.624612,0.02860631,-0.001452168,0.9688693,-22.42942,-28.1466,-36.02112,1000.318
10.072552204,5.525012,1.271759,-2.789738,0.03337868,0.02099614,0.9790947,-22.42942,-28.1466,-36.02112,1000.321
10.092370033,0.1976999,1.09022,-2.789738,0.04945046,0.01816233,0.980923,-21.38461,-27.7614,-35.65152,1000.321
10.112188816,-4.02741,0.0009917939,-1.566489,0.09526949,-0.002548208,0.9767044,-21.38461,-27.7614,-35.65152,1000.317
10.132007122,-2.435339,0.9086823,0.3295469,0.09977298,-0.01954565,0.9857632,-21.38461,-27.7614,-35.65152,1000.317
10.151824951,-2.557806,3.692266,0.7576842,0.06739959,-0.03765197,1.018187,-21.02404,-27.00839,-34.84249,1000.32
10.171643257,-1.21067,2.360987,1.613959,0.01162796,-0.04174073,1.058051,-21.02404,-27.00839,-34.84249,1000.32
10.191461086,-3.476308,0.7876569,3.938132,-0.02518948,-0.05111796,1.085234,-21.76933,-26.63402,-34.02283,1000.322
10.211279869,-0.2921678,-4.174385,2.470233,-0.05145324,-0.03707799,1.108136,-21.76933,-26.63402,-34.02283,1000.322
10.231098175,-6.782916,-7.381558,1.246984,-0.05345948,-0.01855445,1.120792,-21.76933,-26.63402,-34.02283,1000.322
10.250916004,-2.741507,-14.88513,2.347908,-0.03979557,-0.03947212,1.099854,-21.04538,-25.59551,-34.48732,1000.322
10.270734310,2.463338,-25.95896,7.179742,0.001974948,-0.05493803,1.058036,-21.04538,-25.59551,-34.48732,1000.324
10.290553093,12.81179,-28.0769,12.56204,0.05035758,-0.01966644,1.042024,-21.06685,-24.11309,-33.68987,1000.324
10.310370922,2.708272,-16.27693,11.39995,-0.0006772236,0.07312009,1.061604,-21.06685,-24.11309,-33.68987,1000.323
10.330189228,-14.31463,-10.70976,10.36019,-0.0195976,0.03883409,1.019056,-21.06685,-24.11309,-33.68987,1000.323
10.352484226,-14.68203,2.845089,9.809728,-0.07420459,0.04969756,0.9972075,-21.44653,-23.35962,-32.43471,1000.325
10.372303009,-19.70318,3.631754,8.402991,-0.09688088,-0.0016228,0.9661766,-21.44653,-23.35962,-32.43471,1000.325
10.392121315,-4.884678,3.873805,7.057417,-0.05928669,-0.04972241,0.9295229,-21.45707,-22.68735,-32.44659,1000.326
10.411939144,0.6875677,10.28815,6.078818,-0.05463606,0.01712625,0.9771432,-21.45707,-22.68735,-32.44659,1000.326
10.431757450,-2.80274,15.67378,1.797446,-0.07217038,0.03706048,1.002441,-21.45707,-22.68735,-32.44659,1000.324
10.451576233,-1.700538,18.69942,0.5741968,-0.08714782,0.0272756,1.015505,-21.47362,-21.58005,-32.08601,1000.324
10.471394062,3.19814,17.42865,3.999295,-0.1091398,0.05984019,1.037996,-21.47362,-21.58005,-32.08601,1000.32
10.491212368,3.01444,10.16713,7.057417,-0.09055787,0.04534215,1.043612,-20.37351,-20.83471,-32.10314,1000.32
10.511030197,5.157611,1.634835,11.21646,-0.04581049,0.01966711,1.002207,-20.37351,-20.83471,-32.10314,1000.321
10.530848503,8.770386,-1.693364,13.90761,0.005072143,0.02273458,0.953194,-20.37351,-20.83471,-32.10314,1000.321
10.550667286,5.280077,-1.451313,14.02994,0.03908449,0.0160446,0.932701,-19.64649,-19.76492,-30.92089,1000.318
10.570485115,-0.2309344,1.09022,11.21646,0.0405259,0.010662,0.9186677,-19.64649,-19.76492,-30.92089,1000.318
10.590303421,-3.782475,4.055343,8.464154,0.02507606,-0.0172037,0.9060596,-18.96787,-19.76483,-31.30345,1000.318
10.610121727,-2.863973,2.603038,5.589519,0.003191399,-0.007050536,0.9231252,-18.96787,-19.76483,-31.30345,1000.318
10.632417202,-2.006705,-0.6041352,3.326507,0.01342838,-0.006002739,0.9317628,-18.96787,-19.76483,-31.30345,1000.32
10.652235508,-1.639304,-0.9672114,1.980933,0.006084964,0.00468005,0.9352366,-18.60238,-19.38694,-30.9313,1000.32
10.672053337,-0.8432691,-1.209262,0.6965217,0.0007593802,0.004180672,0.941538,-18.60238,-19.38694,-30.9313,1000.318
10.691871643,-3.047674,-0.846186,-1.016027,-0.007001615,0.007576996,0.9531823,-18.97713,-19.00859,-30.11302,1000.318
10.711690426,-0.7208021,-4.658486,-2.483926,-0.006435173,-0.007029394,0.9526214,-18.97713,-19.00859,-30.11302,1000.319
10.731508255,3.259373,-8.168223,-2.239276,0.01451849,-0.00933587,0.9607004,-18.97713,-19.00859,-30.11302,1000.319
10.751326561,1.299902,-8.107711,-3.095551,0.03197655,0.02200696,0.9974494,-17.12291,-18.97304,-29.29659,1000.319
10.771144867,-2.61904,-9.015401,-5.664374,0.0408114,0.02406558,1.024442,-17.12291,-18.97304,-29.29659,1000.319
10.790962696,-4.517277,-6.897457,-6.704135,0.03901717,0.005586367,1.038354,-16.75883,-18.60958,-29.68447,1000.32
10.810781479,-4.762211,-5.808228,-6.092511,0.0108779,0.008910965,1.064107,-16.75883,-18.60958,-29.68447,1000.32
10.830599308,-5.680713,-7.018482,-6.092511,-0.0138131,-0.006781404,1.071402,-16.75883,-18.60958,-29.68447,1000.32
10.850417614,1.728537,-9.136427,-3.156713,-0.005396713,-0.03303137,1.071704,-16.0343,-17.49431,-29.32667,1000.322
10.870235920,2.769506,-2.843105,-1.383002,-0.00053908,-0.01052213,1.107028,-16.0343,-17.49431,-29.32667,1000.322
10.892531395,-1.761771,9.743537,-5.236237,-0.06553718,-0.006826898,1.163876,-15.70674,-18.57544,-28.48502,1000.32
10.912349701,-9.477188,11.98251,-9.456446,-0.08374607,-0.0419272,1.185999,-15.70674,-18.57544,-28.48502,1000.324
10.932168007,-4.578511,7.686105,-10.80202,-0.1081207,-0.05431639,1.148903,-15.70674,-18.57544,-28.48502,1000.324
10.951985836,6.19858,-4.840024,-6.704135,-0.06021681,-0.06010716,1.067521,-15.34699,-17.83085,-28.11935,1000.321
10.971804619,21.01708,-7.744634,-1.505327,0.02023625,-0.05891003,0.9869618,-15.34699,-17.83085,-28.11935,1000.321
10.991622925,15.0162,1.695347,-3.095551,0.004828685,0.001395268,0.9892866,-14.2288,-18.17718,-27.67368,1000.322
11.011440754,-0.5983351,8.47277,-12.33108,-0.009164497,-0.03575312,0.9606944,-14.2288,-18.17718,-27.67368,1000.322
11.031259060,-0.9045025,11.43789,-14.47177,-0.02615602,-0.07444065,0.906046,-14.2288,-18.17718,-27.67368,1000.324
11.051076889,12.38316,8.291232,-10.61853,-0.02377068,-0.06468373,0.9084965,-13.84676,-18.90658,-27.66211,1000.324
11.070895672,14.95497,9.380461,-8.661334,-0.02891863,0.01086283,0.9494576,-13.84676,-18.90658,-27.66211,1000.324
11.090713978,3.320607,8.533283,-10.25156,-0.05288017,0.03068935,0.9438986,-13.46894,-19.25366,-26.83365,1000.32
11.110531807,2.830739,4.478932,-8.477847,-0.04255471,-0.007309386,0.9142034,-13.46894,-19.25366,-26.83365,1000.32
11.130350113,6.994615,2.360987,-3.707175,-0.04158857,-0.004375774,0.9171093,-13.46894,-19.25366,-26.83365,1000.321
11.150168896,6.137346,1.09022,-1.321839,-0.0411364,0.01320172,0.9360216,-11.67155,-19.59389,-26.45386,1000.321
11.172463894,3.443074,0.364068,0.3295469,-0.01867818,-0.01106388,0.9212937,-11.67155,-19.59389,-26.45386,1000.324
11.192282200,5.341311,-1.572338,1.980933,-0.01816839,-0.01348895,0.9241745,-11.66356,-19.93773,-25.24399,1000.319
11.212100983,4.484043,-6.292329,2.959532,-0.005541791,-0.009036507,0.9260589,-11.66356,-19.93773,-25.24399,1000.319
11.231918812,1.851004,-8.652325,3.38767,0.01583977,-0.007960116,0.9225686,-11.66356,-19.93773,-25.24399,1000.321
11.251737118,2.218405,-6.715919,5.100219,0.0006676996,0.01291485,0.9290337,-11.29948,-19.57427,-25.63188,1000.321
11.271555424,-3.904943,-6.473867,5.834168,-0.005979838,0.003217286,0.9603944,-11.29948,-19.57427,-25.63188,1000.321
11.291373253,-5.313313,-3.145669,7.424392,-0.01456029,-0.01723666,0.9777128,-12.0293,-20.24729,-25.2372,1000.318
11.311192036,-6.476748,1.029708,8.708804,-0.05962892,0.009531584,1.069323,-12.0293,-20.24729,-25.2372,1000.318
11.331010342,-9.905823,-1.330288,10.91065,0.008641226,0.0002380284,1.107033,-12.0293,-20.24729,-25.2372,1000.318
11.350828171,-13.7023,25.90043,14.5804,-0.1038222,0.07045637,1.188617,-11.29724,-19.55141,-24.42849,1000.318
11.370646477,-41.50229,32.79888,6.262305,-0.2634193,0.01809752,1.223492,-11.29724,-19.55141,-24.42849,1000.315
11.390464306,-29.19436,5.326109,3.265345,-0.1956642,-0.117837,1.044314,-11.29724,-19.55141,-24.42849,1000.315
11.410283089,15.3836,-11.07283,17.21038,-0.06510486,-0.1065929,0.9838052,-11.30874,-18.81802,-24.44145,1000.317
11.432578564,23.09902,-10.58873,15.43667,-0.02553291,0.08126476,1.059851,-11.30874,-18.81802,-24.44145,1000.321
11.452396393,-7.21155,-2.237978,3.632319,0.01318355,0.1003964,1.035121,-11.3152,-18.45855,-24.82794,1000.321
11.472215176,-18.60098,12.10353,1.308146,-0.04111597,0.06161465,1.021704,-11.3152,-18.45855,-24.82794,1000.318
11.492033482,-14.9882,16.64198,4.182782,-0.1464037,0.04951121,1.075313,-11.3152,-18.45855,-24.82794,1000.318
11.511851311,-11.19173,7.746618,6.262305,-0.1671381,-0.01060123,1.028781,-10.93245,-19.18073,-24.43636,1000.318
11.531669617,1.973471,-1.330288,8.831128,-0.09787406,0.01351252,0.9850842,-10.93245,-19.18073,-24.43636,1000.316
11.551488400,4.97391,-4.05336,10.78833,-0.015386,0.0186948,0.9373568,-11.6842,-18.44689,-24.00319,1000.316
11.571306229,0.7488011,0.1220172,9.136941,0.02496505,0.0135159,0.9240771,-11.6842,-18.44689,-24.00319,1000.319
11.591124535,-1.088203,5.507648,4.855569,-0.01046663,0.004582758,0.9305,-11.6842,-18.44689,-24.00319,1000.319
11.610942841,-4.21111,4.599957,2.592558,-0.060463,-0.0009857793,0.9500521,-10.58409,-17.70155,-24.02031,1000.317
11.630760670,2.279638,-3.085156,2.470233,-0.08971687,0.01298753,0.951732,-10.58409,-17.70155,-24.02031,1000.317
11.650579453,4.116642,-9.560016,3.632319,-0.06850866,0.04180573,0.9430758,-10.95463,-17.70554,-24.01892,1000.319
11.670397759,3.320607,-10.46771,4.121619,-0.027679,0.03271285,0.921085,-10.95463,-17.70554,-24.01892,1000.319
11.690215588,2.769506,-6.715919,2.103258,-0.006309403,0.03769167,0.9205109,-10.95463,-17.70554,-24.01892,1000.321
11.712511540,-1.516837,-5.566177,-1.321839,0.003956262,0.0206717,0.9078177,-10.95885,-17.3232,-23.20203,1000.321
11.732329846,1.422369,-3.569258,-1.07719,0.007396731,0.02658163,0.9281018,-10.95885,-17.3232,-23.20203,1000.32
11.752147675,-0.4758682,-1.814389,-2.850901,-0.008925899,0.02469249,0.9875508,-10.97021,-16.65935,-23.65726,1000.32
11.771965981,-3.782475,-3.145669,-6.58181,-0.02578968,0.01200646,1.01316,-10.97021,-16.65935,-23.65726,1000.319
11.791784764,-2.006705,-7.442071,-8.355522,-0.02963228,0.008109679,1.020884,-10.97021,-16.65935,-23.65726,1000.319
11.811602593,0.9325016,-10.64924,-10.86318,-0.02517398,0.001835121,1.034342,-11.34568,-16.28822,-23.219,1000.32
11.831420899,2.769506,-12.8277,-12.08643,-0.001723087,-0.0004118988,1.061715,-11.34568,-16.28822,-23.219,1000.32
11.851239205,2.891973,-13.25129,-12.33108,0.004143668,0.01235099,1.091674,-10.96389,-16.94929,-22.82849,1000.318
11.871057034,-1.21067,-13.73539,-13.37084,-0.02490181,0.002029638,1.114466,-10.96389,-16.94929,-22.82849,1000.318
11.890875817,1.973471,-18.87897,-14.34944,-0.01259725,-0.04229022,1.084245,-10.96389,-16.94929,-22.82849,1000.318
11.910694123,7.362016,-19.06051,-14.59409,0.01649912,-0.02753264,1.083679,-10.60389,-16.27303,-22.84176,1000.318
11.930511952,6.56598,-19.30256,-16.8571,0.03483561,-0.01140716,1.067733,-10.60389,-16.27303,-22.84176,1000.315
11.950330258,4.545276,-14.82462,-18.87546,0.07580582,-0.04973192,1.038834,-10.59253,-16.93689,-22.38653,1000.315
11.970149040,7.97435,0.5456061,-19.67058,0.01439899,-0.002232012,1.079959,-10.59253,-16.93689,-22.38653,1000.319
11.992444038,-2.435339,4.902521,-20.95499,-0.04271517,-0.03802176,1.101808,-10.59253,-16.93689,-22.38653,1000.319
12.012262344,5.035144,4.115856,-18.50849,-0.03431323,-0.07992596,1.072104,-10.60307,-16.26461,-22.39841,1000.318
12.032081127,7.423249,6.717902,-16.24548,-0.07580312,-0.04211643,1.090384,-10.60307,-16.26461,-22.39841,1000.318
12.051898956,1.483603,6.717902,-19.18128,-0.1099424,-0.04773901,1.053376,-10.23182,-16.25341,-22.01978,1000.32
12.071717262,6.38228,0.1825299,-17.52989,-0.08873921,-0.0565675,0.9812956,-10.23182,-16.25341,-22.01978,1000.32
12.091535568,14.95497,-5.62669,-13.79898,-0.0288233,-0.009112788,0.9445277,-10.23182,-16.25341,-22.01978,1000.319
12.111353397,12.13823,-4.476948,-10.86318,-0.0077292,0.02744581,0.9151567,-10.60165,-16.25018,-21.63837,1000.319
12.131172180,2.524572,-3.327207,-10.92435,0.01843382,0.03728858,0.9020317,-10.60165,-16.25018,-21.63837,1000.321
12.150990486,-1.578071,1.695347,-9.823421,0.02100816,0.005626461,0.8917187,-10.23182,-16.25341,-22.01978,1000.321
12.170808315,4.055408,1.513809,-5.847861,-0.01197344,-0.01305836,0.8874592,-10.23182,-16.25341,-22.01978,1000.32
12.190626621,4.97391,-2.05644,-2.606251,-0.0232341,0.008829332,0.9016309,-10.23182,-16.25341,-22.01978,1000.32
12.210445404,6.872148,-1.935415,-0.5878899,-0.007762591,0.02399984,0.8996934,-9.558255,-15.87942,-22.0288,1000.317
12.230263233,3.19814,-3.266694,3.693482,0.02238059,0.02757139,0.9024429,-9.558255,-15.87942,-22.0288,1000.317
12.252558708,2.463338,-1.451313,7.485555,0.05799868,0.004372203,0.8977847,-9.552504,-16.24611,-22.02232,1000.315
12.272377491,-0.3534013,0.5456061,6.751605,0.04348639,0.003374406,0.9190968,-9.552504,-16.24611,-22.02232,1000.315
12.292195320,-2.251639,-1.451313,6.078818,0.04513734,-0.02385769,0.9305322,-9.552504,-16.24611,-22.02232,1000.316
12.312013626,1.177435,-4.900537,6.812768,0.05147385,-0.02283706,0.9362949,-9.56905,-15.13881,-21.66175,1000.316
12.331831932,0.2589334,-4.113872,6.323468,0.06699456,-0.006164764,0.9512586,-9.56905,-15.13881,-21.66175,1000.316
12.351649761,1.177435,-2.298491,7.974854,0.07528938,-0.01245786,0.9487675,-10.24262,-15.51281,-21.65272,1000.316
12.371468544,-0.3534013,-1.209262,8.402991,0.05291322,0.01626623,0.9948919,-10.24262,-15.51281,-21.65272,1000.317
12.391286850,-3.476308,0.6061188,6.38463,0.02000713,0.003501842,1.022519,-10.24262,-15.51281,-21.65272,1000.317
12.411104679,-4.945911,-3.38772,6.812768,-0.0276299,0.02233781,1.061008,-9.89004,-14.41595,-22.05357,1000.315
12.430922985,-8.681153,-12.76719,7.485555,-0.002249298,0.0005348257,1.051586,-9.89004,-14.41595,-22.05357,1000.315
12.450741768,-3.904943,-14.64308,9.565078,0.06211793,-0.02540929,1.058341,-9.889333,-14.40874,-21.67355,1000.319
12.470559597,-0.8432691,-12.3436,14.39691,0.09622144,-0.003679536,1.111361,-9.889333,-14.40874,-21.67355,1000.319
12.490377903,-5.80318,-0.7251607,16.65992,0.06361175,0.03573216,1.16918,-9.889333,-14.40874,-21.67355,1000.317
12.510196686,-21.47895,12.28507,15.98714,-0.009142479,0.03989397,1.234279,-9.889333,-14.40874,-21.67355,1000.317
12.532492161,-38.80802,20.0307,9.932053,-0.1743567,0.005893381,1.221011,-9.889333,-14.40874,-21.67355,1000.318
12.552309990,-22.88732,-1.693364,9.136941,-0.1581273,-0.1239345,1.060006,-10.27137,-13.67933,-21.68512,1000.318
12.572128773,17.58801,-18.93948,18.73945,-0.02437462,-0.1123347,0.9381811,-10.27137,-13.67933,-21.68512,1000.321
12.591947079,27.814,-9.862579,20.02386,0.02941317,0.05612127,1.015015,-10.27137,-13.67933,-21.68512,1000.321
12.611764908,-4.945911,9.198922,6.201143,0.02403163,0.07709228,1.040251,-9.923588,-12.2769,-22.09137,1000.317
12.631583214,-17.74371,19.36506,1.124659,-0.03015722,-0.01440854,0.9725032,-9.923588,-12.2769,-22.09137,1000.317
12.651401997,2.279638,12.76917,7.36323,-0.06114846,-0.05407261,0.9468871,-10.29413,-12.28088,-22.08998,1000.318
12.671219826,15.62853,2.239962,12.92901,-0.05071727,5.598413E-05,0.9572443,-10.29413,-12.28088,-22.08998,1000.318
12.691038132,10.54616,1.816373,12.19506,0.01090313,0.019828,0.9468724,-10.29413,-12.28088,-22.08998,1000.318
12.710856438,-3.108907,2.482013,8.831128,0.04877394,0.01802389,0.9249352,-9.934382,-11.53629,-21.72431,1000.318
12.730674267,-5.986881,5.205084,7.11858,0.03831026,-0.05177184,0.8792623,-9.934382,-11.53629,-21.72431,1000.315
12.750493050,2.585805,4.176368,5.222544,0.0232068,-0.04698062,0.8793696,-9.934382,-11.53629,-21.72431,1000.315
12.770311356,3.136906,3.147652,2.837208,0.02155608,-0.00508219,0.8921434,-10.30492,-11.54028,-21.72292,1000.316
12.790129185,0.7488011,4.66047,1.124659,0.02450634,-0.002599656,0.905655,-10.30492,-11.54028,-21.72292,1000.316
12.812425137,-7.02785,7.504567,-3.095551,0.01341466,-0.009434647,0.9220917,-10.3156,-10.79847,-21.29253,1000.318
12.832243443,-4.945911,7.746618,-4.930424,0.01846335,-0.03665381,0.9315778,-10.3156,-10.79847,-21.29253,1000.318
12.852061749,3.320607,5.447135,-6.031348,0.01993296,-0.02148364,0.9596431,-10.3156,-10.79847,-21.29253,1000.318
12.871879578,-0.1697009,3.571241,-7.376923,0.01302615,0.02485379,1.007221,-9.641069,-10.48558,-21.30047,1000.318
12.891698361,-3.415075,2.542525,-9.456446,-6.493344E-05,0.01943669,1.010161,-9.641069,-10.48558,-21.30047,1000.315
12.911516667,-1.455604,-3.811309,-8.844821,-0.0009553314,0.002379926,1.006217,-9.653398,-9.760612,-21.75679,1000.315
12.931334496,1.422369,-9.136427,-8.661334,0.02863213,0.006877108,0.9901499,-9.653398,-9.760612,-21.75679,1000.317
12.951152802,1.912237,-11.01232,-8.355522,0.05338146,0.0133226,0.9847379,-9.653398,-9.760612,-21.75679,1000.317
12.970971585,0.2589334,-8.652325,-8.844821,0.06406732,0.03047892,1.008901,-8.911496,-9.744227,-21.31621,1000.314
12.990789413,-6.170581,-6.231817,-10.06807,0.05261815,0.01444492,1.047979,-8.911496,-9.744227,-21.31621,1000.314
13.010607719,-7.272783,-4.96105,-10.86318,0.01391363,-0.01005579,1.067372,-9.639536,-10.46995,-20.4771,1000.316
13.030426025,-0.7820356,-9.620528,-9.517609,0.01998133,-0.044081,1.079231,-9.639536,-10.46995,-20.4771,1000.316
13.050244808,2.218405,-7.260533,-8.905984,0.02779954,-0.02299283,1.124668,-9.639536,-10.46995,-20.4771,1000.318
13.072539806,-4.945911,3.268678,-11.78062,-0.03140732,-0.01245514,1.179589,-9.66254,-9.003166,-20.50302,1000.318
13.092358112,-2.006705,7.383542,-12.33108,-0.07988546,-0.03948416,1.181164,-9.66254,-9.003166,-20.50302,1000.317
13.112176895,-6.354281,9.198922,-13.49317,-0.14219,-0.0242013,1.191237,-9.291295,-8.991966,-20.12439,1000.317
13.131994724,2.279638,-3.629771,-11.35248,-0.1072814,-0.05489554,1.108833,-9.291295,-8.991966,-20.12439,1000.317
13.151813030,9.260253,-8.470787,-6.337161,-0.01803834,-0.05509395,1.036424,-9.291295,-8.991966,-20.12439,1000.317
13.171631336,9.443954,1.453297,-5.175074,-0.006135264,-0.01561475,1.026425,-9.302797,-8.258575,-20.13735,1000.314
13.191449165,-1.516837,9.501486,-7.438085,-0.04558491,-0.02417016,0.9961888,-9.302797,-8.258575,-20.13735,1000.314
13.211267948,1.238669,6.838927,-8.294359,-0.06305059,-0.05356295,0.9604151,-9.97554,-8.624153,-19.68497,1000.315
13.231086254,9.750121,0.7876569,-4.746937,-0.03301569,-0.05446864,0.9240453,-9.97554,-8.624153,-19.68497,1000.315
13.250904560,15.50607,-1.693364,-3.095551,-0.0103998,-0.02030195,0.9091339,-9.97554,-8.624153,-19.68497,1000.311
13.270722389,10.05629,3.147652,-2.973226,-0.005656358,0.004081161,0.9140599,-9.667583,-8.629254,-20.12948,1000.311
13.290541172,5.769945,5.205084,-2.973226,-0.003719952,-0.006670326,0.8937217,-9.667583,-8.629254,-20.12948,1000.312
13.310359478,6.259813,4.842008,-0.9548646,-0.01723667,-0.01057995,0.9169441,-9.300438,-8.23452,-18.87063,1000.312
13.330177307,6.259813,1.150733,0.08489711,-0.02793917,-0.009171031,0.9184579,-9.300438,-8.23452,-18.87063,1000.314
13.352473259,4.667743,-0.846186,3.265345,0.006090899,-0.000204429,0.9289366,-9.300438,-8.23452,-18.87063,1000.314
13.372291565,4.300342,0.1220172,6.935092,0.02323658,-0.02935993,0.9171088,-9.980583,-8.250241,-19.31144,1000.308
13.392109394,3.932941,1.332271,7.791367,0.01603106,-0.04302219,0.9209395,-9.980583,-8.250241,-19.31144,1000.308
13.411927700,2.279638,0.6061188,4.182782,0.007392388,-0.0468961,0.9484796,-9.676846,-7.87301,-18.93905,1000.309
13.431746483,0.8100346,-0.1200336,1.430471,0.02162619,-0.07068476,0.9473141,-9.676846,-7.87301,-18.93905,1000.309
13.451564789,4.361576,-1.572338,0.8800091,0.02253682,-0.05312466,0.9580182,-9.676846,-7.87301,-18.93905,1000.306
13.471382618,7.423249,-3.992847,1.736283,0.0572767,-0.007186607,0.9522719,-9.995344,-7.195635,-18.50642,1000.306
13.491200924,7.117082,-1.3908,4.243944,0.07025939,0.02259663,0.9576632,-9.995344,-7.195635,-18.50642,1000.308
13.511019707,-2.557806,-0.7251607,4.060457,0.05134193,0.03426669,0.9916143,-10.35956,-7.48956,-17.67627,1000.308
13.530837536,-4.02741,-2.540542,5.589519,0.03980572,0.00937079,0.9905841,-10.35956,-7.48956,-17.67627,1000.305
13.550655842,-1.578071,-3.024643,7.669042,0.02196767,-0.001854806,1.018137,-10.35956,-7.48956,-17.67627,1000.305
13.570474625,-5.068378,-6.594893,7.36323,0.02109564,0.003100805,1.055816,-10.73009,-7.493544,-17.67488,1000.307
13.590292931,-4.02741,-10.46771,8.341829,0.03919142,-0.03584323,1.021247,-10.73009,-7.493544,-17.67488,1000.307
13.610110760,-3.231374,-12.40411,10.72717,0.0932273,-0.05068078,1.011704,-10.36435,-7.183981,-17.68167,1000.31
13.632406235,0.993735,-7.986685,13.47948,0.1228609,-0.03148446,1.033361,-10.36435,-7.183981,-17.68167,1000.31
13.652225018,-7.517717,7.686105,13.35715,0.03008461,0.005269575,1.12818,-10.36435,-7.183981,-17.68167,1000.306
13.672042847,-21.47895,14.58455,10.72717,-0.0771515,0.006353402,1.202622,-11.48171,-6.829234,-17.68398,1000.306
13.691861153,-25.94899,16.7025,6.445793,-0.1932152,-0.01710429,1.215204,-11.48171,-6.829234,-17.68398,1000.308
13.711679936,-15.04943,-1.511826,6.323468,-0.1630179,-0.08584715,1.114771,-11.858,-6.466522,-17.68907,1000.308
13.731498242,11.70959,-17.91077,13.35715,-0.02343319,-0.08204192,0.9788765,-11.858,-6.466522,-17.68907,1000.311
13.751316071,25.05849,-9.983604,16.5376,0.04835146,0.04691045,0.9912128,-11.858,-6.466522,-17.68907,1000.311
13.771134377,-2.680273,11.19584,6.812768,0.009850853,0.1014077,1.05783,-12.60905,-5.725461,-16.87588,1000.307
13.790953160,-19.15207,18.75993,1.491634,-0.06377721,0.02937107,1.026489,-12.60905,-5.725461,-16.87588,1000.307
13.810771465,-5.986881,7.988668,7.669042,-0.1019921,-0.02983469,0.9897109,-12.23851,-5.721478,-16.87727,1000.31
13.830589295,10.17875,-3.811309,14.27459,-0.06042404,0.008819503,0.977615,-12.23851,-5.721478,-16.87727,1000.31
13.850407601,7.668183,-4.113872,14.70272,0.001116637,0.03342327,0.9518225,-12.23851,-5.721478,-16.87727,1000.308
13.870226383,-2.496573,-0.846186,11.21646,0.05319485,-0.002454675,0.9040506,-12.98463,-5.355532,-16.50096,1000.308
13.892521382,-0.9045025,5.144571,10.29903,0.0531841,-0.0264171,0.861452,-12.98463,-5.355532,-16.50096,1000.31
13.912339688,0.3814003,7.020465,9.259266,0.01425952,-0.003654482,0.8941214,-12.98534,-5.362748,-16.88098,1000.31
13.932158470,-1.578071,8.47277,6.996255,-0.007063706,-0.01397775,0.8994946,-12.98534,-5.362748,-16.88098,1000.308
13.951976776,-1.02697,7.988668,6.262305,-0.008402655,-0.02661018,0.9139174,-12.98534,-5.362748,-16.88098,1000.308
13.971794605,1.60607,7.14149,4.182782,0.001000666,-0.04893394,0.9248528,-13.29987,-4.999372,-16.8863,1000.309
13.991612911,4.728976,6.294313,1.308146,0.01412354,-0.03713879,0.9417353,-13.29987,-4.999372,-16.8863,1000.309
14.011431694,3.443074,5.023546,-2.606251,0.02525746,-0.02049617,0.9538268,-13.28837,-5.732763,-16.87334,1000.313
14.031249523,3.810475,3.571241,-4.257637,0.02858604,-0.004888762,0.9572675,-13.28837,-5.732763,-16.87334,1000.313
14.051067829,6.872148,0.8481696,-1.627652,0.0270089,0.0238627,0.9699734,-13.28837,-5.732763,-16.87334,1000.312
14.070886135,3.994175,-2.903618,-1.07719,0.03477126,0.03757787,0.9868951,-14.04024,-5.000121,-16.5035,1000.312
14.090704918,1.116202,-4.840024,-1.627652,0.0532975,0.02597326,0.980942,-14.04024,-5.000121,-16.5035,1000.314
14.110522747,2.095937,-5.142588,-0.2820776,0.06062186,0.02016557,0.9799066,-14.04024,-5.000121,-16.5035,1000.314
14.130341053,-0.2309344,-4.29541,0.8800091,0.0611428,0.03192576,1.009408,-14.41078,-5.004104,-16.50212,1000.311
14.150159359,-7.272783,0.4245807,0.4518718,0.04282885,0.02412721,1.045669,-14.41078,-5.004104,-16.50212,1000.311
14.172455311,-8.313752,1.150733,-1.016027,-0.01476872,-0.0004189217,1.086886,-14.39845,-5.729075,-16.0458,1000.311
14.192273140,-2.61904,-2.964131,0.7576842,-0.03986654,-0.03414525,1.087815,-14.39845,-5.729075,-16.0458,1000.311
14.212091446,5.035144,-7.321045,3.632319,-0.01988542,-0.0291236,1.108004,-14.39845,-5.729075,-16.0458,1000.311
14.231910229,3.136906,-0.7251607,-0.09859026,-0.01538803,-0.01679307,1.163551,-15.15032,-4.996433,-15.67597,1000.311
14.251728058,-8.374986,4.418419,-9.701096,-0.04716734,-0.0641522,1.17941,-15.15032,-4.996433,-15.67597,1000.312
14.271546364,-3.415075,-5.082076,-12.63689,-0.03693224,-0.1139484,1.1038,-15.15185,-5.01207,-16.49934,1000.312
14.291364670,13.914,-5.505664,-9.272959,-0.02501912,-0.09597243,1.061352,-15.15185,-5.01207,-16.49934,1000.31
14.311183453,16.17964,-1.14875,-10.86318,-0.02196279,-0.01553962,1.091674,-15.15185,-5.01207,-16.49934,1000.31
14.331001282,1.299902,6.536364,-16.73478,-0.01476027,-0.01899002,1.058795,-15.50935,-5.733807,-15.66162,1000.307
14.350819588,1.116202,13.25327,-15.69502,-0.05713726,-0.03294482,1.016962,-15.50935,-5.733807,-15.66162,1000.307
14.370637894,4.177875,15.85532,-14.53293,-0.1093708,-0.002555456,1.010164,-15.52085,-5.000416,-15.67458,1000.309
14.390456677,5.035144,8.049181,-15.02223,-0.1031158,-0.006970678,0.9830769,-15.52085,-5.000416,-15.67458,1000.309
14.410274506,11.03602,1.332271,-11.53597,-0.04502985,0.007801984,0.9263616,-15.52085,-5.000416,-15.67458,1000.307
14.430092812,14.0977,3.026627,-10.49621,-0.02673646,0.02927426,0.9065819,-14.39845,-5.729075,-16.0458,1000.307
14.452388764,9.933822,5.265597,-10.86318,-0.01620813,0.03898493,0.872304,-14.39845,-5.729075,-16.0458,1000.31
14.472207070,5.769945,6.415338,-11.10783,-0.01861846,0.03898758,0.878592,-14.76981,-5.741477,-16.48777,1000.31
14.492024899,5.463778,9.380461,-7.80506,-0.0141254,0.01856057,0.8789452,-14.76981,-5.741477,-16.48777,1000.308
14.511843681,2.891973,8.23072,-4.502287,-0.04288015,0.04672283,0.9077252,-14.76981,-5.741477,-16.48777,1000.308
14.531661987,1.544836,7.323029,-3.034388,-0.04315703,0.02047092,0.9259337,-15.13952,-5.737041,-16.04303,1000.31
14.551480293,2.218405,2.603038,-0.8937021,-0.02984177,-0.003284102,0.9407018,-15.13952,-5.737041,-16.04303,1000.31
14.571298123,4.60651,-4.840024,0.9411715,-0.001154322,-0.001184393,0.9420036,-15.50514,-6.116138,-16.47851,1000.311
14.591116905,3.626774,-5.263614,1.002334,0.0347762,0.004338105,0.9336298,-15.50514,-6.116138,-16.47851,1000.311
14.610935211,3.626774,-3.508745,2.470233,0.0367487,-0.00492097,0.9263312,-15.50514,-6.116138,-16.47851,1000.308
14.630753517,3.810475,-6.292329,4.610919,0.0371419,0.01554761,0.9327091,-15.50514,-6.116138,-16.47851,1000.308
14.650571346,2.279638,-6.53438,5.773006,0.02980788,0.03308133,0.9502156,-15.50514,-6.116138,-16.47851,1000.308
14.670390129,-1.271903,-3.085156,7.11858,0.02219978,0.0282761,0.9931909,-15.12955,-6.486068,-16.85344,1000.308
14.690208435,-8.191285,0.4245807,6.506955,-0.04321636,0.03006213,1.066925,-15.12955,-6.486068,-16.85344,1000.307
14.712504387,-8.558686,-7.563096,7.974854,-0.06341386,-0.01143451,1.065858,-15.12955,-6.486068,-16.85344,1000.307
14.732322216,-1.149436,-14.15898,13.23483,-0.02201934,-0.03220168,1.047665,-15.88142,-5.753426,-16.4836,1000.303
14.752140522,1.361136,-15.73231,15.49784,0.03437699,-0.02165619,1.058995,-15.88142,-5.753426,-16.4836,1000.303
14.771958828,-0.965736,-6.897457,15.00854,0.052383,0.0004446271,1.098589,-15.50584,-6.123355,-16.85853,1000.307
14.791777611,-18.04987,8.654308,11.58344,-0.04868246,0.02100769,1.160548,-15.50584,-6.123355,-16.85853,1000.307
14.811595440,-25.21419,7.444054,7.057417,-0.123339,-0.02076381,1.162673,-15.50584,-6.123355,-16.85853,1000.304
14.831413746,-18.11111,5.507648,5.711843,-0.1588656,-0.0542084,1.100913,-15.15256,-5.019287,-16.87936,1000.304
14.851232052,-4.333577,-8.591812,5.344869,-0.1036923,-0.04482458,1.036946,-15.15256,-5.019287,-16.87936,1000.305
14.871050835,11.58712,-15.00616,6.62928,0.02140451,-0.02195598,0.9625286,-16.20242,-5.030571,-16.87542,1000.305
14.890868664,7.79065,1.75586,4.610919,0.04824111,0.08545249,1.022303,-16.20242,-5.030571,-16.87542,1000.301
14.910686970,-15.11067,22.87479,-1.383002,-0.04052885,0.07684425,1.076322,-16.20242,-5.030571,-16.87542,1000.301
14.930505276,-27.60229,25.53735,-4.318799,-0.1411909,-0.004967534,1.088037,-16.5835,-4.36228,-16.88592,1000.304
14.950324059,-4.21111,10.28815,0.9411715,-0.1595536,-0.05582167,1.039126,-16.5835,-4.36228,-16.88592,1000.304
14.970141888,16.54704,-2.843105,10.42135,-0.09769389,0.001908362,1.018811,-15.536,-4.375051,-18.15657,1000.306
14.992437363,12.26069,-8.289248,9.993216,-0.02035241,0.06503879,0.9834765,-15.536,-4.375051,-18.15657,1000.306
15.012256145,-1.088203,-2.601054,6.751605,0.03688168,0.04616058,0.9068031,-15.536,-4.375051,-18.15657,1000.304
15.032074451,-4.02741,-0.05952091,6.13998,0.02435138,0.01391125,0.8873989,-16.22024,-4.007238,-17.71716,1000.304
15.051892281,-3.904943,1.09022,6.201143,0.003329505,0.02252431,0.8696991,-16.22024,-4.007238,-17.71716,1000.301
15.071710587,-0.965736,-0.3620844,6.262305,0.0009814547,0.02110485,0.8919079,-16.22753,-3.656179,-18.54701,1000.301
15.091529369,0.1976999,-1.511826,6.506955,0.01513842,0.01192745,0.8922659,-16.22753,-3.656179,-18.54701,1000.303
15.111347675,-3.721242,1.937398,4.610919,0.01624964,-0.004590141,0.90569,-16.22753,-3.656179,-18.54701,1000.303
15.131165504,-3.843709,4.115856,2.164421,0.02073884,-0.02697539,0.901689,-16.24561,-2.564513,-19.0098,1000.304
15.150983810,0.5038673,3.873805,-0.2820776,0.005719091,-0.01625788,0.9360964,-16.24561,-2.564513,-19.0098,1000.304
15.170802593,-0.3534013,3.873805,-2.300439,-0.02289537,0.001249461,0.9884722,-16.25136,-2.197818,-19.01628,1000.3
15.190620899,-7.762651,0.4850934,-6.275998,-0.04217712,-0.0109505,1.018924,-16.25136,-2.197818,-19.01628,1000.3
15.210438728,-4.884678,-3.871821,-7.80506,-0.02273166,-0.01476632,1.01011,-16.25136,-2.197818,-19.01628,1000.299
15.230257511,4.60651,-7.20002,-3.951825,-0.01103964,-0.02153574,1.004701,-15.94399,-2.208933,-19.77747,1000.299
15.252552986,6.014879,-14.03796,-4.135312,0.02869367,0.02794258,1.04287,-15.94399,-2.208933,-19.77747,1000.301
15.272371769,1.973471,-9.620528,-4.685774,0.04286424,0.01486393,1.040794,-16.26427,-1.478861,-19.78928,1000.301
15.292189598,-6.844149,-8.470787,-3.768338,-0.001410934,0.04542011,1.086083,-16.26427,-1.478861,-19.78928,1000.299
15.312007904,-8.436219,-8.228736,-3.217876,-0.03034653,0.001933989,1.0865,-16.26427,-1.478861,-19.78928,1000.299
15.331826210,-5.864414,-8.954888,-1.383002,-0.07106745,-0.0260497,1.079339,-16.26427,-1.478861,-19.78928,1000.296
15.351644993,-1.21067,-13.73539,-2.973226,-0.04806449,-0.05369313,1.076175,-16.26427,-1.478861,-19.78928,1000.296
15.371462822,2.463338,-9.923092,-6.704135,0.01087296,-0.0679893,1.078675,-15.95632,-1.483962,-20.23379,1000.3
15.391281128,0.6263342,-4.174385,-9.272959,0.0842908,-0.05882234,1.087491,-15.95632,-1.483962,-20.23379,1000.3
15.411099434,-1.639304,10.22764,-12.57573,0.01135845,-0.05136573,1.105788,-15.95632,-1.483962,-20.23379,1000.298
15.430918217,-3.231374,8.896359,-16.12315,-0.06746227,-0.04104355,1.113513,-16.27564,-0.8150065,-20.24451,1000.298
15.450736523,3.136906,-4.840024,-13.30968,-0.05342374,-0.07523806,1.037962,-16.27564,-0.8150065,-20.24451,1000.301
15.470554352,11.77083,-4.840024,-9.517609,-0.01630558,-0.01710377,1.03661,-16.27564,-0.8150065,-20.24451,1000.301
15.490372658,8.464218,3.99483,-9.945745,-0.04368246,-0.00414697,1.016554,-15.97415,-0.4606285,-21.07552,1000.297
15.510191441,1.728537,5.084059,-10.80202,-0.07053988,-0.00387464,0.9853279,-15.97415,-0.4606285,-21.07552,1000.297
15.532486916,3.626774,-0.1805463,-8.355522,-0.04338119,-0.02578708,0.9266627,-15.9684,-0.8273239,-21.06904,1000.3
15.552304745,12.62809,-0.9066988,-4.502287,-0.009054978,-0.01695389,0.8811484,-15.9684,-0.8273239,-21.06904,1000.3
15.572123528,13.97523,2.542525,-3.401363,0.01516611,0.0002143091,0.881104,-15.9684,-0.8273239,-21.06904,1000.298
15.591941834,8.770386,9.743537,-5.236237,0.002505844,0.009426215,0.8918396,-15.97485,-0.4678454,-21.45554,1000.298
15.611760140,7.913117,8.593796,-6.948785,-0.01780935,-0.0101553,0.8923329,-15.97485,-0.4678454,-21.45554,1000.299
15.631577969,10.30122,7.504567,-4.135312,-0.02121266,-0.01652755,0.8821825,-15.96993,-0.8429604,-21.89241,1000.299
15.651396752,12.07699,8.351745,-2.667413,-0.02410621,0.007918413,0.9296264,-15.96993,-0.8429604,-21.89241,1000.295
15.671215058,8.402985,4.66047,-2.422764,-0.008875201,-0.0187809,0.9308538,-15.96993,-0.8429604,-21.89241,1000.295
15.691033364,9.933822,2.058424,-0.5878899,-8.522347E-05,-0.02017645,0.9390042,-15.97792,-0.4991186,-23.10228,1000.298
15.710852146,3.932941,0.9691951,-1.566489,0.01500867,-0.007375109,0.9650518,-15.97792,-0.4991186,-23.10228,1000.298
15.730669975,4.177875,-0.4831098,0.7576842,0.02774901,-0.03412919,0.9489164,-15.98214,-0.1167865,-22.28539,1000.296
15.750488281,4.300342,-1.935415,3.632319,0.0296395,-0.01020357,0.9721975,-15.98214,-0.1167865,-22.28539,1000.296
15.770307064,2.095937,-3.266694,5.222544,0.04270776,0.003996912,0.9770257,-15.98214,-0.1167865,-22.28539,1000.298
15.790125370,2.524572,-3.932334,8.525316,0.02478992,-0.006796835,0.9818951,-14.87135,-0.1132579,-22.7329,1000.298
15.812420368,-4.02741,-1.753877,9.320428,-0.01302016,-0.0005494687,1.028954,-14.87135,-0.1132579,-22.7329,1000.297
15.832238674,-6.966616,-1.814389,8.892291,-0.06737252,0.006585,1.075625,-15.99517,0.6009674,-23.12172,1000.297
15.852057457,-7.334017,-7.86566,9.565078,-0.0789222,-0.005609849,1.091554,-15.99517,0.6009674,-23.12172,1000.297
15.871875763,-7.272783,-12.8277,11.52228,-0.0695843,-0.01771405,1.100129,-15.99517,0.6009674,-23.12172,1000.297
15.891694546,-4.21111,-14.09847,14.94737,-0.02340203,-0.01113321,1.104737,-15.98871,0.2414889,-22.73522,1000.295
15.911512375,-6.415515,-2.419516,15.86481,-0.0332222,0.01612641,1.122307,-15.98871,0.2414889,-22.73522,1000.295
15.931330681,-21.11155,9.077897,11.33879,-0.07697578,0.03008867,1.150614,-16.31628,1.322619,-23.57687,1000.298
15.951148987,-32.92961,15.49224,6.017655,-0.1312732,-0.01406916,1.128964,-16.31628,1.322619,-23.57687,1000.298
15.970967770,-20.62168,7.202003,6.017655,-0.1355729,-0.07025686,1.059193,-16.31628,1.322619,-23.57687,1000.294
15.990786076,3.136906,-8.168223,9.687403,-0.05802725,-0.05831211,0.9994602,-16.01875,1.990996,-23.96993,1000.294
16.010603905,16.8532,-10.22566,11.09414,0.01304273,0.001888653,0.9742811,-16.01875,1.990996,-23.96993,1000.297
16.030422211,8.096817,-1.330288,7.179742,0.02576965,0.066199,0.9615095,-15.65901,2.735586,-23.60426,1000.297
16.050240994,-2.435339,11.31687,4.060457,0.004844141,0.05141508,0.9335527,-15.65901,2.735586,-23.60426,1000.295
16.070059299,-4.272344,15.79481,8.097179,-0.04521377,0.05949097,0.9575194,-15.65901,2.735586,-23.60426,1000.295
16.092354298,-2.435339,15.25019,12.43971,-0.08245265,0.04086904,0.9885191,-16.04176,3.457777,-23.99585,1000.296
16.112173080,-3.721242,10.22764,12.37855,-0.07745366,0.01605872,0.9873989,-16.04176,3.457777,-23.99585,1000.296
16.131991386,-1.21067,5.084059,12.50088,-0.04772073,-0.008672463,0.9658713,-15.29071,2.716715,-24.80904,1000.294
16.151809692,2.034704,1.211246,11.95041,-0.01221623,-0.02657525,0.9366243,-15.29071,2.716715,-24.80904,1000.294
16.171628475,-0.5983351,2.663551,8.769966,-0.006581378,0.009976638,0.9377465,-15.29071,2.716715,-24.80904,1000.297
16.191446304,-2.80274,4.781495,7.240905,-0.009475078,-0.01055374,0.9111096,-15.30139,3.458526,-24.37864,1000.297
16.211264610,-2.863973,4.478932,6.751605,-0.02062507,-0.00667522,0.9280843,-15.30139,3.458526,-24.37864,1000.295
16.231082916,-1.21067,3.99483,5.956493,-0.02057918,-0.008109041,0.9391783,-15.67921,3.805602,-25.20711,1000.295
16.250901699,0.8100346,6.294313,4.916731,-0.01130985,-0.001196235,0.9589529,-15.67921,3.805602,-25.20711,1000.297
16.270720005,-1.884238,6.89944,2.65372,-0.01952,0.003201888,0.9831544,-15.67921,3.805602,-25.20711,1000.297
16.290537834,-2.251639,3.692266,0.5741968,-0.03021745,0.01341412,1.000642,-14.94893,4.554175,-24.84282,1000.295
16.310356140,-1.578071,-1.693364,-0.4044026,-0.006864579,-0.001613636,0.9782335,-14.94893,4.554175,-24.84282,1000.295
16.330174923,0.8712681,-6.110791,-1.138352,0.0110597,0.001851635,0.9631902,-15.32522,4.916888,-24.84792,1000.295
16.352470398,4.177875,-8.591812,-2.483926,0.0392433,0.001491941,0.9553113,-15.32522,4.916888,-24.84792,1000.295
16.372289181,5.157611,-10.40719,-4.07415,0.03959021,0.0331715,0.9665737,-15.32522,4.916888,-24.84792,1000.295
16.392107010,-1.516837,-6.897457,-6.092511,0.03090182,0.03023981,0.9810866,-16.06054,4.542226,-24.83866,1000.295
16.411925316,-3.598775,-5.142588,-6.58181,-0.0009890036,0.01604428,1.018837,-16.06054,4.542226,-24.83866,1000.298
16.431744099,-3.782475,-5.62669,-6.642973,-0.01930616,0.01264328,1.061396,-16.06054,4.542226,-24.83866,1000.298
16.451562405,-3.660008,-6.171304,-5.786699,-0.04634311,-0.009844631,1.082666,-16.06054,4.542226,-24.83866,1000.296
16.471380234,-0.04723396,-10.95181,-6.459486,-0.07488265,-0.0245493,1.103984,-16.06054,4.542226,-24.83866,1000.296
16.491198540,1.60607,-18.39487,-8.416684,-0.06171005,-0.04840627,1.07676,-16.06054,4.542226,-24.83866,1000.298
16.511017323,10.60739,-23.11486,-9.211796,-0.007752511,-0.07601048,1.023228,-16.06054,4.542226,-24.83866,1000.298
16.530835629,9.015319,-22.08615,-14.34944,0.04596408,-0.02850061,1.022695,-16.73411,4.16823,-24.82964,1000.299
16.550653935,2.340871,-17.42667,-18.01919,0.1169771,-0.0520815,0.9855019,-16.73411,4.16823,-24.82964,1000.299
16.570471764,4.422809,3.752779,-20.58801,0.06549287,-0.05132288,1.007025,-16.73411,4.16823,-24.82964,1000.297
16.590290547,-0.7820356,15.91583,-22.85102,-0.03903712,-0.001488148,1.099563,-17.84994,4.538613,-24.00858,1000.297
16.610108853,-2.251639,10.5302,-20.95499,-0.050985,-0.04148825,1.095561,-17.84994,4.538613,-24.00858,1000.3
16.632404804,10.97479,9.985588,-14.53293,-0.05356097,-0.008360676,1.107812,-18.21544,4.160717,-24.38073,1000.3
16.652223110,4.79021,14.28199,-12.26992,-0.08297608,0.03971844,1.118356,-18.21544,4.160717,-24.38073,1000.298
16.672040939,-4.21111,13.3743,-13.55433,-0.1077291,0.00980449,1.084068,-18.21544,4.160717,-24.38073,1000.298
16.691859245,-0.965736,5.447135,-9.639934,-0.07815963,-0.02042113,1.005557,-18.21626,4.152297,-24.82408,1000.302
16.711678028,11.64836,-0.7856733,-4.441124,-0.01460649,-0.03633569,0.9327258,-18.21626,4.152297,-24.82408,1000.302
16.731496334,13.85276,1.937398,-2.116951,0.0001810212,0.02562275,0.9498569,-18.20898,3.801238,-23.99423,1000.299
16.751314640,-0.3534013,7.262516,-7.988547,-0.008106853,0.02214337,0.9383001,-18.20898,3.801238,-23.99423,1000.299
16.771132469,-0.3534013,3.873805,-10.00691,-0.006977264,-0.04324829,0.8766578,-18.20898,3.801238,-23.99423,1000.299
16.790951252,11.95453,-0.7856733,-5.175074,0.01188492,-0.02562554,0.8747144,-18.95159,3.777637,-24.81483,1000.299
16.810769558,19.11884,-2.903618,-1.444164,0.01626974,-0.01288661,0.8979244,-18.95159,3.777637,-24.81483,1000.301
16.830587864,9.995054,-1.269775,-3.279038,0.006554085,0.02275853,0.9599435,-18.95159,3.777637,-24.81483,1000.301
16.850406647,1.851004,-1.814389,-4.991587,0.003840838,-0.02648633,0.9389502,-18.94008,3.044246,-24.80187,1000.299
16.870224953,4.239109,-3.750796,-2.361601,0.001953855,-0.03574328,0.9408438,-18.94008,3.044246,-24.80187,1000.299
16.890042782,4.728976,-5.021563,-0.2209152,0.002421291,-0.02059923,0.9602261,-19.62515,3.403639,-24.8058,1000.302
16.912338734,-0.1697009,-1.269775,-0.7102148,0.009738008,-0.0259235,0.9577453,-19.62515,3.403639,-24.8058,1000.302
16.932157040,0.6875677,-3.38772,0.4518718,0.02479948,-0.02438939,0.95574,-19.62515,3.403639,-24.8058,1000.302
16.951975823,4.116642,-3.629771,2.592558,0.05007333,-0.0232917,0.9527113,-19.61283,2.678668,-24.34949,1000.302
16.971794129,4.79021,-1.572338,3.204182,0.04474691,-0.007170021,0.986128,-19.61283,2.678668,-24.34949,1000.302
16.991611958,-6.048114,0.0615045,-0.8325397,0.03905875,-0.02713835,0.9966755,-19.6187,3.044161,-24.4193,1000.302
17.011430264,-3.598775,0.1825299,-0.7713773,0.002665476,-0.02775779,1.02004,-19.6187,3.044161,-24.4193,1000.304
17.031249046,-5.43578,-2.359004,-2.055789,-0.0264,-0.02391615,1.060281,-19.6187,3.044161,-24.4193,1000.304
17.051067352,-5.313313,-7.20002,-3.095551,0.0135809,-0.0436807,1.057065,-19.3098,3.048682,-24.35712,1000.307
17.070885658,-1.823005,-5.203101,-0.4044026,0.05496256,-0.04685766,1.064062,-19.3098,3.048682,-24.35712,1000.307
17.090703487,-6.231814,2.058424,-0.4044026,0.05260613,-0.02530612,1.121624,-20.73524,3.407327,-23.97826,1000.307
17.110522270,-11.25296,9.561998,-2.483926,0.002638832,-0.02400968,1.161002,-20.73524,3.407327,-23.97826,1000.307
17.130340576,-12.23269,12.8902,-2.483926,-0.05430138,-0.01015522,1.172969,-20.73524,3.407327,-23.97826,1000.311
17.150158882,-11.55913,8.533283,-1.872301,-0.1016634,0.02319844,1.173399,-21.10648,3.396127,-24.35689,1000.311
17.172454834,-11.68159,-6.473867,-0.5267274,-0.07411784,0.0002396654,1.083835,-21.10648,3.396127,-24.35689,1000.312
17.192273140,3.19814,-18.03179,3.265345,0.004814969,-0.00203664,0.9796155,-19.99991,3.781988,-23.98752,1000.312
17.212090969,13.1792,-20.75487,8.953453,0.04817288,0.05558252,0.9531268,-19.99991,3.781988,-23.98752,1000.31
17.231909752,8.280518,-15.36924,9.381591,0.08449782,0.0898853,0.965171,-19.99991,3.781988,-23.98752,1000.31
17.251728058,-4.762211,-1.3908,7.852529,0.06113983,0.09170985,0.964343,-20.74181,3.765603,-24.4281,1000.307
17.271546364,-13.57983,17.42865,6.751605,-0.06815148,0.1013583,1.003232,-20.74181,3.765603,-24.4281,1000.307
17.291365147,-16.58027,15.55276,6.506955,-0.1489321,0.01178631,0.9848721,-21.49356,4.499447,-23.99493,1000.309
17.311182976,2.830739,2.542525,11.39995,-0.1095454,-0.01930189,0.9314023,-21.49356,4.499447,-23.99493,1000.309
17.331001282,14.71003,2.300474,13.90761,-0.06544352,0.01699354,0.945345,-21.49356,4.499447,-23.99493,1000.312
17.350819588,-0.5983351,3.934317,4.305107,-0.04410156,0.03661876,0.9607746,-21.49931,4.866143,-24.00141,1000.312
17.370638371,-0.7820356,2.905602,0.08489711,-0.00365808,-0.03449181,0.8660657,-21.49931,4.866143,-24.00141,1000.314
17.390456677,9.137786,-1.753877,2.65372,0.01809869,-0.01002647,0.8684857,-21.49931,4.866143,-24.00141,1000.314
17.410275459,7.851883,-1.693364,0.6965217,0.04566806,0.02422983,0.880095,-21.49931,4.866143,-24.00141,1000.31
17.430093289,1.60607,2.905602,-0.5267274,0.04169417,0.04761605,0.8942346,-21.49931,4.866143,-24.00141,1000.31
17.452388764,-5.80318,4.236881,0.02373465,0.03018719,0.03985157,0.9299759,-21.49356,4.499447,-23.99493,1000.313
17.472207546,-6.782916,5.628673,2.347908,0.02104462,0.03058499,0.9434934,-21.49356,4.499447,-23.99493,1000.313
17.492025852,-8.987321,5.991749,1.919771,-0.00592841,0.006676145,0.9811671,-21.14085,5.526764,-24.83805,1000.313
17.511844158,-8.987321,3.510728,0.7576842,-0.007705282,-0.02107925,0.9848956,-21.14085,5.526764,-24.83805,1000.313
17.531662941,-3.047674,0.9691951,0.8188466,-0.01208156,-0.01181283,1.000413,-21.14085,5.526764,-24.83805,1000.312
17.551480770,1.60607,-4.234898,-0.3432401,3.312319E-05,-0.001025855,1.005229,-21.50564,5.156085,-24.83018,1000.312
17.571299076,2.708272,-9.136427,-1.444164,0.03831292,0.0142278,0.9886865,-21.50564,5.156085,-24.83018,1000.314
17.591117382,1.299902,-9.560016,-3.340201,0.07228069,0.02314987,0.9808236,-21.51068,5.529997,-24.45664,1000.314
17.610936165,0.9325016,-6.050279,-2.789738,0.09510275,0.02959818,0.9807318,-21.51068,5.529997,-24.45664,1000.312
17.630754471,0.3814003,1.029708,-0.8937021,0.07286227,0.03348678,1.025763,-21.51068,5.529997,-24.45664,1000.312
17.650572777,-1.823005,4.720983,0.08489711,0.006283133,0.06104197,1.086121,-21.51714,5.889476,-24.84314,1000.315
17.670390606,-5.497013,3.208165,-0.6490523,-0.06105599,0.02323526,1.101258,-21.51714,5.889476,-24.84314,1000.315
17.690209389,0.6875677,-5.142588,0.5741968,-0.06530548,-0.00309538,1.095354,-21.52289,6.256171,-24.84962,1000.317
17.710027695,8.770386,-13.49334,0.8188466,-0.002644501,-0.008691134,1.063126,-21.52289,6.256171,-24.84962,1000.317
17.732323647,8.402985,-12.88821,-0.7102148,0.05559817,-0.001628411,1.039674,-21.52289,6.256171,-24.84962,1000.314
17.752141953,8.341751,-12.46463,-1.994627,0.10826,-0.03694544,1.021346,-21.51714,5.889476,-24.84314,1000.314
17.771959782,4.60651,2.966114,-6.459486,0.05186534,-0.01131321,1.070054,-21.51714,5.889476,-24.84314,1000.316
17.791778088,-2.741507,9.198922,-11.65829,-0.03989197,-0.01754177,1.10769,-21.89918,6.618884,-24.85471,1000.316
17.811596871,1.78977,6.959952,-10.74086,-0.04451012,-0.06872331,1.095386,-21.89918,6.618884,-24.85471,1000.314
17.831415177,9.933822,12.46661,-7.682735,-0.08406545,-0.02015622,1.128191,-21.89918,6.618884,-24.85471,1000.314
17.851233959,-0.1697009,14.03994,-11.35248,-0.14394,-0.004861942,1.137768,-22.63029,5.86189,-25.66235,1000.311
17.871052265,-3.598775,5.023546,-14.34944,-0.105099,-0.05799432,1.030611,-22.63029,5.86189,-25.66235,1000.311
17.890870095,13.79153,-3.690283,-6.765298,-0.04463081,-0.05791056,0.9351928,-21.88417,5.495944,-26.03866,1000.313
17.910688400,20.46598,-1.814389,-6.459486,-0.01292107,0.0148202,0.9407022,-21.88417,5.495944,-26.03866,1000.313
17.930507183,6.749681,1.211246,-11.53597,-0.02232493,0.03812132,0.9312198,-21.88417,5.495944,-26.03866,1000.311
17.950325489,1.238669,1.513809,-13.24852,-0.005276603,0.004007511,0.8826834,-22.93403,5.48466,-26.03473,1000.311
17.970143795,10.30122,0.4245807,-8.049709,-0.01168338,0.01760282,0.8803749,-22.93403,5.48466,-26.03473,1000.315
17.992439747,9.199019,-0.846186,-4.869262,0.01354699,0.0352911,0.891912,-22.62678,5.472342,-26.85925,1000.315
18.012258053,1.78977,1.75586,-3.340201,0.01983726,0.05045598,0.9074011,-22.62678,5.472342,-26.85925,1000.314
18.032075882,-1.02697,-1.3908,0.3295469,0.03023936,0.02082284,0.9139494,-22.62678,5.472342,-26.85925,1000.314
18.051894665,-1.639304,-1.693364,3.509995,0.04638957,0.0004456966,0.9098949,-22.25554,5.483541,-26.48063,1000.318
18.071712971,-2.680273,-1.209262,4.305107,0.03390719,-0.008303529,0.9432232,-22.25554,5.483541,-26.48063,1000.318
18.091531277,-4.088643,-0.6041352,4.488594,0.02917805,-0.02729883,0.9513571,-22.93556,5.469023,-26.8581,1000.316
18.111350060,0.6875677,-1.753877,5.589519,0.03157939,-0.007753024,0.9746128,-22.93556,5.469023,-26.8581,1000.316
18.131168366,-2.006705,-3.569258,5.834168,0.04272799,0.004500241,0.9837856,-22.93556,5.469023,-26.8581,1000.317
18.150986195,-1.333137,-2.843105,6.812768,0.04518926,0.01186708,1.004565,-22.93639,5.460603,-27.30145,1000.317
18.170804501,-3.966176,-3.38772,6.13998,0.01710781,0.008388797,1.036075,-22.93639,5.460603,-27.30145,1000.315
18.190623283,-2.98644,-5.445152,6.38463,-0.01686787,0.01852708,1.072997,-22.93639,5.460603,-27.30145,1000.315
18.210441589,-0.9045025,-13.19078,8.464154,-0.00753396,-0.004335154,1.062692,-22.9486,6.186777,-27.69443,1000.315
18.230259895,3.565541,-18.03179,12.6232,0.04939039,-0.0191787,1.044445,-22.9486,6.186777,-27.69443,1000.315
18.250078678,5.402544,-14.82462,15.0697,0.1051604,0.01961879,1.061233,-22.95364,6.560688,-27.32089,1000.316
18.272374153,-6.599215,0.0615045,14.39691,0.08965667,0.04255729,1.116461,-22.95364,6.560688,-27.32089,1000.316
18.292191982,-19.64194,7.867643,12.92901,-0.0103895,0.03920398,1.152709,-22.95364,6.560688,-27.32089,1000.318
18.312010765,-23.07102,9.380461,12.86785,-0.09576225,-0.004590507,1.146677,-22.96514,7.294079,-27.33385,1000.318
18.331829071,-18.35604,7.020465,11.33879,-0.1667463,-0.01472107,1.136877,-22.96514,7.294079,-27.33385,1000.316
18.351647854,-6.293048,-8.107711,12.25623,-0.1115051,-0.03510996,1.043796,-24.09222,8.329521,-26.90469,1000.316
18.371466160,11.40342,-17.24513,14.94737,0.02082634,-0.02349075,0.9330805,-24.09222,8.329521,-26.90469,1000.317
18.391284466,14.40386,-12.28309,15.25319,0.0854463,0.08156224,0.9443679,-24.09222,8.329521,-26.90469,1000.317
18.411102295,-8.007585,6.717902,6.935092,0.07325845,0.1103216,0.9831967,-24.11101,9.413969,-27.7475,1000.315
18.430921078,-19.94811,19.36506,3.938132,-0.02371136,0.0645647,0.996042,-24.11101,9.413969,-27.7475,1000.315
18.450739384,-17.49877,16.09737,6.201143,-0.08024573,-0.005865645,0.988267,-24.11676,9.780664,-27.75398,1000.316
18.470557690,4.545276,7.020465,13.47948,-0.06813359,-0.01903523,0.9528975,-24.11676,9.780664,-27.75398,1000.316
18.490376473,10.97479,-0.5436226,17.08806,-0.02987981,0.010866,0.9528416,-24.11676,9.780664,-27.75398,1000.319
18.510194779,3.320607,-0.1805463,13.05134,0.03366288,0.02623178,0.9284388,-24.13484,10.87233,-28.21678,1000.319
18.532490730,-2.435339,3.389703,8.158341,0.04729503,0.00186932,0.8925208,-24.13484,10.87233,-28.21678,1000.317
18.552308560,2.830739,6.2338,7.36323,0.03177653,-0.01284591,0.8814287,-23.38872,10.50639,-28.59309,1000.317
18.572126866,2.402105,4.418419,6.13998,0.01418019,0.02611002,0.9198567,-23.38872,10.50639,-28.59309,1000.319
18.591945171,-0.9045025,4.720983,3.020695,0.03077264,0.01743681,0.9221347,-23.38872,10.50639,-28.59309,1000.319
18.611763954,-0.5983351,5.689186,1.919771,0.05909914,-0.001397894,0.9257443,-23.02873,11.18264,-28.60636,1000.321
18.631582260,0.5651007,7.383542,0.8800091,0.0495434,-0.01550342,0.9527542,-23.02873,11.18264,-28.60636,1000.321
18.651400566,-1.761771,6.959952,-2.912063,0.02087497,0.01076504,1.003727,-22.73298,11.90372,-29.44385,1000.32
18.671219349,-5.741947,3.208165,-6.887623,0.01710802,-0.01312142,1.000729,-22.73298,11.90372,-29.44385,1000.32
18.691037178,-0.5983351,-2.601054,-7.132273,0.01515236,-0.01069452,1.001718,-22.73298,11.90372,-29.44385,1000.322
18.710855484,5.218844,-7.20002,-5.970186,0.01067173,0.0004527926,0.9897324,-23.04247,11.89318,-29.82271,1000.322
18.730674267,5.280077,-8.289248,-6.092511,0.03875564,0.02202111,0.9887241,-23.04247,11.89318,-29.82271,1000.32
18.750492573,0.993735,-6.413355,-7.376923,0.04747203,0.03230589,0.9945213,-22.3689,12.26718,-29.83173,1000.32
18.770310879,0.1976999,-4.113872,-7.988547,0.04021974,0.03376523,1.009532,-22.3689,12.26718,-29.83173,1000.321
18.790129662,0.1976999,-0.4225971,-6.337161,0.02428021,0.03620468,1.045832,-22.3689,12.26718,-29.83173,1000.321
18.812425137,-4.088643,2.542525,-6.031348,-0.02267572,0.03318313,1.105443,-22.75177,12.98816,-30.28666,1000.319
18.832242966,-4.02741,-0.1200336,-4.624612,-0.03364105,-0.002405017,1.111595,-22.75177,12.98816,-30.28666,1000.319
18.852061749,2.769506,0.7876569,-3.951825,-0.03162855,-0.005280171,1.126533,-22.75247,12.98095,-30.66668,1000.32
18.871880055,0.993735,0.6666315,-5.847861,-0.01889129,-0.0188369,1.13122,-22.75247,12.98095,-30.66668,1000.32
18.891698361,2.647039,4.297394,-8.110872,0.009294847,-0.03141658,1.103971,-22.75247,12.98095,-30.66668,1000.322
18.911517143,3.136906,10.10661,-10.61853,-0.03448037,-0.0032925,1.149244,-22.38276,12.97651,-31.11142,1000.322
18.931335449,-0.4146348,3.147652,-14.04363,-0.06505533,-0.0483817,1.094155,-22.38276,12.97651,-31.11142,1000.319
18.951153755,11.77083,-10.52822,-11.41364,-0.001012323,-0.08286835,0.9917818,-22.7418,12.23914,-31.09707,1000.319
18.970972538,29.77347,-9.196939,-6.642973,0.04141101,-0.03647107,0.9580005,-22.7418,12.23914,-31.09707,1000.321
18.990790367,21.20078,-0.6646479,-9.517609,0.02063569,0.05263704,1.002496,-22.7418,12.23914,-31.09707,1000.321
19.010608673,3.504307,6.052262,-15.57269,-0.003625508,0.02175175,0.9681996,-22.38429,12.96087,-31.93479,1000.318
19.030426979,4.177875,7.262516,-13.24852,-0.03411405,-0.01936472,0.9449867,-22.38429,12.96087,-31.93479,1000.318
19.050245762,13.11796,2.784576,-9.701096,-0.04050112,-0.002822083,0.9533122,-21.99146,11.49086,-32.29028,1000.318
19.070064068,11.58712,3.32919,-8.294359,-0.03142764,0.02643887,0.9524474,-21.99146,11.49086,-32.29028,1000.318
19.092360020,6.137346,2.360987,-6.765298,-0.01395258,0.02650604,0.9426985,-21.99146,11.49086,-32.29028,1000.318
19.112178326,6.56598,-1.814389,-4.012987,0.005480629,0.007526428,0.9053285,-21.98724,11.10853,-33.10717,1000.318
19.131997108,10.72986,-3.024643,-0.8325397,0.02582234,0.01001637,0.8844748,-21.98724,11.10853,-33.10717,1000.316
19.151814938,9.137786,-1.14875,0.5130343,0.03061336,0.03736673,0.9082403,-21.23645,10.4358,-33.54142,1000.316
19.171633244,-2.374106,2.542525,-0.8325397,0.0243866,0.02909145,0.9227121,-21.23645,10.4358,-33.54142,1000.319
19.191451550,-1.149436,2.663551,1.491634,0.01250309,-0.01770685,0.9263983,-21.23645,10.4358,-33.54142,1000.319
19.211270332,1.177435,-1.511826,4.366269,0.01056559,-0.006467268,0.9472218,-21.23716,10.42858,-33.92144,1000.317
19.231088638,0.8712681,-4.234898,4.121619,0.03048605,-0.001488972,0.9495518,-21.23716,10.42858,-33.92144,1000.317
19.250906944,1.116202,-4.416436,5.467194,0.04061823,0.008283624,0.9418235,-20.8624,10.05023,-34.73972,1000.317
19.270725727,3.075673,-6.594893,8.708804,0.06742294,-0.006692527,0.9333944,-20.8624,10.05023,-34.73972,1000.318
19.290544033,3.810475,-5.808228,9.748566,0.06644831,0.006011691,0.9537376,-20.8624,10.05023,-34.73972,1000.318
19.310361862,-1.271903,-0.1200336,9.259266,0.03688414,0.0235304,1.012876,-21.59772,9.675571,-34.73046,1000.316
19.330180168,-6.844149,0.9691951,7.60788,-0.02479239,0.04967225,1.082371,-21.59772,9.675571,-34.73046,1000.316
19.352476120,-12.84503,-3.690283,8.402991,-0.03178967,0.001448888,1.090367,-21.22215,9.305643,-35.10538,1000.317
19.372294426,-4.884678,-7.078995,13.90761,0.007194595,-0.01344911,1.088146,-21.22215,9.305643,-35.10538,1000.318
19.392113209,-2.129172,0.7876569,16.96573,-0.01521638,0.02649416,1.142534,-21.22215,9.305643,-35.10538,1000.318
19.411931515,-12.9675,5.810211,15.19202,-0.0662396,0.04972531,1.193614,-20.86393,10.0346,-35.56309,1000.321
19.431749821,-21.84635,9.501486,12.1339,-0.1220788,0.02652229,1.182216,-20.86393,10.0346,-35.56309,1000.321
19.451568604,-22.09128,4.236881,9.259266,-0.1405294,-0.02390586,1.108209,-20.48764,9.671883,-35.55799,1000.319
19.471386433,-4.945911,-9.136427,11.70576,-0.08766641,-0.04915783,1.022838,-20.48764,9.671883,-35.55799,1000.319
19.491204739,10.85232,-9.317965,12.99018,-0.03606109,0.01093406,0.9943863,-20.48764,9.671883,-35.55799,1000.319
19.511023522,2.708272,0.3035553,9.442753,-0.03642928,0.09231255,1.020388,-20.13014,10.39362,-36.39571,1000.321
19.530841828,-12.35516,13.25327,5.344869,-0.06450992,0.07074659,1.022362,-20.13014,10.39362,-36.39571,1000.321
19.550660133,-12.7838,14.58455,5.89533,-0.1110483,0.04030158,1.016668,-20.13014,10.39362,-36.39571,1000.32
19.570478916,-2.312872,7.56508,8.831128,-0.1163273,0.008547639,0.9851598,-20.86771,9.996105,-37.58985,1000.32
19.590297222,6.137346,0.5456061,11.76693,-0.06590348,0.02580957,0.967596,-20.86771,9.996105,-37.58985,1000.32
19.610115528,6.56598,-2.661567,10.72717,0.01425049,0.01296071,0.9188234,-20.49564,10.01573,-36.76786,1000.32
19.632411480,3.749241,0.1220172,9.014616,0.04568348,0.03206281,0.8975116,-20.49564,10.01573,-36.76786,1000.317
19.652229309,-2.190405,1.997911,6.445793,0.03011529,0.01975642,0.8758131,-20.49564,10.01573,-36.76786,1000.321
19.672047615,-1.578071,1.816373,5.589519,0.01748938,0.02459304,0.889422,-20.48649,9.258278,-38.02163,1000.321
19.691866398,-3.292608,2.360987,6.13998,0.01274575,0.02318678,0.9222629,-20.48649,9.258278,-38.02163,1000.321
19.711684704,-5.741947,3.208165,4.305107,-0.0006902786,0.006624149,0.948316,-20.11666,9.255045,-38.40303,1000.322
19.731503010,-3.904943,-0.1805463,1.675121,0.02222806,-0.01619105,0.9282836,-20.11666,9.255045,-38.40303,1000.322
19.751321793,0.3814003,-0.6646479,1.246984,0.05187629,-0.004317353,0.9421799,-20.11666,9.255045,-38.40303,1000.32
19.771140099,-1.884238,1.332271,-2.055789,0.04548727,0.02640117,0.9732641,-20.87077,9.964832,-39.23659,1000.32
19.790958405,-7.517717,2.300474,-6.214836,0.03630816,0.02248607,0.9848784,-20.87077,9.964832,-39.23659,1000.32
19.810777188,-3.292608,-3.206182,-6.642973,0.02858941,0.0009801115,0.9679165,-20.86502,9.598137,-39.23011,1000.32
19.830595017,7.239549,-9.741553,-4.869262,0.0489494,0.0196159,0.9790024,-20.86502,9.598137,-39.23011,1000.317
19.850413323,6.321046,-11.98052,-5.542049,0.07315047,0.04948047,0.9939864,-20.86502,9.598137,-39.23011,1000.317
19.870232105,2.034704,-9.983604,-7.193435,0.08089913,0.06123036,1.003658,-21.60259,9.200623,-40.42424,1000.318
19.890050411,-1.578071,-8.591812,-7.80506,0.05918783,0.04364172,1.02589,-21.60259,9.200623,-40.42424,1000.318
19.912346363,0.6875677,-8.047197,-5.847861,0.02815683,0.0484366,1.061802,-21.58616,8.092117,-40.84816,1000.318
19.932164669,-1.02697,-3.569258,-4.808099,-0.01950283,0.05307911,1.070292,-21.58616,8.092117,-40.84816,1000.318
19.951982975,-1.21067,-4.234898,-3.951825,-0.1030475,0.02436591,1.054674,-21.58616,8.092117,-40.84816,1000.318
19.971801758,0.8712681,-15.49026,-7.682735,-0.07370005,0.02072582,1.097453,-22.33523,8.427994,-42.05525,1000.318
19.991620064,5.586245,-25.11178,-10.31272,0.02906358,-0.04756821,1.027034,-22.33523,8.427994,-42.05525,1000.317
20.011438370,14.0977,-27.1087,-7.621572,0.1314737,-0.04180636,0.9748564,-23.00809,8.061214,-41.66621,1000.317
20.031256199,13.97523,-14.82462,-8.722497,0.2141007,-0.02381405,0.988977,-23.00809,8.061214,-41.66621,1000.315
20.051074982,2.524572,15.91583,-15.3892,0.1216975,0.0358385,1.088256,-23.00809,8.061214,-41.66621,1000.315
20.070893288,-8.742387,24.26659,-17.3464,-0.02247578,0.02745955,1.154646,-24.11644,7.72805,-42.48001,1000.313
20.090711594,-9.109787,20.93839,-14.59409,-0.09513256,-0.02844026,1.149447,-24.11644,7.72805,-42.48001,1000.313
20.110530376,2.524572,20.33326,-9.823421,-0.1608386,-0.004862148,1.174062,-24.85951,7.628897,-44.05956,1000.312
20.130348682,2.524572,8.47277,-8.355522,-0.1941222,0.02659102,1.163787,-24.85951,7.628897,-44.05956,1000.312
20.150166988,5.157611,-6.050279,-7.438085,-0.08212652,-0.003874112,1.010491,-24.85951,7.628897,-44.05956,1000.308
20.172462940,23.58889,-13.06975,1.002334,0.03115381,0.002698007,0.8670316,-24.11518,7.315648,-44.88031,1000.308
20.192281246,21.75188,-9.257452,0.3907094,0.06774867,0.07302517,0.8749154,-24.11518,7.315648,-44.88031,1000.306
20.212100029,-1.516837,0.4245807,-9.578771,0.07409436,0.06769703,0.8729225,-24.48149,6.929331,-45.69582,1000.306
20.231917858,-3.353841,6.596876,-10.86318,0.0417875,0.004173139,0.8500872,-24.48149,6.929331,-45.69582,1000.31
20.251736164,3.504307,4.539444,-7.927384,-0.004795055,0.01280631,0.8957583,-24.48149,6.929331,-45.69582,1000.31
20.271554947,7.97435,2.845089,-4.746937,-0.01302536,0.021101,0.9204625,-25.58972,6.526632,-46.95189,1000.309
20.291373253,6.627214,2.179449,-1.383002,-0.01791995,0.04696368,0.953927,-25.58972,6.526632,-46.95189,1000.309
20.311191559,2.524572,-1.451313,-0.4044026,0.0128642,0.01349399,0.9410369,-25.95521,6.148736,-47.32404,1000.309
20.331010342,2.953206,-2.237978,2.347908,0.02997988,-0.01177198,0.9268158,-25.95521,6.148736,-47.32404,1000.309
20.350828648,2.708272,-2.298491,2.776045,0.0227603,-0.01615573,0.9417958,-25.95521,6.148736,-47.32404,1000.31
20.370646954,-2.98644,0.2430426,0.3907094,0.02762199,-0.01319846,0.9461285,-26.28349,7.222651,-48.54572,1000.31
20.390465736,-2.557806,-0.5436226,1.308146,0.02810713,-0.02004101,0.9345064,-26.28349,7.222651,-48.54572,1000.313
20.410284042,-2.006705,-2.782593,1.246984,0.03532077,-0.01077279,0.9258263,-26.27281,6.48084,-48.97611,1000.313
20.430102348,-2.98644,-2.359004,-0.465565,0.02991885,-0.0005715417,0.9273563,-26.27281,6.48084,-48.97611,1000.309
20.452397823,-4.823445,-0.6646479,-1.749977,0.02607751,0.006776639,0.9539624,-26.27281,6.48084,-48.97611,1000.309
20.472216129,-6.415515,-0.05952091,-2.361601,-0.01579765,0.04123377,0.9963616,-26.65134,6.820698,-50.18459,1000.313
20.492034435,-12.35516,-3.448232,-3.707175,-0.01518103,0.02030791,1.000112,-26.65134,6.820698,-50.18459,1000.313
20.511853218,-4.578511,-8.833863,1.552796,0.06136153,-0.03098242,0.9699864,-27.02845,7.174992,-50.63303,1000.315
20.531671524,2.524572,-4.597974,6.323468,0.08766088,-0.004909437,1.023554,-27.02845,7.174992,-50.63303,1000.315
20.551490307,-0.7820356,2.058424,6.568118,0.05777474,0.002946776,1.114984,-27.02845,7.174992,-50.63303,1000.315
20.571308613,-10.33446,7.625592,4.733244,-0.02387778,0.03727018,1.187526,-27.41682,8.194344,-51.47338,1000.315
20.591126919,-20.68291,6.475851,3.265345,-0.0528915,0.03039362,1.225299,-27.41682,8.194344,-51.47338,1000.318
20.610945702,-22.39745,7.444054,3.999295,-0.1092399,0.01157158,1.214409,-27.78314,7.808028,-52.28888,1000.318
20.630764008,-17.0089,-3.569258,4.855569,-0.1116742,-0.01826409,1.164553,-27.78314,7.808028,-52.28888,1000.32
20.650582314,-2.557806,-15.12718,6.812768,-0.01863305,-0.03073033,1.044758,-27.78314,7.808028,-52.28888,1000.32
20.670400143,12.07699,-9.862579,10.91065,0.0309323,0.05714955,1.034319,-27.06648,9.268341,-53.07761,1000.323
20.690218926,-2.067938,3.208165,5.89533,0.01322035,0.1126445,1.066075,-27.06648,9.268341,-53.07761,1000.323
20.710037232,-14.6208,11.80097,1.919771,-0.01471587,0.02909499,1.00836,-27.06648,9.268341,-53.07761,1000.323
20.732333183,0.3814003,6.294313,6.38463,-0.04087565,-0.01838861,0.9604744,-28.56167,9.970163,-53.90839,1000.323
20.752151489,11.15849,-1.935415,8.647641,0.01088339,0.01541404,0.9338174,-28.56167,9.970163,-53.90839,1000.323
20.771969795,14.40386,2.905602,11.88925,0.06619493,0.01951902,0.901679,-28.20825,11.0047,-54.37149,1000.323
20.791788578,5.953646,4.66047,10.1767,0.06559531,0.04534577,0.9109858,-28.20825,11.0047,-54.37149,1000.323
20.811606884,-4.945911,10.46969,5.467194,0.04676687,0.01845856,0.907572,-28.94185,10.29318,-56.00358,1000.323
20.831425190,-4.02741,10.77225,3.815807,-0.008535516,0.005071547,0.9271131,-28.94185,10.29318,-56.00358,1000.326
20.851243973,-2.129172,5.265597,3.204182,-0.02648497,-0.0003672012,0.9315275,-28.94185,10.29318,-56.00358,1000.326
20.871062279,-0.7208021,3.389703,2.40907,-0.02012976,0.008488749,0.9556722,-28.58831,11.32892,-56.40334,1000.324
20.890881062,-0.9045025,0.1825299,0.3907094,0.005194816,0.00375624,0.9579226,-28.58831,11.32892,-56.40334,1000.324
20.910699368,1.667303,0.1220172,-1.383002,0.02995603,0.0004327735,0.9399109,-28.58831,11.32892,-56.40334,1000.324
20.930517197,1.973471,0.5456061,-2.912063,0.01973128,0.01308214,0.9574083,-28.60781,12.40615,-57.62617,1000.324
20.950335503,2.340871,-1.632851,-4.624612,0.003135827,0.0393526,0.983216,-28.60781,12.40615,-57.62617,1000.323
20.970154286,0.9325016,-3.266694,-4.07415,0.007130478,0.01549234,0.9743833,-29.2822,12.02374,-58.0605,1000.323
20.992449760,3.136906,-9.317965,-5.052749,0.02560561,0.02096172,0.9815505,-29.2822,12.02374,-58.0605,1000.325
21.012268543,1.177435,-9.681041,-6.82646,0.04061263,0.03516759,0.9844374,-29.2822,12.02374,-58.0605,1000.325
21.032086849,-1.149436,-9.136427,-6.82646,0.05481981,0.02113735,0.9915278,-30.02974,12.37525,-58.44422,1000.329
21.051905155,-2.190405,-8.168223,-7.009948,0.04762964,0.01090816,1.005512,-30.02974,12.37525,-58.44422,1000.329
21.071723938,-1.639304,-4.658486,-7.438085,0.02490809,0.0006206969,1.028752,-30.03209,12.35119,-59.71095,1000.329
21.091542244,-0.4146348,-5.324126,-9.028309,-0.03192899,0.004282551,1.054181,-30.03209,12.35119,-59.71095,1000.329
21.111360550,0.3814003,-11.98052,-9.762259,-0.02261095,-0.01956877,1.037597,-30.03209,12.35119,-59.71095,1000.326
21.131179333,6.38228,-13.00924,-10.25156,0.01873039,-0.01495259,1.0456,-31.52646,13.06143,-60.09837,1000.326
21.150997639,1.544836,-11.07283,-11.96411,0.0400048,0.01880164,1.064481,-31.52646,13.06143,-60.09837,1000.322
21.170816422,-2.435339,-9.681041,-14.22712,0.1010182,-0.02912325,1.049904,-31.52799,13.04579,-60.92175,1000.322
21.190633774,3.504307,3.026627,-14.47177,0.05715722,0.001383884,1.073951,-31.52799,13.04579,-60.92175,1000.325
21.210452557,-3.782475,10.95379,-14.10479,-0.05359947,0.01116669,1.128668,-31.52799,13.04579,-60.92175,1000.325
21.230270863,-0.5371017,5.326109,-12.94271,-0.068404,-0.05569264,1.09848,-33.69675,13.37362,-61.7435,1000.325
21.250089645,11.09726,4.176368,-7.682735,-0.06313775,-0.03959176,1.100464,-33.69675,13.37362,-61.7435,1000.325
21.272385120,8.158051,7.80713,-10.43505,-0.08862726,0.007554738,1.11967,-33.33336,13.65913,-63.01701,1000.324
21.292203903,-3.966176,8.896359,-13.12619,-0.08622726,-0.02472086,1.057226,-33.33336,13.65913,-63.01701,1000.324
21.312022209,8.341751,2.360987,-10.92435,-0.05965206,-0.03839442,0.9836431,-33.33336,13.65913,-63.01701,1000.324
21.331840515,20.58845,-2.601054,-5.603211,0.001709017,-0.0002305962,0.9275125,-33.34053,14.01139,-63.78353,1000.324
21.351659298,16.91444,1.513809,-4.930424,0.04525856,0.04432597,0.9357085,-33.34053,14.01139,-63.78353,1000.321
21.371477604,2.095937,3.571241,-10.80202,0.05291094,0.05062947,0.9081863,-32.58398,12.97196,-64.2113,1000.321
21.391295910,3.504307,1.392784,-8.844821,0.08660499,-0.01020773,0.8478373,-32.58398,12.97196,-64.2113,1000.323
21.411114693,13.914,0.6061188,-1.505327,0.1074888,-0.004742163,0.8482337,-32.58398,12.97196,-64.2113,1000.323
21.430932999,14.34263,6.717902,1.858608,0.06903994,0.03757025,0.9099616,-34.07412,13.29987,-65.41561,1000.32
21.450751305,-3.476308,9.622512,-1.383002,0.01862239,0.03888997,0.9599603,-34.07412,13.29987,-65.41561,1000.32
