Time (s),Gyroscope X (deg/s),Gyroscope Y (deg/s),Gyroscope Z (deg/s),Accelerometer X (g),Accelerometer Y (g),Accelerometer Z (g),Magnetometer X (uT),Magnetometer Y (uT),Magnetometer Z (uT),Barometer (hPa)
0.000000000,-1.455604,-1.935415,-0.09859026,0.03159546,0.006435751,1.002681,6.848849,-6.301834,-77.69518,1000.8
0.017340183,-1.333137,-1.511826,-0.3432401,0.03251297,0.009823477,0.9920744,8.326077,-5.910788,-77.26385,1000.8
0.037155628,-0.2309344,-1.088237,-0.7102148,0.0257415,0.007859291,0.9998243,8.326077,-5.910788,-77.26385,1000.8
0.056972504,-0.1084674,-1.693364,-0.7713773,0.03408168,0.001109743,1.00988,8.326077,-5.910788,-77.26385,1000.799
0.076788902,0.1364664,-1.330288,-0.2209152,0.02428629,0.005410087,0.9969235,7.231597,-7.024025,-77.30359,1000.799
0.096605301,1.116202,-1.995928,0.1460596,0.03450632,0.005956897,0.9997665,7.231597,-7.024025,-77.30359,1000.801
0.116421223,0.6263342,-1.269775,0.2683845,0.03450145,0.008886646,1.00316,7.579249,-5.552058,-77.26756,1000.801
0.136237621,-0.4146348,-0.9066988,0.02373465,0.03011855,0.01374847,1.009484,7.579249,-5.552058,-77.26756,1000.799
0.156054020,0.2589334,-0.7251607,-0.5878899,0.03260073,-0.005268839,0.9929617,7.579249,-5.552058,-77.26756,1000.799
0.175870419,1.422369,-1.027724,-0.7713773,0.03696027,-0.0003699115,0.9958591,7.236642,-7.397937,-77.67712,1000.803
0.195686340,0.7488011,-0.9672114,0.3295469,0.01885833,0.02879228,1.012519,7.236642,-7.397937,-77.67712,1000.803
0.215502739,1.851004,0.364068,0.207222,0.04381374,0.001652864,1.012243,7.236642,-7.397937,-77.67712,1000.8
0.235319138,-0.4758682,0.5456061,0.7576842,0.0311925,-0.009639962,1.00067,7.207179,-5.571678,-78.08955,1000.8
0.257612228,0.1976999,0.7876569,-0.03742781,0.0316429,-0.0008634296,1.004574,7.207179,-5.571678,-78.08955,1000.805
0.277429104,1.116202,0.2430426,-0.1597527,0.0325474,0.009848084,1.002211,7.242393,-7.764632,-77.67065,1000.805
0.297245503,1.177435,0.0615045,0.2683845,0.02963439,0.01276976,1.008516,7.242393,-7.764632,-77.67065,1000.802
0.317061901,0.3814003,-0.6646479,-0.2209152,0.03885601,0.009382161,0.9973469,7.207887,-5.564461,-77.70953,1000.802
0.336878300,-0.3534013,0.0009917939,-0.2209152,0.0461477,0.0108842,0.9987627,7.207887,-5.564461,-77.70953,1000.805
0.356694222,-0.04723396,1.634835,0.207222,0.03983955,0.005972865,0.9949106,7.207887,-5.564461,-77.70953,1000.805
0.376510620,1.422369,0.9691951,0.3907094,0.02967739,0.001556438,1.002666,7.230065,-7.039661,-78.12696,1000.806
0.396327019,1.299902,0.0009917939,0.8188466,0.02575348,0.005423496,0.999329,7.230065,-7.039661,-78.12696,1000.806
0.416143417,0.8712681,-0.3015717,0.6353592,0.03212338,0.009890095,1.020555,7.230065,-7.039661,-78.12696,1000.811
0.435959339,-0.4758682,0.2430426,-0.03742781,0.0291797,0.008878881,1.011395,6.827512,-4.888952,-77.34,1000.811
0.455775738,0.0139995,-0.1200336,-0.2820776,0.03356812,0.007443103,1.012329,6.827512,-4.888952,-77.34,1000.81
0.475592136,0.5038673,-0.7856733,0.4518718,0.03160426,0.009864142,1.010904,7.225139,-6.664546,-77.69009,1000.81
0.495409012,0.1976999,-0.7251607,0.2683845,0.02916767,0.008381411,1.007048,7.225139,-6.664546,-77.69009,1000.81
0.517702103,-0.5983351,-0.4225971,-0.09859026,0.04133729,0.002586005,1.000677,7.225139,-6.664546,-77.69009,1000.81
0.537518501,-0.6595686,-0.1805463,-0.2209152,0.03355546,0.002056467,0.9997517,6.462018,-5.266847,-77.71215,1000.815
0.557334900,-0.2921678,-0.9672114,-0.4044026,0.03208777,0.004487054,1.00122,6.462018,-5.266847,-77.71215,1000.815
0.577151299,0.2589334,-0.3620844,-0.1597527,0.03404346,0.003526788,1.002653,7.601426,-7.027259,-77.68499,1000.814
0.596967220,0.2589334,-0.6646479,0.2683845,0.03500198,0.008410442,1.006534,7.601426,-7.027259,-77.68499,1000.814
0.616783619,0.3814003,-0.6041352,0.7576842,0.03447854,0.01180351,1.001245,7.601426,-7.027259,-77.68499,1000.815
0.636600018,-0.4146348,0.364068,0.2683845,0.04030355,0.01084814,0.9963811,7.590632,-6.286652,-77.31794,1000.815
0.656416416,-0.7820356,1.332271,0.207222,0.0413138,0.003546964,0.9953727,7.590632,-6.286652,-77.31794,1000.816
0.676233292,0.5651007,0.9691951,0.6965217,0.03305327,0.001064868,0.9934745,7.220096,-6.290635,-77.31655,1000.816
0.696049690,1.238669,0.364068,0.6965217,0.0325916,0.005479825,1.00798,7.220096,-6.290635,-77.31655,1000.814
0.715865612,0.6263342,-0.05952091,1.063496,0.0281721,0.01129324,1.005138,7.220096,-6.290635,-77.31655,1000.814
0.735682011,0.3814003,-0.5436226,0.6353592,0.02913929,0.01080549,1.002717,6.842982,-5.936342,-77.76499,1000.815
0.755498409,0.1976999,-0.5436226,-0.09859026,0.03498778,0.008889163,1.003158,6.842982,-5.936342,-77.76499,1000.815
0.775314808,-0.2309344,0.0615045,-0.4044026,0.03737848,0.01180572,0.9959194,6.484063,-6.672512,-77.68731,1000.816
0.797607899,-0.4146348,0.1220172,0.02373465,0.04423125,0.00453943,0.9968099,6.484063,-6.672512,-77.68731,1000.816
0.817424298,0.7488011,0.0009917939,-1.199515,0.03115322,-0.005268188,0.9963484,6.484063,-6.672512,-77.68731,1000.818
0.837240696,-0.2921678,0.9086823,-0.8325397,0.03603298,-0.0008314033,1.008411,7.213521,-5.932359,-77.76638,1000.818
0.857057572,-0.2921678,1.332271,0.02373465,0.02724951,-0.002364432,0.9973501,7.213521,-5.932359,-77.76638,1000.823
0.876873970,1.054968,-0.4225971,-0.8937021,0.02528731,0.001524412,0.9988288,7.213521,-5.932359,-77.76638,1000.823
0.896689892,0.8712681,-0.5436226,-1.749977,0.03885546,0.008892894,0.996379,7.213521,-5.932359,-77.76638,1000.821
0.916506291,-0.2921678,1.695347,-1.444164,0.04854279,0.01478164,0.9944255,7.213521,-5.932359,-77.76638,1000.821
0.936322689,0.3201669,2.300474,-0.7102148,0.04612534,0.01429033,0.997815,7.59134,-6.279435,-76.93792,1000.822
0.956139088,1.238669,0.7876569,0.7576842,0.03644127,0.006937298,0.998313,7.59134,-6.279435,-76.93792,1000.822
0.975955487,1.544836,-0.3015717,1.063496,0.02962236,0.01227229,1.00417,7.590516,-6.287854,-77.38127,1000.823
0.995771885,0.4426338,0.1825299,0.1460596,0.03497092,0.01425471,1.007047,7.590516,-6.287854,-77.38127,1000.823
1.015587807,-1.02697,1.634835,-0.09859026,0.04225928,0.01282114,1.002655,7.590516,-6.287854,-77.38127,1000.825
1.035404205,-0.2309344,0.5456061,0.9411715,0.03497139,0.008877445,0.998331,7.60131,-7.028462,-77.74833,1000.825
1.057698250,0.6875677,0.0615045,1.491634,0.03206059,0.0137562,1.008508,7.60131,-7.028462,-77.74833,1000.827
1.077514648,-0.2921678,-0.1200336,1.675121,0.03209221,0.008401199,1.008963,7.595559,-6.661767,-77.75481,1000.827
1.097330570,-0.3534013,0.4245807,1.430471,0.01555749,0.004404996,1.002758,7.595559,-6.661767,-77.75481,1000.828
1.117146969,-0.1697009,-0.1200336,0.5741968,0.02136564,0.008815175,1.001784,7.595559,-6.661767,-77.75481,1000.828
1.136963367,-1.02697,-0.6646479,0.2683845,0.02527482,0.006404203,1.003198,7.214345,-5.923939,-77.32303,1000.83
1.156779766,-0.7820356,-1.027724,0.08489711,0.03838645,-0.001852429,0.9837767,7.214345,-5.923939,-77.32303,1000.83
1.176596165,1.177435,-0.3015717,0.3295469,0.04034161,-0.001835331,0.9866622,7.590632,-6.286652,-77.31794,1000.829
1.196413040,0.993735,0.8481696,0.5741968,0.04030618,0.004494688,0.9866949,7.590632,-6.286652,-77.31794,1000.829
1.216228485,0.5038673,1.634835,0.5130343,0.03302662,0.009356646,0.9993094,7.590632,-6.286652,-77.31794,1000.83
1.236045361,-0.5983351,2.300474,-0.1597527,0.02866931,0.007881423,1.002704,6.861766,-7.020791,-76.92218,1000.83
1.255861759,-1.700538,2.966114,0.1460596,0.02628627,0.005948092,1.013809,6.861766,-7.020791,-76.92218,1000.831
1.275678158,-1.39437,1.816373,0.1460596,0.02578784,0.001048207,1.002203,7.584882,-5.919956,-77.32442,1000.831
1.295494556,-0.8432691,0.3035553,0.1460596,0.03165643,-0.009164582,0.9948776,7.584882,-5.919956,-77.32442,1000.833
1.315310955,-1.149436,-0.4831098,-0.7713773,0.04380006,0.001154221,1.007414,7.584882,-5.919956,-77.32442,1000.833
1.337604046,-1.39437,0.6061188,-1.260677,0.03257895,9.31893E-05,0.9954028,6.861766,-7.020791,-76.92218,1000.836
1.357420445,-0.7820356,1.271759,-0.6490523,0.0384346,0.001604086,1.003584,6.861766,-7.020791,-76.92218,1000.836
1.377237320,-0.04723396,0.1220172,0.7576842,0.03791386,0.003043594,0.9958715,7.584058,-5.928376,-77.76777,1000.836
1.397053719,0.4426338,-0.1805463,1.308146,0.02915885,0.003486386,0.9964043,7.584058,-5.928376,-77.76777,1000.836
1.416870117,0.1364664,0.4245807,0.6353592,0.02627694,0.003497064,1.007039,7.584058,-5.928376,-77.76777,1000.831
1.436686516,-0.4146348,0.7271442,0.1460596,0.03504452,0.002574378,1.0094,7.602841,-7.012825,-76.92496,1000.831
1.456502438,-0.3534013,0.2430426,0.6353592,0.02531627,0.001056236,1.006549,7.602841,-7.012825,-76.92496,1000.832
1.476318836,0.4426338,-0.3015717,0.6965217,0.02725339,0.001060445,1.004125,7.602841,-7.012825,-76.92496,1000.832
1.496135235,-0.9045025,-0.9066988,0.5741968,0.02531627,0.001056236,1.006549,7.954597,-5.924393,-77.76916,1000.831
1.515951634,-2.680273,0.2430426,0.1460596,0.02042141,0.00931933,1.010962,7.954597,-5.924393,-77.76916,1000.831
1.535768509,-1.945472,0.1220172,-0.8937021,0.02482617,0.004962005,1.011881,7.230773,-7.032445,-77.74694,1000.828
1.555584908,-1.761771,-0.6041352,-0.6490523,0.0233786,0.0005627593,1.008005,7.230773,-7.032445,-77.74694,1000.828
1.575401306,-0.5983351,-1.935415,-0.5267274,0.02530648,0.00398247,1.008495,7.230773,-7.032445,-77.74694,1000.825
1.597694397,-0.2921678,-2.419516,-0.3432401,0.0335795,0.001584776,1.006024,8.69638,-5.909211,-77.39191,1000.825
1.617510796,-0.6595686,-1.330288,-0.3432401,0.04133452,0.0001396649,0.9958378,8.69638,-5.909211,-77.39191,1000.827
1.637327194,-0.9045025,-0.4225971,-0.5878899,0.03450406,0.00106656,0.9910532,7.590516,-6.287854,-77.38127,1000.827
1.657143593,-0.8432691,0.2430426,-0.5267274,0.03210842,-0.003320143,0.9944224,7.590516,-6.287854,-77.38127,1000.828
1.676960468,0.1364664,0.4850934,-0.7102148,0.03019099,-0.001843658,1.005059,7.590516,-6.287854,-77.38127,1000.828
1.696776867,0.2589334,-0.4831098,-0.1597527,0.02434693,0.003986811,1.012362,7.206944,-5.574083,-78.21622,1000.825
1.716592789,0.2589334,-2.298491,-0.3432401,0.02383109,0.003963202,1.003676,7.206944,-5.574083,-78.21622,1000.825
1.736409187,-0.2921678,-1.3908,-0.6490523,0.03257193,0.005465764,1.002188,7.60777,-7.38794,-77.36183,1000.825
1.756225586,-1.21067,0.2430426,-0.8325397,0.03017028,0.001563642,1.004594,7.60777,-7.38794,-77.36183,1000.825
1.776041985,-1.516837,0.364068,-1.016027,0.03163084,-0.002827533,0.9978064,7.60777,-7.38794,-77.36183,1000.826
1.795858383,-0.3534013,-0.1200336,-0.8325397,0.03400951,-0.0004084487,0.9862215,7.573514,-5.256102,-77.77965,1000.826
1.815674782,-0.1697009,0.3035553,-0.3432401,0.03600277,-0.01014156,0.9842299,7.573514,-5.256102,-77.77965,1000.825
1.835491657,1.054968,1.453297,-0.2820776,0.02868386,-0.005307723,0.9852602,7.230773,-7.032445,-77.74694,1000.825
1.855308056,1.054968,2.179449,-0.5267274,0.02381352,-0.00142695,0.9896508,7.230773,-7.032445,-77.74694,1000.82
1.877601147,0.6263342,1.997911,-0.2820776,0.02190377,0.001032759,1.004154,7.230773,-7.032445,-77.74694,1000.82
1.897417546,0.993735,0.2430426,-0.03742781,0.01656835,0.0005263513,1.00756,7.573514,-5.256102,-77.77965,1000.821
1.917233944,0.4426338,0.3035553,-0.465565,0.02628786,0.003015999,1.00945,7.573514,-5.256102,-77.77965,1000.821
1.937050343,-0.2309344,0.4850934,-0.5267274,0.02966652,0.004970768,1.005097,7.226438,-6.651316,-76.99339,1000.821
1.956866741,0.5038673,0.1825299,-0.1597527,0.03698593,-0.002307064,1.000193,7.226438,-6.651316,-76.99339,1000.821
1.976683617,0.7488011,0.3035553,0.4518718,0.03652092,-0.002294347,1.006471,7.226438,-6.651316,-76.99339,1000.816
1.996500015,0.07523298,0.4850934,0.9411715,0.03117839,-0.00329471,1.006977,7.583232,-5.936796,-78.21112,1000.816
2.016316414,-0.1084674,0.2430426,0.6965217,0.02243042,-0.00675786,1.003146,7.583232,-5.936796,-78.21112,1000.815
2.036132336,-0.2309344,-0.05952091,0.207222,0.02827238,-0.007212238,1.004077,7.584058,-5.928376,-77.76777,1000.815
2.055948734,-0.04723396,0.1220172,0.5741968,0.02681456,-0.001841355,1.013283,7.584058,-5.928376,-77.76777,1000.814
2.075765133,0.3201669,-0.846186,0.5741968,0.02290419,-0.006275449,1.00025,7.584058,-5.928376,-77.76777,1000.814
2.095581532,0.5038673,-1.027724,-0.1597527,0.03552641,-0.00133725,1.001654,7.584058,-5.928376,-77.76777,1000.813
2.115397930,-1.02697,0.3035553,-0.09859026,0.03554713,-0.004744549,1.002119,7.584058,-5.928376,-77.76777,1000.813
2.137691975,-0.2921678,1.029708,0.2683845,0.02242497,-0.005784011,1.003151,7.584058,-5.928376,-77.76777,1000.812
2.157508373,1.054968,0.1825299,0.1460596,0.0312012,-0.0120781,0.9992093,7.584058,-5.928376,-77.76777,1000.812
2.177324295,0.8100346,0.1220172,0.1460596,0.0306413,0.001066345,0.9992799,7.584058,-5.928376,-77.76777,1000.815
2.197140694,-0.4758682,0.7876569,-0.2820776,0.0277615,-0.004299066,1.001681,7.595559,-6.661767,-77.75481,1000.815
2.216957092,-0.5983351,1.271759,-0.1597527,0.0233556,-0.002386911,0.9964059,7.595559,-6.661767,-77.75481,1000.815
2.236773491,-0.04723396,0.0009917939,0.3907094,0.02049443,-0.0043169,1.009927,7.590516,-6.287854,-77.38127,1000.815
2.256589890,1.299902,-0.9672114,0.3907094,0.02578618,-0.0004195971,0.9992988,7.590516,-6.287854,-77.38127,1000.815
2.276406765,1.361136,-1.088237,0.1460596,0.03068601,-0.005745911,1.001175,7.590516,-6.287854,-77.38127,1000.815
2.296223164,1.177435,-0.241059,0.08489711,0.03892906,-0.002787436,0.9987319,7.225022,-6.66575,-77.75343,1000.816
2.316039562,0.5038673,-0.1805463,0.08489711,0.03260684,0.001579742,1.006029,7.225022,-6.66575,-77.75343,1000.816
2.335855961,0.0139995,-0.05952091,-0.09859026,0.02924071,-0.003788186,1.008433,8.331594,-6.279889,-77.38405,1000.813
2.355672360,-0.1697009,0.6061188,-0.09859026,0.02827568,-0.005743261,1.007463,8.331594,-6.279889,-77.38405,1000.813
2.375488758,0.6875677,0.4850934,0.08489711,0.02241347,-0.007258845,0.9973515,8.331594,-6.279889,-77.38405,1000.812
2.395305634,4.239109,-1.572338,1.246984,0.03069582,-0.007205513,1.001651,7.595559,-6.661767,-77.75481,1000.812
2.417598724,2.769506,-1.3908,0.3295469,0.03939373,0.009910272,1.013275,7.595559,-6.661767,-77.75481,1000.812
2.437415123,-1.21067,0.7876569,-0.7713773,0.03546205,0.006927577,0.9963875,7.950261,-5.543264,-77.01561,1000.812
2.457231522,-1.945472,1.513809,-1.749977,0.03354018,0.003023285,0.9968606,7.950261,-5.543264,-77.01561,1000.809
2.477047920,-3.537542,1.876886,-1.933464,0.03607064,-0.003737717,1.014671,7.950261,-5.543264,-77.01561,1000.809
2.496864319,-2.80274,1.937398,-1.016027,0.03407595,-0.015516,0.9808341,6.854484,-6.669732,-77.75204,1000.811
2.516681194,-0.1697009,2.542525,-0.4044026,0.02974328,-0.01404038,0.9963111,6.854484,-6.669732,-77.75204,1000.811
2.536497593,1.299902,1.09022,-0.2209152,0.0272932,-0.004288694,1.006994,7.574222,-5.248885,-77.39963,1000.812
2.556313992,0.3201669,0.7271442,-0.7713773,0.03497245,0.006922716,0.9954247,7.574222,-5.248885,-77.39963,1000.812
2.576130390,-1.02697,2.542525,-1.260677,0.03984276,0.001575311,0.9886131,7.574222,-5.248885,-77.39963,1000.811
2.595946789,-1.39437,4.539444,-0.9548646,0.03500896,0.000104602,0.9949069,7.595441,-6.66297,-77.81815,1000.811
2.615763188,-0.4146348,4.176368,-0.4044026,0.0267796,-0.0008885984,1.0046,7.595441,-6.66297,-77.81815,1000.803
2.635579109,0.4426338,3.510728,0.5130343,0.02482387,-0.002861597,0.9983262,7.595441,-6.66297,-77.81815,1000.803
2.655395508,0.4426338,2.724063,0.3907094,0.01361483,-0.0004918936,0.9955036,7.956012,-5.909959,-77.00912,1000.803
2.677689552,0.2589334,1.997911,-0.6490523,0.02527147,0.002001962,0.99497,7.956012,-5.909959,-77.00912,1000.803
2.697505951,0.3201669,2.603038,-0.3432401,0.01900429,-0.004346714,1.000764,7.589808,-6.295071,-77.76129,1000.803
2.717322350,1.544836,1.876886,-0.5267274,0.0170541,-0.001427032,1.004168,7.589808,-6.295071,-77.76129,1000.803
2.737138748,1.728537,1.574322,-0.1597527,0.02044051,0.00737749,1.013366,7.938302,-4.885423,-77.78752,1000.804
2.756955147,0.9325016,2.4215,-0.2820776,0.008774558,0.00389924,1.00955,7.938302,-4.885423,-77.78752,1000.804
2.776772022,0.6263342,2.966114,-0.5267274,0.01075255,-0.003400419,1.007089,7.938302,-4.885423,-77.78752,1000.805
2.796588421,0.9325016,2.905602,-0.5267274,0.01458148,-2.278714E-06,0.9945354,7.977601,-7.391174,-77.74324,1000.805
2.816404820,-0.04723396,3.268678,-0.09859026,0.01799614,-0.002421627,0.993539,7.977601,-7.391174,-77.74324,1000.805
2.836221218,-0.7208021,3.510728,1.613959,-0.003382591,0.003348222,1.009131,7.977601,-7.391174,-77.74324,1000.805
2.856037140,-0.2309344,1.695347,-0.6490523,-0.009150948,-0.007877729,1.010553,7.956836,-5.90154,-76.56577,1000.802
2.875853539,-2.98644,1.695347,-1.383002,-0.00145263,-7.479009E-05,0.9989669,7.956836,-5.90154,-76.56577,1000.802
2.895669937,-1.823005,2.4215,-0.2820776,0.004492439,-0.01218841,1.010939,7.97173,-7.025681,-77.81306,1000.801
2.915486336,0.1976999,-0.1200336,-0.7102148,2.386281E-05,0.0009230148,1.005722,7.97173,-7.025681,-77.81306,1000.801
2.935303211,0.8712681,-1.572338,-1.07719,0.002445672,0.0009285684,1.002812,7.97173,-7.025681,-77.81306,1000.802
2.957596779,0.3814003,-0.9672114,-1.260677,0.005382724,-0.002464802,1.002779,8.3208,-5.539281,-77.017,1000.802
2.977413178,0.8100346,-0.7856733,-1.138352,-0.003357534,-0.002011464,1.007656,8.3208,-5.539281,-77.017,1000.799
2.997229576,1.238669,-2.116953,-1.016027,-0.002959584,0.008194204,0.998535,8.718558,-7.384411,-77.80936,1000.799
3.017046452,1.422369,-2.298491,-1.383002,0.004847366,0.007763955,1.005248,8.718558,-7.384411,-77.80936,1000.8
3.036862850,0.2589334,-1.088237,-1.933464,0.02139996,0.001506621,0.9998154,8.718558,-7.384411,-77.80936,1000.8
3.056679249,-1.823005,0.6666315,-1.933464,0.02039127,0.004409072,0.9940437,7.950261,-5.543264,-77.01561,1000.796
3.076495647,-0.2921678,0.6061188,-1.627652,-0.000935216,-0.004449906,1.000872,7.950261,-5.543264,-77.01561,1000.796
3.096312046,0.3201669,-1.209262,-1.016027,0.0102471,-0.002927729,1.002267,7.973264,-7.010045,-76.98969,1000.797
3.116128445,2.647039,-3.750796,-0.3432401,0.002947198,-0.005902262,0.9960169,7.973264,-7.010045,-76.98969,1000.797
3.135945320,2.524572,-3.750796,-0.7102148,0.01850212,-0.003871681,0.9969075,7.973264,-7.010045,-76.98969,1000.799
3.155761719,0.0139995,-0.3015717,-0.8325397,0.02728662,-0.005760013,1.002642,8.325725,-5.914396,-77.45387,1000.799
3.175578117,0.2589334,1.09022,-0.6490523,0.007827351,-0.01124264,0.9921013,8.325725,-5.914396,-77.45387,1000.8
3.195394516,1.728537,0.6061188,0.2683845,0.006931085,-0.01901503,1.00172,8.331475,-6.281092,-77.44739,1000.8
3.217687607,2.769506,-1.572338,0.207222,0.005932329,-0.01023902,1.008528,8.331475,-6.281092,-77.44739,1000.801
3.237504005,2.647039,-2.05644,-0.5267274,0.02047418,-0.006286862,1.000746,8.331475,-6.281092,-77.44739,1000.801
3.257320404,1.912237,-0.241059,-1.016027,0.0151443,-0.001900589,1.01383,8.315299,-5.240919,-77.4024,1000.8
3.277137280,0.6263342,0.7876569,-1.07719,0.01515199,0.0005492669,1.020117,8.315299,-5.240919,-77.4024,1000.8
3.296953678,0.0139995,-0.3015717,-1.627652,0.01270567,0.006392667,1.02547,8.330768,-6.288308,-77.82741,1000.802
3.316770077,-0.2921678,-1.632851,-2.178114,0.01562245,-0.0004372979,1.013835,8.330768,-6.288308,-77.82741,1000.802
3.336586475,-0.3534013,-3.145669,-2.055789,0.02239008,-0.0004313565,1.001731,8.330768,-6.288308,-77.82741,1000.801
3.356402874,0.1364664,-2.72208,-1.872301,0.02771942,-0.003840265,0.9900998,7.58969,-6.296274,-77.82463,1000.801
3.376219273,-0.7820356,-1.330288,-2.116951,0.03746349,-0.004266306,0.9943883,7.58969,-6.296274,-77.82463,1000.799
3.396036148,-0.1697009,-1.632851,-1.260677,0.02766758,0.001011403,0.9828848,8.707055,-6.651021,-77.82232,1000.799
3.415852547,0.7488011,-0.9672114,-0.8325397,0.03255704,-0.003344577,0.9833184,8.707055,-6.651021,-77.82232,1000.802
3.435668945,0.3814003,0.7271442,-0.6490523,0.03159207,-0.0008997549,0.989611,8.707055,-6.651021,-77.82232,1000.802
3.455485344,-1.271903,2.118936,-1.138352,0.02672665,0.002984534,0.9954497,8.327966,-5.891543,-76.25047,1000.801
3.475301743,0.1364664,0.4850934,-1.505327,0.01165586,0.0004660287,0.9931058,8.327966,-5.891543,-76.25047,1000.801
3.497595787,1.851004,-0.7251607,-1.872301,0.01941644,0.005380231,0.9950194,8.325017,-5.921613,-77.83389,1000.802
3.517412186,1.054968,-0.1805463,-2.178114,0.02623653,0.00542367,0.9983611,8.325017,-5.921613,-77.83389,1000.802
3.537228584,0.6875677,0.5456061,-2.055789,0.02332287,0.001989551,0.9940153,8.325017,-5.921613,-77.83389,1000.795
3.557044983,1.299902,2.118936,-1.749977,0.01849059,-0.006813149,0.9886869,7.960937,-6.285074,-77.446,1000.795
3.576861382,1.60607,3.08714,-1.749977,0.007308412,0.0004644692,1.001818,7.960937,-6.285074,-77.446,1000.794
3.596678257,1.973471,2.784576,-1.505327,0.004357735,0.006292462,1.001864,8.325017,-5.921613,-77.83389,1000.794
3.616494656,2.218405,1.513809,-1.444164,0.0106648,0.0116919,1.006201,8.325017,-5.921613,-77.83389,1000.793
3.636311054,3.259373,0.0009917939,-1.566489,0.03832493,0.01325864,0.9906121,8.325017,-5.921613,-77.83389,1000.793
3.656127453,2.891973,-0.05952091,-2.239276,0.05340278,0.01333783,0.9910128,7.972438,-7.018465,-77.43304,1000.792
3.675943852,2.034704,1.876886,-3.8295,0.05587036,0.004576399,0.9870928,7.972438,-7.018465,-77.43304,1000.792
3.695760250,-0.1084674,3.631754,-6.153673,0.05498675,0.002190646,1.009289,7.948728,-5.558901,-77.83898,1000.792
3.715577126,0.1364664,3.026627,-7.80506,0.0506435,-0.008563094,1.001534,7.948728,-5.558901,-77.83898,1000.792
3.735393524,0.9325016,2.239962,-8.049709,0.05458155,-0.01730877,1.000985,7.948728,-5.558901,-77.83898,1000.793
3.757686615,1.054968,2.360987,-7.376923,0.06087053,-0.01485549,0.9951711,7.961762,-6.276655,-77.00265,1000.793
3.777503014,1.728537,1.634835,-7.866222,0.06709404,-0.00511592,0.9821547,7.961762,-6.276655,-77.00265,1000.794
3.797319412,1.483603,3.631754,-10.00691,0.07293615,0.004696128,1.000032,8.695554,-5.91763,-77.83527,1000.794
3.817135811,-0.2921678,6.959952,-11.65829,0.0851758,0.00286174,1.020711,8.695554,-5.91763,-77.83527,1000.791
3.836952210,-0.9045025,7.80713,-11.23016,0.08238111,-0.01124253,1.033686,8.695554,-5.91763,-77.83527,1000.791
3.856769562,0.4426338,4.236881,-8.661334,0.06869508,-0.008428957,1.01833,7.967513,-6.64335,-76.99617,1000.788
3.876585484,0.4426338,3.147652,-6.82646,0.07056952,0.002774515,1.015964,7.967513,-6.64335,-76.99617,1000.788
3.896401882,-1.149436,3.268678,-7.31576,0.07388972,0.006643002,0.9976237,7.967513,-6.64335,-76.99617,1000.79
3.916218281,-0.5371017,3.510728,-8.722497,0.08067369,0.003727396,0.9855047,9.421042,-4.863478,-77.47639,1000.79
3.936034680,1.422369,1.695347,-10.31272,0.08455335,0.001295332,0.9782308,9.421042,-4.863478,-77.47639,1000.789
3.955851078,2.647039,0.1825299,-11.23016,0.08553257,0.001305053,0.9801561,10.11595,-5.902363,-77.8406,1000.789
3.975667954,2.708272,1.392784,-11.71946,0.0890111,-0.005468492,0.9907212,10.11595,-5.902363,-77.8406,1000.79
3.995484352,1.851004,1.937398,-11.35248,0.08754998,-0.001566586,0.9965414,10.11595,-5.902363,-77.8406,1000.79
4.015300751,2.647039,-0.05952091,-10.43505,0.08271457,-0.001571835,1.004773,10.09461,-4.48948,-77.48542,1000.79
4.037594318,1.361136,1.816373,-9.639934,0.08408241,0.006192527,0.9908081,10.09461,-4.48948,-77.48542,1000.79
4.057411194,-0.9045025,4.842008,-9.456446,0.07774391,0.01788115,1.005383,11.21773,-5.210922,-77.47662,1000.789
4.077227592,-1.823005,5.810211,-9.456446,0.08303396,0.01737738,0.9870098,11.21773,-5.210922,-77.47662,1000.789
4.097043991,-0.2921678,5.205084,-9.089471,0.08111642,0.01152071,0.9855424,11.21773,-5.210922,-77.47662,1000.79
4.116860390,0.8100346,4.478932,-7.866222,0.08113769,0.008602673,0.9869751,11.93509,-3.743392,-77.88534,1000.79
4.136676788,0.1976999,3.752779,-6.153673,0.07287674,0.0144311,0.9986345,11.93509,-3.743392,-77.88534,1000.789
4.156493187,1.60607,0.9691951,-5.480886,0.07143789,0.009060353,0.9957189,12.99716,-4.458282,-77.49629,1000.789
4.176310062,3.626774,-0.7856733,-5.358562,0.077781,0.01301893,1.008254,12.99716,-4.458282,-77.49629,1000.788
4.196126461,1.177435,0.4850934,-5.052749,0.06562459,0.02469024,1.02817,12.99716,-4.458282,-77.49629,1000.788
4.215942860,1.851004,-1.14875,-3.890663,0.06810845,0.008607369,1.016973,12.60291,-3.0027,-77.90084,1000.788
4.235759258,5.647479,-4.29541,0.8800091,0.05848541,-0.009946099,1.01693,12.60291,-3.0027,-77.90084,1000.788
4.255575657,8.341751,-5.203101,5.956493,0.0507213,0.003714308,1.044555,13.73753,-4.457532,-77.87909,1000.785
4.275392056,6.810915,-4.779512,7.852529,0.04538163,0.01102681,1.059585,13.73753,-4.457532,-77.87909,1000.785
4.297686100,4.667743,-5.263614,8.219504,0.003589607,0.01474443,1.075761,13.73753,-4.457532,-77.87909,1000.787
4.317502499,3.075673,-7.321045,6.38463,0.03763162,0.01834197,1.080903,14.07381,-2.321711,-78.29829,1000.787
4.337318897,1.238669,-8.591812,5.650681,0.06189061,0.01256027,1.054193,14.07381,-2.321711,-78.29829,1000.794
4.357135296,2.402105,-6.050279,7.240905,0.01709465,0.005446156,1.027372,14.11381,-4.820245,-77.87399,1000.794
4.376952171,3.320607,-3.811309,6.935092,0.01220851,0.01273774,1.032745,14.11381,-4.820245,-77.87399,1000.794
4.396768570,2.708272,-5.868741,6.935092,-0.0207827,0.008712213,1.049799,14.11381,-4.820245,-77.87399,1000.794
4.416584969,1.299902,-9.681041,3.448832,-0.001808832,0.003437798,1.042911,12.97274,-3.005934,-78.28224,1000.795
4.436401367,-4.700978,-7.684122,-0.9548646,0.03166053,0.008926619,1.025862,12.97274,-3.005934,-78.28224,1000.795
4.456217766,-7.517717,-2.05644,-1.260677,0.04761112,0.0148059,1.006498,13.00713,-5.207308,-78.3067,1000.792
4.476035118,-5.129612,-1.027724,3.265345,0.03108567,0.008860826,0.9998002,13.00713,-5.207308,-78.3067,1000.792
4.495851517,-0.7208021,-5.747715,6.751605,0.01163411,0.007294689,0.9979678,13.00713,-5.207308,-78.3067,1000.791
4.515667915,-1.455604,-6.957969,7.424392,0.01304834,0.01118123,0.9912226,12.98341,-3.747744,-78.71264,1000.791
4.535484314,-5.986881,-2.601054,6.445793,0.02171145,0.004806289,0.9539762,12.98341,-3.747744,-78.71264,1000.791
4.555300713,-8.130052,3.752779,4.916731,0.006655906,-0.001612299,0.9496815,13.35899,-4.117674,-79.08756,1000.791
4.577594280,-5.741947,3.873805,3.999295,-0.02400183,0.007504139,0.9595497,13.35899,-4.117674,-79.08756,1000.792
4.597410679,-3.292608,-1.451313,4.427432,-0.01376531,0.0139292,0.9769031,13.35899,-4.117674,-79.08756,1000.792
4.617227078,-2.190405,-6.110791,10.1767,0.00525832,0.01064583,0.9878837,12.24081,-3.771347,-79.53323,1000.793
4.637043953,-3.170141,-3.750796,19.77921,0.01051746,0.02625276,0.9869698,12.24081,-3.771347,-79.53323,1000.793
4.656860829,-5.497013,4.720983,18.86177,0.08473074,0.06120831,0.9862603,12.99996,-4.855047,-79.07322,1000.793
4.676677227,-4.945911,8.835846,17.57736,0.09633722,0.07148828,0.9838362,12.99996,-4.855047,-79.07322,1000.793
4.696493626,1.238669,5.689186,12.07274,0.06733809,-0.05578419,0.970309,12.99996,-4.855047,-79.07322,1000.794
4.716310024,2.830739,2.845089,13.1125,0.0204639,0.0005500017,1.008986,12.61134,-3.767364,-79.53462,1000.794
4.736126423,-2.863973,9.017385,4.794406,-0.005078014,0.0520589,1.02001,12.61134,-3.767364,-79.53462,1000.795
4.755942822,-7.02785,12.34558,7.302067,-0.03911786,0.04748517,1.013898,11.9501,-4.866332,-79.06928,1000.795
4.775759697,-4.639744,6.89944,5.039056,-0.01680571,0.04902539,0.9988206,11.9501,-4.866332,-79.06928,1000.791
4.795576096,-1.149436,0.8481696,3.999295,0.02060699,0.03452826,0.9642711,11.9501,-4.866332,-79.06928,1000.791
4.815392494,1.667303,0.9691951,5.711843,0.05874974,-0.0179242,0.9386937,11.2245,-5.921687,-79.4915,1000.792
4.837686062,3.136906,2.118936,7.791367,0.05041426,0.01033908,0.9654317,11.2245,-5.921687,-79.4915,1000.792
4.857502938,1.116202,3.99483,14.45807,0.05786761,0.005601329,1.003981,10.4907,-6.280711,-78.65887,1000.793
4.877319336,0.2589334,6.415338,17.88317,0.03052428,0.03227052,1.016335,10.4907,-6.280711,-78.65887,1000.793
4.897135735,3.871708,5.689186,11.76693,0.002722862,0.04771333,1.018497,10.4907,-6.280711,-78.65887,1000.794
4.916952133,5.096377,2.058424,2.65372,-0.007351494,0.03113786,1.031982,10.13671,-7.391997,-79.01806,1000.794
4.936768532,3.259373,1.029708,-1.994627,0.009161305,0.03169629,1.026102,10.13671,-7.391997,-79.01806,1000.792
4.956584931,0.6263342,0.6666315,-1.383002,0.01003067,0.03162751,0.9956881,10.14246,-7.758692,-79.01158,1000.792
4.976401806,2.279638,-1.088237,-3.768338,0.03487527,0.01369748,0.9780837,10.14246,-7.758692,-79.01158,1000.791
4.996218204,2.830739,-3.569258,-2.483926,0.04951108,0.01527243,0.9939401,10.14246,-7.758692,-79.01158,1000.791
5.016034603,1.60607,-3.327207,-1.933464,0.06981955,0.02458283,0.9745696,9.781644,-8.443369,-79.44167,1000.792
5.035851479,1.238669,-0.05952091,-3.646013,0.08443189,0.02711874,0.9851215,9.781644,-8.443369,-79.44167,1000.792
5.055668354,-2.863973,4.902521,-3.156713,0.06940557,0.03783156,1.017598,9.781644,-8.443369,-79.44167,1000.795
5.075484753,-5.374546,7.867643,0.3907094,0.04354794,0.06061643,1.031372,10.51779,-8.060289,-79.00757,1000.795
5.095301151,1.054968,0.364068,3.754644,0.03129972,0.07222212,1.024258,10.51779,-8.060289,-79.00757,1000.792
5.117594242,5.035144,-6.292329,6.445793,0.04921211,0.08398971,1.019394,10.53351,-9.176011,-79.8115,1000.792
5.137411594,1.851004,-3.266694,7.852529,0.05510528,0.0737945,1.019309,10.53351,-9.176011,-79.8115,1000.794
5.157227993,-0.7208021,-1.451313,5.039056,0.04248795,0.06739318,1.016932,10.8875,-8.064726,-79.45231,1000.794
5.177044392,-0.5371017,-5.082076,1.552796,0.06118878,0.03635847,1.030185,10.8875,-8.064726,-79.45231,1000.795
5.196860790,-0.1697009,-5.808228,-1.383002,0.04661627,0.02847342,1.022502,10.8875,-8.064726,-79.45231,1000.795
5.216677189,1.361136,-5.203101,-1.749977,0.04573908,0.01729256,1.032103,9.798896,-9.543455,-79.42223,1000.796
5.236493588,2.647039,-4.113872,-3.279038,0.03281198,0.01345928,1.085731,9.798896,-9.543455,-79.42223,1000.796
5.256310463,2.708272,-1.995928,-5.786699,0.04271324,-5.396595E-05,1.114568,9.798896,-9.543455,-79.42223,1000.794
5.276126862,3.38184,3.208165,-9.884583,-0.02527805,-0.01793795,1.113883,9.793853,-9.169542,-79.04869,1000.794
5.295943260,5.218844,0.9691951,-10.25156,-0.1104275,0.001146614,1.134237,9.793853,-9.169542,-79.04869,1000.795
5.315759659,-0.1084674,-6.473867,-9.395284,-0.118395,0.008795191,1.092327,9.81615,-10.64354,-79.40279,1000.795
5.335576058,-2.557806,-14.52206,-6.642973,-0.04094734,0.01089248,0.9876552,9.81615,-10.64354,-79.40279,1000.795
5.355392456,-0.9045025,-12.10155,-2.667413,0.04638319,0.01217407,0.9273317,9.81615,-10.64354,-79.40279,1000.795
5.377686501,2.769506,-4.416436,-2.239276,0.06483903,0.006385604,0.9103072,9.803939,-9.917367,-79.79577,1000.798
5.397502899,5.892412,0.8481696,-4.196475,0.01540921,-0.006456161,0.9414032,9.803939,-9.917367,-79.79577,1000.798
5.417319298,4.79021,2.482013,-4.379962,-0.02569896,-0.02361637,0.9811198,8.768842,-10.98326,-80.59684,1000.797
5.437136650,2.769506,1.029708,-3.768338,-0.04078383,-0.01832299,0.9875042,8.768842,-10.98326,-80.59684,1000.797
5.456953049,5.218844,-0.4225971,-6.214836,-0.008642606,-0.03328083,0.9751846,8.768842,-10.98326,-80.59684,1000.796
5.476769447,3.871708,2.239962,-9.272959,-0.04020055,-0.03976155,0.9806334,8.764758,-10.67046,-80.22222,1000.796
5.496585846,0.993735,4.478932,-7.80506,-0.05523631,-0.03883291,0.9942356,8.764758,-10.67046,-80.22222,1000.792
5.516402245,2.034704,0.364068,-4.624612,-0.02513682,-0.03333711,0.9873415,9.156634,-12.07936,-80.57879,1000.792
5.536219120,3.688008,-3.690283,-0.9548646,0.01708207,-0.0302505,0.964923,9.156634,-12.07936,-80.57879,1000.793
5.556035519,0.3814003,-2.72208,-0.1597527,0.03078789,0.01353673,0.9201838,9.156634,-12.07936,-80.57879,1000.793
5.575851917,-0.2309344,-0.4225971,-3.156713,0.04080317,0.02713675,0.8844807,9.134589,-10.6737,-80.60363,1000.794
5.595668316,1.422369,1.574322,-3.8295,0.06275023,0.02289465,0.8954403,9.134589,-10.6737,-80.60363,1000.794
5.615484715,2.708272,4.963033,-2.667413,0.06040541,0.01854427,0.9137726,9.143598,-11.36161,-81.41512,1000.796
5.635301113,6.627214,6.536364,-1.994627,0.04404595,0.002940386,0.9398466,9.143598,-11.36161,-81.41512,1000.796
5.657595158,7.729416,5.326109,-1.566489,0.03835898,-0.01164951,0.9595927,9.143598,-11.36161,-81.41512,1000.797
5.677411556,5.280077,5.568161,-1.566489,0.03788364,-0.007733194,0.969269,9.82445,-11.33867,-80.5943,1000.797
5.697227955,2.340871,5.991749,-1.505327,0.06885818,0.01285294,0.9585862,9.82445,-11.33867,-80.5943,1000.797
5.717045307,5.525012,6.052262,-1.260677,0.08485349,0.01191996,0.9411174,9.835246,-12.07928,-80.96136,1000.797
5.736861706,7.97435,8.412257,0.2683845,0.07811108,0.01682076,0.9686922,9.835246,-12.07928,-80.96136,1000.796
5.756678105,5.218844,10.83277,0.8800091,0.05826612,0.01629626,0.9958282,9.835246,-12.07928,-80.96136,1000.796
5.776494503,2.157171,10.46969,0.6965217,0.04771114,0.01487738,1.035941,10.20649,-12.06808,-80.58273,1000.797
5.796311379,0.5651007,6.717902,1.063496,0.03608361,0.02218177,1.061141,10.20649,-12.06808,-80.58273,1000.797
5.816127777,0.8712681,3.208165,3.448832,0.03558479,0.02705905,1.065513,10.58349,-12.42357,-80.19762,1000.796
5.835944176,2.095937,1.150733,6.445793,0.06387143,0.01064022,1.061413,10.58349,-12.42357,-80.19762,1000.796
5.855760575,-0.4146348,1.211246,5.528356,0.06382986,0.008655025,1.045957,10.58349,-12.42357,-80.19762,1000.796
5.875576973,-2.496573,0.7271442,4.060457,0.05803527,-0.002589676,1.039656,10.95907,-12.7935,-80.57254,1000.796
5.895394325,-4.21111,0.5456061,5.161381,0.04213773,-0.006475558,1.077855,10.95907,-12.7935,-80.57254,1000.797
5.917687416,-4.884678,0.1825299,5.528356,0.03827953,0.006238168,1.10835,10.59428,-13.16418,-80.56467,1000.797
5.937503815,-2.312872,2.663551,4.794406,0.01877853,0.02321383,1.122542,10.59428,-13.16418,-80.56467,1000.796
5.957321167,-2.61904,4.478932,5.589519,-0.01147703,0.06796031,1.166378,10.59428,-13.16418,-80.56467,1000.796
5.977137566,-2.374106,-1.14875,10.1767,-0.02079887,0.05807673,1.126316,10.96482,-13.1602,-80.56606,1000.798
5.996953964,-4.333577,-8.168223,9.198103,-0.06219195,0.06564539,1.123203,10.96482,-13.1602,-80.56606,1000.798
6.016770363,-9.171021,-10.46771,8.036016,-0.07576748,0.04018336,1.093703,11.71011,-13.53456,-81.38573,1000.797
6.036586761,-9.354721,-17.06359,7.546717,-0.06661712,0.02305641,1.039022,11.71011,-13.53456,-81.38573,1000.797
6.056403160,-6.537982,-21.78358,7.240905,-0.006465544,0.008103936,0.9686277,11.71011,-13.53456,-81.38573,1000.796
6.076220036,-5.925647,-15.79282,7.791367,0.02874885,0.03203682,0.9231861,10.59779,-13.55373,-81.76159,1000.796
6.096036434,-3.353841,-5.868741,6.812768,0.04273819,0.03251705,0.8902899,10.59779,-13.55373,-81.76159,1000.794
6.115853310,-2.741507,2.4215,4.182782,-0.006211695,0.02993955,0.936399,9.843682,-12.84394,-82.59513,1000.794
6.135669708,-3.353841,5.628673,2.837208,-0.03681528,0.04202792,0.9670374,9.843682,-12.84394,-82.59513,1000.795
6.155486584,-0.7208021,4.66047,1.675121,-0.05337824,0.04925559,0.9710266,9.843682,-12.84394,-82.59513,1000.795
6.175302982,2.340871,5.810211,1.552796,-0.04800679,0.0468545,0.9733983,10.97159,-13.87096,-82.58094,1000.796
6.197596550,3.19814,5.447135,1.797446,-0.04413958,0.0522355,0.9753354,10.97159,-13.87096,-82.58094,1000.796
6.217412949,0.1364664,3.873805,1.919771,-0.0494543,0.04685516,0.9767849,9.842149,-12.85958,-83.4185,1000.796
6.237229824,-3.415075,0.1825299,2.042096,-0.004162711,0.01877964,0.9483974,9.842149,-12.85958,-83.4185,1000.796
6.257046223,-3.231374,-1.451313,1.675121,0.02052374,0.0232247,0.9212552,9.842149,-12.85958,-83.4185,1000.799
6.276862621,-3.353841,1.876886,1.797446,0.06660964,0.01849262,0.8789856,10.59952,-13.89058,-83.40292,1000.799
6.296679020,-1.39437,6.717902,-0.03742781,0.06812105,0.0156044,0.8895814,10.59952,-13.89058,-83.40292,1000.801
6.316496372,0.8100346,7.504567,0.6353592,0.03461162,0.03404167,0.9342659,10.59952,-13.89058,-83.40292,1000.801
6.336312771,-0.2309344,5.447135,1.308146,0.02633221,0.04816774,0.9541736,10.9588,-13.22154,-83.79621,1000.802
6.356129170,-0.4146348,5.568161,2.89837,0.02438959,0.04620411,0.9517608,10.9588,-13.22154,-83.79621,1000.802
6.375945568,1.116202,4.055343,3.815807,0.04372338,0.06528547,0.9478915,10.97006,-13.8866,-83.40431,1000.803
6.395761967,3.19814,1.211246,3.632319,0.0642447,0.05568198,0.9597968,10.97006,-13.8866,-83.40431,1000.803
6.415578365,-0.4758682,4.115856,1.980933,0.07548281,0.06017726,0.9824442,10.97006,-13.8866,-83.40431,1000.803
6.435395241,-2.251639,6.657389,0.02373465,0.05276726,0.04940522,1.006647,11.32934,-13.21756,-83.7976,1000.803
6.457688809,-0.7208021,0.9691951,-1.199515,0.02081764,0.04983384,1.051231,11.32934,-13.21756,-83.7976,1000.798
6.477505207,1.361136,-5.263614,-1.627652,0.04382624,0.03294962,1.067429,12.09176,-14.62247,-84.15556,1000.798
6.497322559,1.728537,-6.897457,-3.707175,0.06427047,0.02035779,1.051807,12.09176,-14.62247,-84.15556,1000.799
6.517138958,3.565541,-5.929253,-3.095551,0.05505256,0.01690384,1.052805,12.09176,-14.62247,-84.15556,1000.799
6.536955357,5.525012,-3.992847,-2.483926,0.04332572,0.03342582,1.064055,11.70889,-13.90149,-84.61048,1000.8
6.556771755,6.872148,-4.476948,-2.055789,0.03843859,0.04707203,1.079598,11.70889,-13.90149,-84.61048,1000.8
6.576588631,3.688008,-1.874902,-2.055789,0.09658168,0.0819293,1.072701,12.09668,-14.99759,-84.59243,1000.799
6.596405029,6.688447,3.752779,-3.462525,0.0166093,0.03379893,1.07434,12.09668,-14.99759,-84.59243,1000.799
6.616221428,5.157611,6.112775,-4.563449,-0.07388651,0.009204682,1.166418,12.09668,-14.99759,-84.59243,1000.799
6.636038304,-0.4758682,0.9691951,-4.012987,-0.08196322,-0.01612303,1.180812,10.97932,-14.64284,-84.59474,1000.799
6.655855179,1.851004,-7.623609,-5.542049,-0.1006092,-0.0407805,1.091975,10.97932,-14.64284,-84.59474,1000.8
6.675671578,4.728976,-13.00924,-4.318799,-0.07117885,-0.02026285,1.056201,12.48152,-16.12376,-86.15778,1000.8
6.695487976,3.994175,-13.91693,-1.444164,-0.01318952,0.003240467,0.9855333,12.48152,-16.12376,-86.15778,1000.797
6.715304375,5.586245,-11.61745,-3.58485,0.02700433,0.01114876,0.947705,12.48152,-16.12376,-86.15778,1000.797
6.737598419,5.586245,-4.234898,-4.991587,0.01631945,0.02088109,0.9680859,12.09303,-15.03488,-86.55585,1000.797
6.757414818,2.218405,2.4215,-6.275998,-0.02794346,0.03189116,0.9847958,12.09303,-15.03488,-86.55585,1000.797
6.777231217,0.993735,3.99483,-4.930424,-0.06822591,0.01951969,0.9892969,11.00838,-16.8276,-86.96371,1000.798
6.797047615,0.5651007,-1.209262,-2.606251,-0.02647909,0.02652497,0.9775201,11.00838,-16.8276,-86.96371,1000.798
6.816864968,-0.1084674,-2.480029,-3.156713,-0.02127719,0.01618076,0.9171037,11.00838,-16.8276,-86.96371,1000.799
6.836681366,-1.39437,0.4245807,-5.603211,-0.001616216,-0.01143576,0.9323,10.61427,-15.44156,-87.81054,1000.799
6.856497765,-1.884238,-1.935415,-5.297399,0.03000323,-0.02153273,0.9175946,10.61427,-15.44156,-87.81054,1000.799
6.876314163,1.361136,-3.266694,-3.156713,0.08126327,0.005414132,0.8759421,11.74172,-16.54413,-88.5553,1000.799
6.896130562,6.259813,2.239962,-3.58485,0.1039112,0.02884856,0.85277,11.74172,-16.54413,-88.5553,1000.8
6.915947914,6.994615,10.46969,-4.257637,0.08647799,0.04689953,0.9046047,11.74172,-16.54413,-88.5553,1000.8
6.935764313,5.647479,14.94763,-4.563449,0.03694855,0.05891904,0.9474132,11.35463,-15.44081,-88.19334,1000.802
6.955580712,4.300342,15.00814,-3.034388,-0.008449688,0.04179829,1.012735,11.35463,-15.44081,-88.19334,1000.802
6.975397110,6.19858,5.144571,-1.444164,-0.007808311,0.03115643,1.040672,11.74651,-16.84971,-88.5499,1000.803
6.995213985,3.320607,1.09022,0.02373465,0.02478497,0.02644293,1.03516,11.74651,-16.84971,-88.5499,1000.803
7.017507553,-0.4758682,4.055343,1.002334,0.05586184,0.0187476,1.007921,11.74651,-16.84971,-88.5499,1000.8
7.037323952,0.2589334,1.513809,2.042096,0.05738406,0.008045152,1.008823,11.75214,-17.21761,-88.60676,1000.8
7.057140350,-0.1697009,-1.14875,3.326507,0.04381759,0.003611108,1.016597,11.75214,-17.21761,-88.60676,1000.802
7.076957703,-0.7820356,-2.782593,4.366269,0.04326012,-0.002797594,0.9851933,12.12702,-17.59475,-89.3617,1000.802
7.096774101,1.667303,-4.416436,6.201143,0.0431477,0.007877247,0.969803,12.12702,-17.59475,-89.3617,1000.803
7.116590500,3.38184,-2.601054,8.525316,0.02698832,0.0360698,0.9840339,12.12702,-17.59475,-89.3617,1000.803
7.136406899,0.5038673,-1.753877,8.769966,-0.02249417,0.04470075,1.03503,12.11001,-16.563,-89.76008,1000.804
7.156223774,-3.047674,-9.317965,8.402991,-0.03835589,0.02470769,1.057218,12.11001,-16.563,-89.76008,1000.804
7.176040173,-6.905383,-16.76103,10.11554,0.01945332,0.02202824,1.033236,11.75341,-17.63001,-91.00706,1000.802
7.195857048,-7.456484,-13.55385,6.506955,0.09278584,0.02820099,1.012111,11.75341,-17.63001,-91.00706,1000.802
7.215673447,-3.231374,-1.753877,4.916731,0.006762077,0.04295094,1.054168,11.75341,-17.63001,-91.00706,1000.802
7.235490322,-7.701417,9.077897,8.831128,-0.07358939,0.03742656,1.15739,11.37642,-17.27451,-91.39217,1000.802
7.255306721,-10.76309,3.026627,10.36019,-0.1087416,0.04985851,1.138339,11.37642,-17.27451,-91.39217,1000.802
7.277600288,-8.436219,-9.257452,11.52228,-0.05983246,0.02942987,1.042397,11.38146,-17.64843,-91.7657,1000.802
7.297416687,-11.19173,-4.840024,8.402991,-0.05314998,0.03670804,1.017298,11.38146,-17.64843,-91.7657,1000.803
7.317233563,-13.5186,2.784576,6.201143,-0.04351844,0.03962368,0.9940917,11.38146,-17.64843,-91.7657,1000.803
7.337050438,-3.843709,4.478932,6.445793,-0.0644511,0.05758908,1.01795,10.99718,-16.94187,-92.98066,1000.8
7.356866837,0.5651007,5.689186,6.017655,-0.06296306,0.06299499,1.035346,10.99718,-16.94187,-92.98066,1000.8
7.376683235,0.8100346,11.07482,7.60788,-0.09003881,0.04096821,1.046,10.97864,-15.92576,-94.20242,1000.799
7.396500111,-0.7820356,11.19584,7.730205,-0.08035804,0.04685226,1.042116,10.97864,-15.92576,-94.20242,1000.799
7.416316509,-0.965736,8.170207,7.485555,-0.05124778,0.04059827,1.011033,10.97864,-15.92576,-94.20242,1000.799
7.436133385,-2.067938,2.482013,5.589519,-0.03239462,0.04012631,0.976657,10.24907,-16.66711,-94.18668,1000.799
7.455950260,-4.21111,-0.6646479,4.182782,0.008356986,0.03733298,0.9421493,10.24907,-16.66711,-94.18668,1000.796
7.475766659,-3.108907,-1.693364,0.7576842,0.01622304,0.006634902,0.9163667,10.24907,-16.66711,-94.18668,1000.796
7.495583058,-1.700538,-2.964131,1.491634,-0.002611716,-0.004124037,0.9376523,10.98861,-16.67478,-95.01282,1000.802
7.515399456,-3.231374,-0.3015717,2.286746,0.02404844,-0.002092985,0.914831,10.98861,-16.67478,-95.01282,1000.802
7.537693501,0.5038673,0.2430426,2.164421,0.05594529,0.01308459,0.8804642,11.72745,-16.68967,-96.21899,1000.805
7.557509899,2.034704,0.9691951,2.40907,0.04284992,0.01255315,0.8901867,11.72745,-16.68967,-96.21899,1000.805
7.577326775,0.3814003,1.937398,1.491634,0.05069076,0.01312487,0.9084885,11.72745,-16.68967,-96.21899,1000.807
7.597143173,-1.945472,5.749699,-1.321839,0.04958688,0.04480274,0.9221723,12.08566,-15.96072,-96.67669,1000.807
7.616960049,-0.5371017,7.080978,-2.850901,0.002096545,0.04272205,0.9692413,12.08566,-15.96072,-96.67669,1000.808
7.636776447,0.1976999,5.326109,-2.789738,-0.01632253,0.05782536,1.012378,12.09869,-16.67847,-95.84035,1000.808
7.656592846,0.6875677,0.364068,-2.912063,-0.003092375,0.04427584,1.018994,12.09869,-16.67847,-95.84035,1000.81
7.676409722,0.1976999,-1.572338,-5.786699,0.04027519,0.01473885,0.9944705,12.09869,-16.67847,-95.84035,1000.81
7.696226597,1.912237,-1.753877,-6.214836,0.04617393,0.01090295,1.006485,12.45549,-15.96395,-97.0581,1000.813
7.716042996,2.891973,-1.632851,-8.477847,0.04135608,0.01628786,1.028743,12.45549,-15.96395,-97.0581,1000.813
7.735859394,4.055408,-4.718999,-10.1904,0.02203944,0.009440544,1.057774,12.77577,-16.69402,-97.0463,1000.813
7.755675793,3.136906,-7.381558,-9.762259,0.04293263,0.0202904,1.069782,12.77577,-16.69402,-97.0463,1000.813
7.775493145,6.19858,-7.381558,-9.028309,0.045031,0.06161892,1.040057,12.77577,-16.69402,-97.0463,1000.814
7.795309544,7.423249,-0.3620844,-8.416684,0.08685814,0.06721498,1.04951,12.75699,-15.60957,-97.88911,1000.814
7.817603111,7.300782,6.112775,-8.600172,-0.04178985,0.0505791,1.091157,12.75699,-15.60957,-97.88911,1000.815
7.837419987,2.034704,-2.359004,-5.052749,-0.0852001,0.03643214,1.17386,13.50381,-15.9683,-97.8854,1000.815
7.857236386,-6.048114,-15.06667,-7.621572,0.002807885,-0.007612261,1.094958,13.50381,-15.9683,-97.8854,1000.817
7.877052784,-2.067938,-12.76719,-12.51457,0.03611473,-0.01543914,1.008336,13.50381,-15.9683,-97.8854,1000.817
7.896869183,3.136906,-4.174385,-14.04363,-0.003262946,0.0005004974,1.039525,13.1254,-15.62724,-99.03055,1000.818
7.916686535,6.994615,-4.597974,-12.14759,-0.02676927,0.02324053,1.029634,13.1254,-15.62724,-99.03055,1000.818
7.936502934,10.54616,-4.355923,-12.69806,-0.03406547,0.01195781,1.010792,13.50004,-16.00679,-99.91216,1000.82
7.956319332,8.954085,2.118936,-12.75922,-0.07329043,0.007962841,1.053944,13.50004,-16.00679,-99.91216,1000.82
7.976135731,2.647039,6.415338,-11.23016,-0.1183739,-0.007322533,1.071972,13.50004,-16.00679,-99.91216,1000.821
7.995953083,-1.02697,3.450216,-7.009948,-0.1272355,-0.005489275,1.043551,13.86412,-15.64333,-100.3,1000.821
8.015769482,-1.149436,-2.903618,-4.196475,-0.06126733,-0.001359387,0.9988052,13.86412,-15.64333,-100.3,1000.818
8.035585880,-0.7820356,-2.72208,-3.217876,0.01773978,-0.004560326,0.9148529,14.24545,-16.37996,-100.6685,1000.818
8.055402279,0.1976999,0.9691951,-3.768338,0.06484159,-0.004367747,0.8933582,14.24545,-16.37996,-100.6685,1000.819
8.077696323,2.034704,3.450216,-4.502287,0.05691975,0.02335722,0.8978881,14.24545,-16.37996,-100.6685,1000.819
8.097512722,2.095937,2.4215,-7.31576,0.05501595,0.02239909,0.9085125,14.22737,-15.28829,-101.1313,1000.818
8.117329598,4.484043,1.695347,-5.052749,0.03687736,0.04957959,0.9111648,14.22737,-15.28829,-101.1313,1000.818
8.137146473,5.463778,5.205084,-2.973226,0.01609424,0.05347457,0.955705,14.60941,-16.0177,-101.1197,1000.813
8.156962872,5.035144,6.415338,-1.444164,-0.0125619,0.06166355,0.9805204,14.60941,-16.0177,-101.1197,1000.813
8.176779270,3.38184,3.692266,-0.7102148,-0.01193981,0.04123047,0.9866869,14.60941,-16.0177,-101.1197,1000.813
8.196595669,0.7488011,0.5456061,0.8800091,-0.003995055,0.01058864,0.9840726,14.97278,-15.66145,-101.8876,1000.813
8.216413021,-0.7208021,-2.05644,1.613959,0.02131084,-0.0005125562,0.9703621,14.97278,-15.66145,-101.8876,1000.814
8.236229420,-0.3534013,-2.661567,2.164421,0.04719581,-0.02230014,0.9662471,15.66936,-16.75424,-101.8707,1000.814
8.256045818,-0.3534013,0.1220172,2.470233,0.04916803,-0.01444889,0.9870318,15.66936,-16.75424,-101.8707,1000.813
8.275862217,-0.6595686,1.211246,2.959532,0.06479225,-0.01921299,0.9970581,15.66936,-16.75424,-101.8707,1000.813
8.295679569,0.4426338,-0.05952091,3.14302,0.05106981,-0.002248135,0.9943241,16.39669,-16.03573,-103.0899,1000.812
8.315495968,0.4426338,-1.874902,3.081857,0.03843575,0.005515886,1.010362,16.39669,-16.03573,-103.0899,1000.812
8.335312367,0.6875677,-4.900537,4.672081,0.06706535,0.01295184,1.003486,16.04315,-17.07147,-102.6901,1000.813
8.357605934,5.647479,-7.078995,6.078818,0.05563001,0.04693649,0.9863463,16.04315,-17.07147,-102.6901,1000.813
8.377422810,6.014879,-10.28617,8.036016,0.02985584,0.05951469,1.00779,16.04315,-17.07147,-102.6901,1000.813
8.397239208,4.055408,-9.802066,8.280666,0.01641304,0.02974768,1.010124,16.40595,-16.79198,-104.2803,1000.813
8.417056084,2.891973,-9.499503,10.48252,0.006859557,0.02053249,1.045847,16.40595,-16.79198,-104.2803,1000.814
8.436872959,3.19814,-10.89129,11.1553,0.04974018,0.02228037,1.072651,15.37814,-18.20893,-104.2515,1000.814
8.456689358,6.137346,-9.317965,13.17366,0.0412786,0.05925322,1.076749,15.37814,-18.20893,-104.2515,1000.815
8.476505756,4.851443,-5.203101,17.57736,0.03644777,0.07342855,1.10967,15.37814,-18.20893,-104.2515,1000.815
8.496322632,-2.496573,-7.805147,17.21038,0.08256219,0.07507217,1.086258,16.43867,-18.93945,-104.6858,1000.815
8.516139507,-5.864414,-9.136427,12.74553,0.09521046,0.03211952,1.016462,16.43867,-18.93945,-104.6858,1000.815
8.535955906,-9.967056,-3.266694,8.280666,0.01816832,-0.0008319565,1.046641,15.02978,-19.68811,-104.6675,1000.81
8.555772305,-14.0697,-4.658486,6.568118,-0.05209197,-0.03278958,1.070512,15.02978,-19.68811,-104.6675,1000.81
8.575589180,-12.84503,-10.34668,5.283706,-0.01377678,-0.02533258,1.051517,15.02978,-19.68811,-104.6675,1000.811
8.595406056,-9.048554,-7.563096,4.977894,0.03546796,0.0005764663,0.9876667,15.0308,-20.03218,-106.6889,1000.811
8.615222454,-2.61904,1.271759,4.427432,0.01236232,0.03303524,0.9686527,15.0308,-20.03218,-106.6889,1000.814
8.637516022,1.299902,11.13533,2.837208,-0.03669215,0.05238223,1.020185,14.28575,-19.72615,-106.2482,1000.814
8.657332421,-3.231374,12.76917,6.935092,-0.06827989,0.06299073,1.045029,14.28575,-19.72615,-106.2482,1000.814
8.677149773,-6.782916,5.144571,6.017655,-0.04513,0.06981716,0.9990824,14.28575,-19.72615,-106.2482,1000.814
8.696966171,-6.660449,-0.05952091,3.938132,0.01218162,0.04561677,0.9363788,14.66459,-20.41729,-107.4411,1000.815
8.716782570,-5.252079,2.058424,2.225583,0.04918381,0.02139387,0.9080566,14.66459,-20.41729,-107.4411,1000.815
8.736599446,-1.639304,3.934317,1.675121,0.07453513,0.01423611,0.9141558,14.66459,-20.41729,-107.4411,1000.815
8.756416321,1.78977,4.781495,0.8188466,0.07456889,0.006438286,0.9112195,15.40567,-20.40933,-107.4439,1000.815
8.776232720,2.830739,7.80713,-0.5878899,0.057105,0.022023,0.9500094,15.40567,-20.40933,-107.4439,1000.814
8.796049118,2.402105,7.262516,-1.688814,0.01787085,0.0243768,1.000918,16.09496,-21.15105,-108.2568,1000.814
8.815865994,0.9325016,5.144571,-1.872301,-0.01472391,0.03935556,1.022893,16.09496,-21.15105,-108.2568,1000.816
8.835682869,-0.4758682,4.115856,-1.444164,-0.002117546,0.04330467,1.018018,16.09496,-21.15105,-108.2568,1000.816
8.855499268,0.1976999,-0.3015717,0.207222,0.03812928,0.04880647,0.9917613,15.72513,-21.14782,-107.8754,1000.815
8.875315666,2.340871,-2.72208,0.2683845,0.06275352,0.05907353,0.955961,15.72513,-21.14782,-107.8754,1000.815
8.897609711,1.912237,0.0009917939,0.6353592,0.07982835,0.04257807,0.9441985,17.22312,-22.2464,-108.6216,1000.815
8.917426110,1.544836,0.6061188,1.980933,0.07645515,0.03964945,0.9485461,17.22312,-22.2464,-108.6216,1000.815
8.937243462,1.483603,-1.511826,1.430471,0.08962427,0.03730036,0.9557021,17.22312,-22.2464,-108.6216,1000.818
8.957059860,1.299902,-1.814389,0.6353592,0.08578113,0.03438094,0.9648789,15.74097,-22.26234,-108.616,1000.818
8.976876259,1.054968,-0.7856733,0.6965217,0.0853184,0.04075062,0.9822906,15.74097,-22.26234,-108.616,1000.82
8.996692657,0.9325016,-0.5436226,-1.260677,0.08101137,0.03882246,0.9996808,15.76148,-23.68364,-109.4145,1000.82
9.016510010,2.585805,-1.269775,-0.6490523,0.08826449,0.05545197,1.014689,15.76148,-23.68364,-109.4145,1000.819
9.036326408,3.994175,-0.6646479,0.02373465,0.0605444,0.06459757,1.030334,15.76148,-23.68364,-109.4145,1000.819
9.056142807,3.626774,-3.448232,1.185821,0.02271444,0.05763118,1.049812,15.77298,-24.41703,-109.4016,1000.815
9.075959206,0.8100346,-7.926172,1.124659,0.02069321,0.06147784,1.033915,15.77298,-24.41703,-109.4016,1000.815
9.095776558,-1.39437,-11.19386,2.592558,0.04881379,0.05031793,0.9897798,15.48625,-25.82601,-109.3756,1000.816
9.115592957,-1.333137,-13.55385,1.736283,0.08435332,0.03586229,0.9764786,15.48625,-25.82601,-109.3756,1000.816
9.135409355,-1.271903,-13.3118,-3.401363,0.08747796,0.005715017,0.9874083,15.48625,-25.82601,-109.3756,1000.817
9.155225754,-1.149436,-12.04104,-7.743897,0.08454949,-0.04138312,1.049448,14.74013,-25.46007,-108.9993,1000.817
9.177519798,-1.578071,-4.658486,-13.67666,0.1051283,-0.04507906,1.087931,14.74013,-25.46007,-108.9993,1000.818
9.197336674,2.585805,4.599957,-17.59105,0.06041359,-0.02818037,1.124463,13.6501,-26.95323,-109.7292,1000.818
9.217153549,6.994615,7.686105,-17.89687,-0.0584511,0.02288278,1.151441,13.6501,-26.95323,-109.7292,1000.82
9.236969948,5.035144,3.208165,-11.65829,-0.07872225,0.0640967,1.12232,13.6501,-26.95323,-109.7292,1000.82
9.256786346,4.116642,-5.445152,-7.743897,-0.03751876,0.1005349,0.9996811,14.02135,-26.94203,-109.3506,1000.821
9.276603222,1.60607,-7.563096,-7.376923,0.03227364,0.08801579,0.9080086,14.02135,-26.94203,-109.3506,1000.821
9.296420097,0.4426338,3.08714,-6.031348,0.01794822,0.04950839,0.9223697,14.03707,-28.05775,-110.1545,1000.821
9.316236496,2.524572,9.925075,-6.031348,-0.01068684,0.002326073,1.004822,14.03707,-28.05775,-110.1545,1000.821
9.336053372,3.626774,8.170207,-6.58181,-0.05948617,-0.01920985,1.063865,14.03707,-28.05775,-110.1545,1000.818
9.355869770,1.238669,3.08714,-6.704135,-0.03613416,-0.01908318,1.066151,13.29599,-28.06572,-110.1517,1000.818
9.375686646,1.054968,2.542525,-7.132273,-0.009107833,-0.01175789,1.016808,13.29599,-28.06572,-110.1517,1000.82
9.395503044,1.238669,4.176368,-5.052749,0.02760652,0.0107452,0.9810044,13.67778,-28.7268,-109.7612,1000.82
9.415319920,3.01444,1.271759,-2.239276,0.06806716,0.02876543,0.8954414,13.67778,-28.7268,-109.7612,1000.82
9.437613964,5.953646,-0.3015717,1.736283,0.1256745,0.04745205,0.847437,13.67778,-28.7268,-109.7612,1000.82
9.457430363,4.79021,4.236881,0.3295469,0.1382359,0.07532376,0.8687492,14.79163,-28.69199,-108.562,1000.82
9.477246761,2.340871,8.049181,-2.545089,0.1013939,0.07326212,0.900797,14.79163,-28.69199,-108.562,1000.82
9.497064114,3.259373,9.13841,-2.789738,0.06517433,0.06543371,0.9632205,15.17226,-29.43583,-109.3105,1000.822
9.516880512,5.157611,7.080978,-2.239276,0.02654305,0.04049647,1.003366,15.17226,-29.43583,-109.3105,1000.822
9.536696911,4.728976,3.752779,-1.07719,0.01358192,0.02686142,1.03088,15.17226,-29.43583,-109.3105,1000.823
9.556513310,4.055408,-2.298491,0.08489711,0.03986594,0.01625804,1.01958,15.17942,-29.7881,-108.544,1000.823
9.576330662,2.034704,-4.234898,-0.2820776,0.0748634,0.001760042,0.9898705,15.17942,-29.7881,-108.544,1000.818
9.596147061,-0.6595686,-1.330288,-0.4044026,0.1146664,0.001423256,0.9664823,15.87682,-30.87246,-108.0837,1000.818
9.615963459,0.8712681,-0.05952091,0.207222,0.1244143,0.001488826,0.9727041,15.87682,-30.87246,-108.0837,1000.819
9.635780811,2.830739,1.029708,0.8800091,0.1254553,0.001053807,0.9920033,15.87682,-30.87246,-108.0837,1000.819
9.655597210,4.361576,2.360987,2.40907,0.09621253,0.02627912,1.015462,15.86603,-30.13185,-107.7166,1000.818
9.675413609,4.361576,2.905602,4.366269,0.08590446,0.05793494,1.039814,15.86603,-30.13185,-107.7166,1000.818
9.695230007,2.095937,0.7271442,6.262305,0.05186706,0.0699846,1.061783,15.86603,-30.13185,-107.7166,1000.814
9.717524052,-2.190405,-5.203101,6.38463,0.06223933,0.05450743,1.082885,15.19974,-30.85691,-106.8778,1000.814
9.737340927,-5.497013,-4.658486,4.610919,0.1026985,0.0420727,1.089357,15.19974,-30.85691,-106.8778,1000.815
9.757157326,-5.129612,5.507648,2.959532,0.06189867,0.03847625,1.099215,15.88539,-31.13955,-106.0515,1000.815
9.776974201,-6.109347,11.61943,4.366269,-0.06683958,0.05208593,1.164186,15.88539,-31.13955,-106.0515,1000.817
9.796791077,-8.61992,3.208165,7.485555,-0.09840309,0.0392459,1.157536,15.20958,-31.5364,-107.2459,1000.817
9.816607475,-6.048114,-12.64616,8.280666,-0.05525181,0.01835403,1.083825,15.20958,-31.5364,-107.2459,1000.816
9.836423874,-8.864854,-15.30872,7.240905,-0.03098786,0.01550911,1.063405,15.20958,-31.5364,-107.2459,1000.816
9.856241226,-11.19173,-13.49334,7.485555,-0.003013971,0.02526586,1.01069,15.20116,-30.84247,-106.1177,1000.817
9.876057625,-6.721682,-13.49334,6.87393,0.03312701,0.03890454,0.9347817,15.20116,-30.84247,-106.1177,1000.817
9.895874024,-1.945472,-9.075913,5.711843,0.04265872,0.05348176,0.9014996,15.20116,-30.84247,-106.1177,1000.814
9.915690899,-4.945911,2.118936,3.326507,0.02712809,0.06711244,0.9335114,13.3413,-30.51013,-106.8773,1000.814
9.935507775,-7.089083,10.89328,3.14302,-0.0375234,0.08342101,0.9701499,13.3413,-30.51013,-106.8773,1000.813
9.955324173,-4.578511,10.89328,3.815807,-0.08020393,0.086216,1.009495,13.71184,-30.50615,-106.8787,1000.813
9.977618218,-2.925207,5.447135,4.366269,-0.06362738,0.07362044,1.000651,13.71184,-30.50615,-106.8787,1000.813
9.997434616,-3.537542,3.692266,3.693482,-0.04613223,0.06539115,0.9831367,13.71184,-30.50615,-106.8787,1000.813
10.017251492,-3.231374,2.058424,3.571157,-0.007137913,0.02898996,0.9484661,13.68884,-29.03936,-106.9046,1000.812
10.037068367,-3.292608,0.9691951,3.938132,0.02590226,0.01838432,0.9216835,13.68884,-29.03936,-106.9046,1000.812
10.056884766,-3.353841,2.179449,4.488594,0.0661426,0.02828132,0.9007589,14.05504,-28.65425,-106.1525,1000.813
10.076701641,-1.21067,2.179449,3.509995,0.09436598,0.02110586,0.8933274,14.05504,-28.65425,-106.1525,1000.813
10.096518517,-0.2921678,5.326109,2.286746,0.08422855,0.0255068,0.9228489,14.05504,-28.65425,-106.1525,1000.812
10.116334915,-2.251639,8.835846,2.65372,0.05900785,0.03226903,0.9543957,14.03299,-27.24858,-106.1773,1000.812
10.136151791,-0.2921678,8.049181,3.509995,0.0468519,0.03856308,0.9655963,14.03299,-27.24858,-106.1773,1000.813
10.155968189,-0.2921678,6.778414,3.448832,0.03521784,0.04732942,0.9912869,14.04674,-27.95912,-104.9609,1000.813
10.175785065,-1.516837,5.689186,2.592558,0.02939119,0.04828361,0.9956678,14.04674,-27.95912,-104.9609,1000.813
10.195601463,-1.271903,4.236881,2.042096,0.03031752,0.05656637,0.9957052,14.04674,-27.95912,-104.9609,1000.813
10.215418339,0.2589334,1.513809,3.204182,0.03078573,0.05068946,0.9807094,14.40648,-27.21453,-104.5953,1000.81
10.235235214,0.7488011,-3.024643,3.081857,0.05077913,0.03763163,0.9747409,14.40648,-27.21453,-104.5953,1000.81
10.257528782,-0.04723396,-6.897457,1.552796,0.08967716,0.02902733,0.9575899,15.51317,-26.82747,-104.1626,1000.811
10.277345181,-1.088203,-5.747715,-2.300439,0.1038374,0.01838563,0.9564924,15.51317,-26.82747,-104.1626,1000.811
10.297162533,-0.2921678,-0.7856733,-5.358562,0.08747641,0.01158038,0.9966093,15.51317,-26.82747,-104.1626,1000.811
10.316978932,1.728537,0.7271442,-6.459486,0.02982729,0.01095213,1.062083,14.75133,-25.3458,-102.9823,1000.811
10.336795330,2.891973,-2.05644,-5.113912,-0.002676792,0.02355134,1.106732,14.75133,-25.3458,-102.9823,1000.812
10.356612682,4.177875,-7.502584,-3.58485,0.02924588,0.0470582,1.093646,14.75204,-25.33858,-102.6023,1000.812
10.376429081,4.177875,-4.96105,-4.318799,0.1082108,0.07462608,1.047984,14.75204,-25.33858,-102.6023,1000.811
10.396245480,5.463778,4.963033,-6.214836,0.0603256,0.04767573,1.080929,14.75204,-25.33858,-102.6023,1000.811
10.416062832,2.647039,8.170207,-6.031348,0.005252223,0.03543014,1.169498,15.10053,-23.92894,-102.6285,1000.812
10.435879231,0.6263342,1.695347,-5.113912,-0.03586491,0.00457511,1.184045,15.10053,-23.92894,-102.6285,1000.812
10.455695629,3.320607,-6.957969,-5.542049,-0.05840609,0.0004268384,1.127674,14.74374,-24.64346,-101.4108,1000.808
10.475512505,2.585805,-9.983604,-2.361601,-0.05367681,-0.006487974,1.076931,14.74374,-24.64346,-101.4108,1000.808
10.495329380,3.504307,-13.85642,0.02373465,-0.009855905,0.02618455,1.002527,14.74374,-24.64346,-101.4108,1000.807
10.517622948,8.341751,-13.91693,-1.260677,0.07686064,0.04203854,0.9287662,15.09855,-23.52375,-100.6082,1000.807
10.537439346,5.953646,-4.537461,-3.340201,0.05551853,0.04832344,0.9559454,15.09855,-23.52375,-100.6082,1000.81
10.557256699,3.688008,1.816373,-6.398323,0.003739471,0.02721715,0.9976307,15.4583,-22.77916,-100.2426,1000.81
10.577073097,2.402105,1.574322,-8.172034,-0.05734534,0.0118827,1.029743,15.4583,-22.77916,-100.2426,1000.806
10.596889496,-0.5371017,-0.846186,-9.028309,-0.05731098,0.007507414,1.032616,15.4583,-22.77916,-100.2426,1000.806
10.616706848,-1.761771,-1.632851,-8.905984,-0.02876245,0.002663627,0.9817541,15.06571,-21.37748,-100.266,1000.807
10.636523247,-0.4758682,-0.6041352,-7.56041,-0.008593341,0.01187443,0.9213563,15.06571,-21.37748,-100.266,1000.807
10.656339646,-0.1697009,1.453297,-6.459486,0.02244119,0.02321485,0.9130391,15.7596,-22.07229,-98.60887,1000.81
10.676156998,-0.1084674,0.2430426,-5.113912,0.06997859,0.02924015,0.8862625,15.7596,-22.07229,-98.60887,1000.81
10.695973396,0.993735,3.026627,-4.257637,0.1006272,0.02793911,0.8865707,15.7596,-22.07229,-98.60887,1000.81
10.715789795,1.422369,7.867643,-3.034388,0.07242265,0.05468296,0.9317515,15.73589,-20.61273,-99.01481,1000.81
10.735606671,1.667303,8.775333,-3.340201,0.02101545,0.05256339,0.971119,15.73589,-20.61273,-99.01481,1000.813
10.755423546,4.055408,5.810211,-0.03742781,0.01867943,0.0516414,0.9976744,16.46617,-19.86415,-98.65053,1000.813
10.775239945,3.38184,3.026627,2.776045,0.03478446,0.04345377,1.00044,16.46617,-19.86415,-98.65053,1000.813
10.797533512,-0.1697009,1.816373,2.286746,0.0513566,0.0284107,0.9862745,16.46617,-19.86415,-98.65053,1000.813
10.817350865,-2.680273,0.4245807,2.837208,0.06602552,0.01583203,0.988543,16.82254,-18.79955,-97.53022,1000.812
10.837167263,-1.578071,0.1825299,3.14302,0.07524777,0.0173336,0.9856043,16.82254,-18.79955,-97.53022,1000.812
10.856983662,1.238669,1.75586,3.999295,0.06409828,0.01876812,0.9987049,16.47065,-19.81845,-96.24375,1000.815
10.876801014,3.749241,0.0009917939,3.938132,0.06716572,0.0003129004,1.012108,16.47065,-19.81845,-96.24375,1000.815
10.896617413,2.891973,-1.693364,2.714883,0.06573897,-0.0001604827,1.020802,16.47065,-19.81845,-96.24375,1000.811
10.916434288,-0.1697009,-0.1200336,2.65372,0.06616925,0.01544588,1.030051,16.81327,-18.04331,-96.33979,1000.811
10.936251164,0.5038673,-0.6646479,3.693482,0.06705249,0.02907543,1.026254,16.81327,-18.04331,-96.33979,1000.812
10.956067562,0.4426338,-2.480029,4.855569,0.06614913,0.02227572,1.035395,16.82631,-18.76106,-95.50346,1000.812
10.975884438,-2.312872,-5.142588,2.042096,0.05508614,-0.002627041,1.030501,16.82631,-18.76106,-95.50346,1000.813
10.995701313,-4.517277,-7.381558,0.5741968,0.02750319,-0.03151545,1.023746,16.82631,-18.76106,-95.50346,1000.813
11.015517712,-5.497013,-7.381558,0.6965217,0.04993487,-0.04015611,1.026958,15.70249,-18.04684,-95.89227,1000.815
11.035334587,-4.149877,-4.416436,3.265345,0.0682948,-0.02792486,1.011474,15.70249,-18.04684,-95.89227,1000.815
11.057628632,-1.02697,0.1220172,6.690443,0.06748952,0.02170963,0.9996669,16.06869,-17.66172,-95.14011,1000.814
11.077445030,-1.149436,0.9086823,8.647641,0.07903558,0.04807919,1.006014,16.06869,-17.66172,-95.14011,1000.814
11.097261429,-3.108907,1.09022,7.11858,0.02893624,0.06296968,1.02905,16.06869,-17.66172,-95.14011,1000.817
11.117078781,-8.191285,2.239962,4.977894,-0.01809617,0.06184896,1.069365,15.68594,-16.93954,-95.53169,1000.817
11.136895180,-11.00803,1.271759,4.182782,-0.04780164,0.06020067,1.055521,15.68594,-16.93954,-95.53169,1000.815
11.156711578,-6.354281,-5.929253,4.916731,-0.0147244,0.04326618,1.029188,15.68594,-16.93954,-95.53169,1000.815
11.176528931,-2.067938,-8.652325,4.427432,0.02699155,0.03313887,0.9801574,15.67693,-16.25162,-94.7202,1000.815
11.196345329,-3.231374,-3.206182,2.347908,0.04635862,0.04833304,0.9796468,15.67693,-16.25162,-94.7202,1000.815
11.216162205,-1.149436,2.784576,2.89837,0.01571157,0.04230208,0.9677166,15.34585,-14.78094,-94.36495,1000.812
11.235978603,-1.761771,6.2338,3.876969,-0.0225997,0.04120322,0.9983294,15.34585,-14.78094,-94.36495,1000.812
11.255795479,-4.333577,4.66047,4.549757,-0.03426719,0.04359033,1.003715,15.34585,-14.78094,-94.36495,1000.813
11.275612354,-4.39481,2.603038,2.531395,-0.009986868,0.0392905,0.9857009,15.3596,-15.49148,-93.14861,1000.813
11.295428753,-3.047674,3.08714,1.369309,-0.01137662,0.02808837,0.9875817,15.3596,-15.49148,-93.14861,1000.812
11.315245152,-3.843709,4.720983,0.8800091,0.00953725,0.03259767,0.9952132,15.35467,-15.11637,-92.71173,1000.812
11.337539196,-1.088203,1.211246,0.5130343,0.036725,0.01755021,0.9563729,15.35467,-15.11637,-92.71173,1000.812
11.357356548,-0.1697009,1.695347,-0.09859026,0.06823804,0.0176435,0.9272401,15.35467,-15.11637,-92.71173,1000.812
11.377172947,-1.639304,5.749699,-0.3432401,0.08912122,0.01675327,0.916985,15.65841,-14.73913,-92.33935,1000.811
11.396989822,0.07523298,7.686105,-1.07719,0.08974415,0.01440905,0.9531704,15.65841,-14.73913,-92.33935,1000.811
11.416806221,0.6263342,6.89944,-0.8325397,0.05823395,0.02116199,0.9944052,14.97404,-14.37253,-91.96327,1000.808
11.436623097,-1.639304,7.323029,-1.505327,0.04506174,0.0352418,1.005651,14.97404,-14.37253,-91.96327,1000.808
11.456439972,-2.129172,2.603038,-1.994627,0.03089717,0.04783588,1.00869,14.97404,-14.37253,-91.96327,1000.807
11.476256371,0.5038673,-3.871821,0.7576842,0.04986772,0.03962585,0.9959939,15.33053,-13.30672,-90.77962,1000.807
11.496072769,-0.2921678,-4.174385,-0.3432401,0.07812152,0.02025032,0.977398,15.33053,-13.30672,-90.77962,1000.809
11.515890122,-2.80274,-1.027724,-1.138352,0.06881525,0.02846616,0.9716989,14.96082,-13.30228,-90.33488,1000.809
11.535706520,-1.516837,-0.4225971,-0.4044026,0.06298106,0.03577029,0.9843181,14.96082,-13.30228,-90.33488,1000.812
11.555523873,0.9325016,0.6061188,-1.872301,0.04598098,0.04449723,1.005211,14.96082,-13.30228,-90.33488,1000.812
11.575340271,2.095937,2.966114,-1.383002,0.01697876,0.03909551,1.048783,14.96152,-13.29506,-89.95486,1000.812
11.597633839,2.279638,1.392784,-1.138352,-0.01592033,0.01949191,1.067204,14.96152,-13.29506,-89.95486,1000.812
11.617450714,1.912237,-3.024643,-1.688814,-0.02227538,0.02090238,1.060006,14.21048,-12.554,-89.14168,1000.807
11.637267590,1.361136,-8.410274,-2.422764,0.02597353,-0.007129909,1.043187,14.21048,-12.554,-89.14168,1000.807
11.657083988,0.6263342,-12.28309,-3.58485,0.09977145,-0.01221366,0.9973851,14.21048,-12.554,-89.14168,1000.808
11.676901341,1.116202,-7.986685,-8.722497,0.1241924,-0.0384122,0.9845673,14.2119,-12.53957,-88.38165,1000.808
11.696717739,0.3814003,2.058424,-13.61549,0.1055151,-0.04905865,1.05219,14.2119,-12.53957,-88.38165,1000.809
11.716534138,3.504307,8.654308,-16.79594,0.01752866,-0.0250426,1.104441,13.84794,-12.90183,-87.93043,1000.809
11.736351490,10.54616,6.778414,-16.24548,-0.0959821,0.02116259,1.124607,13.84794,-12.90183,-87.93043,1000.81
11.756167889,12.32193,2.058424,-8.600172,-0.1132032,0.04879756,1.111811,13.84794,-12.90183,-87.93043,1000.81
11.775984287,8.586685,-7.442071,-4.869262,-0.07419173,0.0682839,1.031573,13.08598,-11.42136,-86.81351,1000.812
11.795801640,4.055408,-12.22257,-3.951825,0.002889449,0.04602072,0.9219515,13.08598,-11.42136,-86.81351,1000.812
11.815618038,0.5651007,-6.957969,-5.480886,0.04634768,0.01263756,0.9176807,13.4638,-11.76844,-85.98505,1000.813
11.835434914,-0.9045025,0.364068,-5.725536,0.01446258,-0.01964214,0.927343,13.4638,-11.76844,-85.98505,1000.813
11.855251789,3.136906,1.271759,-5.113912,0.002999278,-0.03079752,0.9703068,13.4638,-11.76844,-85.98505,1000.808
11.877545357,4.055408,0.6666315,-6.459486,0.02197712,-0.02678053,0.9798771,13.0948,-11.75678,-85.16029,1000.808
11.897361756,3.749241,3.450216,-5.847861,0.04866299,-0.02228673,0.9686525,13.0948,-11.75678,-85.16029,1000.807
11.917179108,2.953206,5.265597,-5.052749,0.07713651,-0.0007850344,0.9391637,13.08329,-11.02339,-85.17325,1000.807
11.936995507,3.136906,5.689186,-3.890663,0.06766396,0.0327333,0.9263554,13.08329,-11.02339,-85.17325,1000.807
11.956812859,2.340871,8.291232,-4.624612,0.0860999,0.04844099,0.9388849,13.08329,-11.02339,-85.17325,1000.807
11.976629257,3.38184,8.956872,-4.379962,0.04626853,0.05413512,0.9627833,13.0757,-10.32105,-83.60172,1000.808
11.996445656,3.01444,9.13841,-3.034388,0.01379547,0.05795679,1.002078,13.0757,-10.32105,-83.60172,1000.808
12.016262531,2.279638,9.259436,-1.933464,0.01104397,0.04437226,1.02857,12.71174,-10.68331,-83.1505,1000.805
12.036079407,2.402105,7.80713,-1.07719,-0.02080561,0.01162907,1.047884,12.71174,-10.68331,-83.1505,1000.805
12.055896282,1.361136,4.357906,0.5130343,-0.006034005,-0.00576494,1.07233,12.71174,-10.68331,-83.1505,1000.805
12.075712681,0.3201669,0.7271442,1.369309,0.02593425,-0.002758133,1.038866,13.08298,-10.67211,-82.77187,1000.805
12.095529079,2.463338,-2.419516,2.470233,0.05400478,0.001201217,1.004945,13.08298,-10.67211,-82.77187,1000.806
12.115346432,2.830739,-4.174385,3.265345,0.09374667,0.004731704,0.9699926,13.08298,-10.67211,-82.77187,1000.806
12.137640476,0.993735,-2.359004,3.571157,0.1217666,0.02038779,0.9404762,13.07806,-10.29699,-82.33499,1000.804
12.157456875,2.402105,1.029708,4.305107,0.09549773,0.02415782,0.9449835,13.07806,-10.29699,-82.33499,1000.804
12.177273750,3.259373,4.478932,1.491634,0.06442538,0.04163383,0.9896497,13.06868,-9.541952,-81.2079,1000.805
12.197090149,2.647039,2.239962,4.549757,0.03390369,0.04791426,1.034738,13.06868,-9.541952,-81.2079,1000.805
12.216907501,1.912237,0.0615045,4.427432,0.02828604,0.02799631,1.066041,12.39019,-9.540834,-80.76201,1000.806
12.236723900,-2.067938,-3.690283,1.797446,0.0157992,0.01386631,1.089205,12.39019,-9.540834,-80.76201,1000.806
12.256540299,-5.374546,-7.986685,2.286746,0.004622567,-0.008673302,1.05488,12.39019,-9.540834,-80.76201,1000.806
12.276357651,-6.048114,-9.862579,2.286746,0.04927234,-0.01926306,1.009692,12.03339,-10.25535,-79.54427,1000.806
12.296174049,-3.721242,-10.64924,3.081857,0.07733352,-0.01922137,0.9665806,12.03339,-10.25535,-79.54427,1000.805
12.315991402,-0.04723396,-9.075913,4.488594,0.09218444,0.007583595,0.9444338,12.03339,-10.25535,-79.54427,1000.805
12.335807800,3.075673,-5.082076,7.791367,0.08778983,0.03394744,0.9827248,12.38585,-9.159705,-80.00845,1000.805
12.355624199,1.483603,2.966114,10.29903,0.06400994,0.06661445,1.051563,12.38585,-9.159705,-80.00845,1000.805
12.375441551,-2.067938,5.689186,12.37855,0.0008081577,0.0834128,1.086266,12.01038,-8.788573,-79.57019,1000.808
12.395257950,-3.476308,0.3035553,12.80669,-0.04104891,0.08610619,1.081682,12.01038,-8.788573,-79.57019,1000.808
12.417551518,-6.599215,-5.082076,10.48252,-0.04881302,0.06505668,1.052173,12.01038,-8.788573,-79.57019,1000.807
12.437368870,-10.94679,-5.62669,5.956493,-0.02475188,0.01890226,1.043598,11.63551,-8.411427,-78.81525,1000.807
12.457185269,-11.06926,-6.050279,4.427432,-0.009114786,-0.00198542,1.030856,11.63551,-8.411427,-78.81525,1000.808
12.477002144,-8.80362,-5.808228,6.262305,0.03462727,-0.01888914,0.9943287,12.01767,-9.139631,-78.74034,1000.808
12.496819019,-3.537542,-7.078995,5.406031,0.05245149,-0.01842862,0.9450004,12.01767,-9.139631,-78.74034,1000.804
12.516635895,-1.761771,-1.874902,4.182782,0.05034789,-0.004863387,0.9209477,12.01767,-9.139631,-78.74034,1000.804
12.536452294,-3.782475,8.291232,5.100219,0.01589873,-0.01231783,0.9326822,10.88613,-7.724265,-77.62096,1000.805
12.556268692,-3.353841,14.70558,3.265345,-0.00606757,0.01977623,0.961928,10.88613,-7.724265,-77.62096,1000.805
12.576086044,2.891973,9.380461,3.938132,-0.06292138,0.03760343,1.005772,11.263,-8.010224,-76.79358,1000.807
12.595902443,2.157171,5.205084,4.366269,-0.04922638,0.04848467,1.046298,11.263,-8.010224,-76.79358,1000.807
12.615719795,-3.904943,2.542525,1.246984,0.007598491,0.03259229,0.9971545,11.263,-8.010224,-76.79358,1000.806
12.635536194,-3.170141,2.482013,-1.07719,0.07605432,0.01966428,0.9407228,11.26382,-8.001804,-76.35023,1000.806
12.655352593,-1.884238,7.020465,-1.933464,0.07412721,0.03140016,0.9654101,11.26382,-8.001804,-76.35023,1000.807
12.675169945,-0.4146348,10.0461,-0.5267274,0.05227517,0.0298437,0.972762,12.01557,-8.735649,-76.78339,1000.807
12.697463513,1.361136,5.205084,1.919771,0.03660967,0.05168883,0.9787521,12.01557,-8.735649,-76.78339,1000.807
12.717279911,0.8712681,1.816373,1.919771,0.05643341,0.05806462,0.955025,12.01557,-8.735649,-76.78339,1000.807
12.737097264,-1.149436,-0.4225971,3.815807,0.05157176,0.05804062,0.9555342,12.37289,-7.661424,-75.1564,1000.81
12.756913662,-2.557806,0.0615045,5.222544,0.04727818,0.0434114,0.9559652,12.37289,-7.661424,-75.1564,1000.81
12.776731014,-1.21067,-1.330288,6.078818,0.03726108,0.01807715,0.9718183,12.38989,-8.693176,-74.75802,1000.809
12.796547413,-0.5983351,-3.145669,5.406031,0.03345831,0.01029786,0.9848315,12.38989,-8.693176,-74.75802,1000.809
12.816364289,-1.333137,-3.811309,3.204182,0.0282112,-0.004811597,0.9900921,12.38989,-8.693176,-74.75802,1000.802
12.836181164,-0.3534013,-4.29541,0.08489711,0.03803387,-0.01104792,1.007865,10.90269,-8.335196,-74.37894,1000.802
12.855997563,1.78977,-5.929253,-3.890663,0.02410258,-0.03984126,1.011173,10.90269,-8.335196,-74.37894,1000.803
12.875814438,4.239109,-8.591812,-6.82646,0.03330757,-0.02319699,1.028101,11.6568,-9.044984,-73.54538,1000.803
12.895630837,7.668183,-7.563096,-7.254598,0.03855032,-0.00760178,1.022361,11.6568,-9.044984,-73.54538,1000.803
12.915448189,8.035583,-1.632851,-5.909023,0.07482661,0.02568848,1.018472,11.6568,-9.044984,-73.54538,1000.803
12.935264588,6.137346,3.631754,-8.233197,0.08348951,0.04229039,1.018992,11.28122,-8.675055,-73.17045,1000.806
12.957558632,4.361576,2.966114,-9.395284,-0.01042753,0.01864417,1.107715,11.28122,-8.675055,-73.17045,1000.806
12.977375508,-3.721242,-2.661567,-10.80202,0.01936698,0.01791174,1.143749,11.66901,-9.771158,-73.1524,1000.805
12.997191906,-5.61948,-3.569258,-14.41061,0.02560308,-0.006071864,1.078913,11.66901,-9.771158,-73.1524,1000.805
13.017009258,1.973471,-0.6041352,-12.26992,-0.02649012,0.01512921,1.098131,11.66901,-9.771158,-73.1524,1000.806
13.036825657,4.422809,-1.753877,-6.58181,-0.06336164,0.007179943,1.111807,11.67054,-9.755522,-72.32903,1000.806
13.056643009,5.157611,-7.502584,-2.483926,-0.03605883,0.01582439,1.003099,11.67054,-9.755522,-72.32903,1000.804
13.076459408,6.014879,-11.8595,-3.156713,0.03429313,0.0028713,0.9321769,11.30646,-10.11898,-71.94114,1000.804
13.096275806,4.055408,-4.537461,-3.217876,0.06539242,-0.003830263,0.9131477,11.30646,-10.11898,-71.94114,1000.803
13.116093159,2.585805,5.326109,-3.095551,0.01496872,-0.01082576,0.947658,11.30646,-10.11898,-71.94114,1000.803
13.135909557,3.38184,5.810211,-3.340201,-0.02756405,-0.03090218,0.9926768,10.92442,-9.389574,-71.95271,1000.802
13.155726433,3.626774,2.360987,-5.725536,0.02585255,-0.01992704,0.9866486,10.92442,-9.389574,-71.95271,1000.802
13.175542831,4.60651,7.262516,-9.028309,0.05437569,-0.005234089,0.9605033,12.05483,-10.46208,-71.11407,1000.804
13.195360184,6.137346,13.97943,-9.578771,0.02427717,0.01615875,1.011942,12.05483,-10.46208,-71.11407,1000.804
13.215176582,4.361576,11.55892,-7.132273,0.01358462,0.02490786,1.028456,12.05483,-10.46208,-71.11407,1000.801
13.237470627,4.055408,3.32919,-4.930424,0.04597096,0.03275714,0.9829476,11.30295,-9.729433,-70.74423,1000.801
13.257287502,4.361576,0.6666315,-2.912063,0.0866092,0.04992654,0.9480605,11.30295,-9.729433,-70.74423,1000.802
13.277103901,3.259373,2.784576,-4.746937,0.08770728,0.03193295,0.9552023,12.05624,-10.44764,-70.35403,1000.802
13.296921253,4.116642,1.634835,-4.991587,0.07705875,0.02458074,0.9581189,12.05624,-10.44764,-70.35403,1000.802
13.316737652,6.076113,0.5456061,-3.707175,0.0736332,0.02894779,0.9591254,12.05624,-10.44764,-70.35403,1000.802
13.336555004,6.627214,0.1825299,-1.627652,0.06966358,0.04598173,0.9640614,12.03477,-8.965223,-69.55658,1000.801
13.356371403,5.708712,-1.572338,-0.2209152,0.07004073,0.05372816,0.944792,12.03477,-8.965223,-69.55658,1000.801
13.376187801,3.01444,-4.05336,1.736283,0.07731161,0.05277098,0.9360591,12.03477,-8.965223,-69.55658,1000.8
13.396005154,0.6263342,-4.718999,3.326507,0.06998735,0.06591182,0.949199,12.42831,-10.42802,-69.53205,1000.8
13.415821552,-1.455604,-5.142588,4.977894,0.05937215,0.05760568,0.960316,12.42831,-10.42802,-69.53205,1000.801
13.435638428,-1.088203,-7.381558,4.610919,0.02205693,0.04968437,0.9865442,12.05931,-10.41637,-68.70729,1000.801
13.455454826,-3.415075,-9.257452,4.916731,0.008271757,0.03419502,1.054598,12.05931,-10.41637,-68.70729,1000.802
13.475272179,-6.476748,-13.19078,5.283706,0.06734725,0.005820231,1.074401,12.05931,-10.41637,-68.70729,1000.802
13.497566223,-5.680713,-4.597974,0.1460596,0.1034617,-0.00416972,1.094425,11.33523,-11.45609,-68.30613,1000.801
13.517382622,-5.680713,8.775333,-0.6490523,-0.03550187,0.0186668,1.171083,11.33523,-11.45609,-68.30613,1000.801
13.537199497,-6.782916,9.017385,1.919771,-0.04153657,0.06591514,1.190666,10.58266,-10.73066,-68.31631,1000.801
13.557015896,-2.863973,-1.269775,1.063496,-0.03885163,0.05256416,1.100322,10.58266,-10.73066,-68.31631,1000.801
13.576833248,-4.639744,-1.330288,2.592558,-0.08355846,0.04893585,1.105375,10.58266,-10.73066,-68.31631,1000.798
13.596649647,-9.048554,-1.3908,4.672081,-0.06929255,0.01588157,1.098369,11.33453,-11.4633,-68.68615,1000.798
13.616466999,-7.885118,-5.263614,6.568118,-0.04283555,0.02803375,1.032643,11.33453,-11.4633,-68.68615,1000.8
13.636283398,-3.660008,-9.862579,8.586479,0.0006510457,0.03148008,0.9547111,10.60215,-11.80789,-67.09349,1000.8
13.656100273,-5.252079,-9.075913,9.748566,0.05582435,0.03793063,0.885902,10.60215,-11.80789,-67.09349,1000.801
13.675917149,-7.334017,-5.687202,8.647641,0.08631992,0.03896461,0.8451954,10.60215,-11.80789,-67.09349,1000.801
13.695734024,-7.21155,-0.9066988,8.036016,0.08785422,0.0316929,0.8552859,10.59569,-11.44842,-67.47999,1000.802
13.715550423,-6.660449,6.838927,8.219504,0.0460058,0.06372479,0.9015338,10.59569,-11.44842,-67.47999,1000.802
13.735367775,-4.21111,12.28507,8.097179,0.02814761,0.05786239,0.9320102,10.96847,-11.42158,-66.27798,1000.802
13.757661343,-2.251639,16.15788,6.812768,-0.04415366,0.06004738,0.9840639,10.96847,-11.42158,-66.27798,1000.802
13.777478218,-3.537542,15.97635,6.87393,-0.08581295,0.05946001,1.032074,10.96847,-11.42158,-66.27798,1000.799
13.797295094,-6.537982,9.925075,3.38767,-0.05930895,0.0304367,1.054948,10.2274,-11.42955,-66.27521,1000.799
13.817111492,-5.741947,3.32919,4.243944,-0.0291765,0.01151246,1.01752,10.2274,-11.42955,-66.27521,1000.798
13.836928845,-3.966176,2.179449,4.855569,0.05577365,0.005973897,0.961036,10.58796,-10.67654,-65.46619,1000.798
13.856745243,-1.088203,1.937398,3.815807,0.09109662,0.01874033,0.9290513,10.58796,-10.67654,-65.46619,1000.8
13.876562596,0.9325016,1.211246,3.509995,0.1119247,0.02269942,0.9106159,10.58796,-10.67654,-65.46619,1000.8
13.896378994,2.524572,2.239962,3.571157,0.1095056,0.02514021,0.9183645,10.97,-11.40594,-65.45461,1000.799
13.916195870,2.769506,4.902521,3.265345,0.07749166,0.03383365,0.9576813,10.97,-11.40594,-65.45461,1000.799
13.936012268,2.524572,4.781495,4.243944,0.04894912,0.03672622,1.007086,11.33199,-10.6385,-63.88556,1000.8
13.955829621,1.483603,2.058424,3.509995,0.004247252,0.0360347,1.018428,11.33199,-10.6385,-63.88556,1000.8
13.975646019,0.5651007,-2.359004,4.060457,0.01649925,0.02052072,1.020212,11.33199,-10.6385,-63.88556,1000.796
13.995463371,-2.006705,-6.594893,1.736283,0.04570606,0.002602798,0.9982399,10.60241,-11.37986,-63.86982,1000.796
14.015279770,-1.578071,-6.171304,0.8800091,0.07637695,-0.003571,0.997075,10.60241,-11.37986,-63.86982,1000.796
14.037573338,4.79021,-6.352842,1.124659,0.09194462,0.009712747,1.020227,11.34502,-11.35625,-63.04922,1000.796
14.057390690,6.994615,-4.779512,0.6965217,0.1055713,0.02250068,1.043869,11.34502,-11.35625,-63.04922,1000.798
14.077207088,6.627214,-1.874902,0.6353592,0.1015433,0.0443816,1.039659,11.34502,-11.35625,-63.04922,1000.798
14.097024441,5.035144,-0.5436226,-1.138352,0.07765874,0.05839666,1.047102,10.22766,-11.00151,-63.05154,1000.795
14.116840839,3.688008,-5.203101,-0.5267274,0.04889775,0.07237718,1.05071,10.22766,-11.00151,-63.05154,1000.795
14.136657715,4.851443,-3.690283,-0.03742781,0.05475925,0.06313706,1.042908,10.97027,-10.97791,-62.23095,1000.79
14.156474590,6.014879,2.845089,1.124659,0.01187646,0.02311181,1.095066,10.97027,-10.97791,-62.23095,1000.79
14.176291466,2.953206,1.332271,0.08489711,0.002537336,-0.0138159,1.148022,10.97027,-10.97791,-62.23095,1000.791
14.196107864,1.299902,-4.174385,-4.685774,0.002007527,-0.03340437,1.103035,10.22836,-10.99429,-62.67152,1000.791
14.215925217,2.402105,-3.811309,-6.948785,-0.05535484,-0.03955032,1.100904,10.22836,-10.99429,-62.67152,1000.79
14.235741615,0.07523298,-5.505664,-9.456446,-0.05028173,-0.003054853,1.079826,9.926869,-11.34867,-61.84052,1000.79
14.255558968,4.177875,-11.73847,-10.61853,-0.02643128,0.007981995,0.9610135,9.926869,-11.34867,-61.84052,1000.789
14.275375366,9.566421,-9.620528,-11.71946,0.01624705,0.004696578,0.920218,9.926869,-11.34867,-61.84052,1000.789
14.295192242,8.892852,-1.088237,-13.55433,0.01977153,0.0008891079,0.9491399,9.921117,-10.98197,-61.847,1000.788
14.317486286,5.157611,6.717902,-12.51457,-0.03270819,0.00895945,0.9760159,9.921117,-10.98197,-61.847,1000.788
14.337302685,4.239109,6.294313,-11.47481,-0.05598242,0.01964355,1.01433,9.923358,-10.95912,-60.64361,1000.789
14.357120037,1.973471,4.297394,-10.6797,-0.03314778,0.0270786,1.019552,9.923358,-10.95912,-60.64361,1000.789
14.376936436,-0.1697009,3.268678,-9.272959,-0.03024623,0.02561535,1.012289,9.923358,-10.95912,-60.64361,1000.789
14.396753311,-1.21067,0.1825299,-7.988547,0.005121026,0.03841342,0.9933365,10.59214,-10.27954,-60.65803,1000.789
14.416569710,-0.5371017,-4.174385,-3.401363,0.07691682,0.03523449,0.9340404,10.59214,-10.27954,-60.65803,1000.788
14.436387062,0.2589334,-2.419516,-2.667413,0.1190493,0.0314151,0.8749035,10.59693,-10.58512,-60.65263,1000.788
14.456203461,0.9325016,2.724063,-1.688814,0.1330518,0.0407045,0.8603942,10.59693,-10.58512,-60.65263,1000.789
14.476020813,1.912237,6.959952,-0.5878899,0.1005258,0.04399942,0.883275,10.59693,-10.58512,-60.65263,1000.789
14.495837212,3.38184,6.354825,0.6353592,0.06566907,0.04393187,0.9302853,10.96338,-10.26834,-60.2794,1000.788
14.515654087,3.749241,4.720983,0.4518718,0.05168792,0.04199086,0.963174,10.96338,-10.26834,-60.2794,1000.788
14.535470963,2.647039,2.179449,0.6353592,0.04737543,0.04103654,0.9805691,10.96338,-10.26834,-60.2794,1000.787
14.555287838,0.8712681,0.9691951,0.4518718,0.05857027,0.03914557,0.9800153,10.95494,-9.503679,-58.64562,1000.787
14.577581883,-0.04723396,-0.7856733,1.736283,0.0422406,0.006452453,0.9866944,10.95494,-9.503679,-58.64562,1000.787
14.597398758,-1.761771,-0.6041352,1.430471,0.05983127,-0.0100194,0.9836174,10.58358,-9.516082,-59.08759,1000.787
14.617215157,0.0139995,-1.995928,1.430471,0.08668892,-0.03033532,0.981918,10.58358,-9.516082,-59.08759,1000.788
14.637032509,2.463338,-2.177466,1.675121,0.09351386,-0.03468826,0.9794449,10.95565,-9.496462,-58.26561,1000.788
14.656848908,1.973471,0.6666315,-0.5267274,0.07397212,-0.001608936,1.0082,10.95565,-9.496462,-58.26561,1000.789
14.676666260,1.973471,1.695347,0.5130343,0.0540433,0.01785039,1.043644,10.95565,-9.496462,-58.26561,1000.789
14.696482659,4.422809,-3.750796,3.204182,0.01895962,0.04010872,1.060845,10.21457,-9.504429,-58.26283,1000.786
14.716299534,0.6263342,-7.502584,3.693482,0.01205775,0.05320638,1.055157,10.21457,-9.504429,-58.26283,1000.786
14.736116409,-4.517277,-7.86566,3.571157,0.06456701,0.04662376,1.03939,10.21457,-9.504429,-58.26283,1000.786
14.755933285,-3.353841,-7.20002,3.38767,0.0914268,0.02386502,1.0343,10.59803,-10.2194,-57.49122,1000.786
14.775749684,-2.741507,2.058424,4.366269,0.04488516,0.02666095,1.082354,10.59803,-10.2194,-57.49122,1000.785
14.795567036,-7.39525,6.354825,4.610919,0.0006506119,0.03378031,1.100974,9.905793,-9.507748,-58.26167,1000.785
14.815383434,-7.272783,0.0615045,4.977894,-0.008766608,0.0409391,1.061001,9.905793,-9.507748,-58.26167,1000.784
14.835200787,-7.02785,-5.384639,3.14302,-0.03453793,0.02565363,1.037412,9.905793,-9.507748,-58.26167,1000.784
14.857494354,-11.92653,-6.292329,1.613959,-0.02623694,0.02914239,1.05283,9.901458,-9.126618,-57.50811,1000.784
14.877311707,-6.599215,-8.954888,4.121619,0.0008882321,0.03116072,1.023731,9.901458,-9.126618,-57.50811,1000.784
14.897128105,0.5651007,-5.868741,6.506955,0.05606398,0.05423467,0.9830027,9.900043,-9.141052,-58.26815,1000.783
14.916944981,1.177435,3.873805,6.323468,0.04132098,0.08387093,0.9870971,9.900043,-9.141052,-58.26815,1000.783
14.936761856,-1.39437,9.198922,6.87393,-0.01987906,0.07383172,0.994138,9.900043,-9.141052,-58.26815,1000.784
14.956578732,-7.089083,7.746618,5.344869,-0.04248598,0.05482649,1.03664,9.895825,-8.75872,-57.45126,1000.784
14.976395130,-10.08952,4.357906,3.509995,-0.04775385,0.04019107,1.036594,9.895825,-8.75872,-57.45126,1000.785
14.996212482,-6.354281,1.513809,2.959532,-0.01849248,0.01693455,1.021833,9.525168,-8.763906,-57.51321,1000.785
15.016028881,-2.067938,0.1220172,2.592558,-0.004402753,0.006242471,0.999981,9.525168,-8.763906,-57.51321,1000.784
15.035846233,0.3814003,-0.7251607,2.286746,0.02760844,-0.006363945,0.9534038,9.525168,-8.763906,-57.51321,1000.784
15.055662632,1.054968,-1.209262,2.776045,0.06337895,0.00686615,0.9108003,9.890075,-8.392025,-57.45774,1000.78
15.075479507,-0.2309344,2.905602,2.164421,0.09721401,0.02155984,0.8735243,9.890075,-8.392025,-57.45774,1000.78
15.095295906,0.8100346,4.902521,0.8188466,0.08807204,0.01571579,0.8928515,9.508033,-7.662618,-57.46931,1000.781
15.117590427,-1.455604,6.294313,-0.2209152,0.05029754,0.02589957,0.9568241,9.508033,-7.662618,-57.46931,1000.781
15.137407303,-1.39437,3.99483,-0.2209152,0.02759358,0.02246889,0.9965103,9.508033,-7.662618,-57.46931,1000.783
15.157224178,1.361136,-0.1805463,0.08489711,0.02317907,0.03268572,1.002379,10.56084,-7.621263,-55.88984,1000.783
15.177040577,2.095937,-2.298491,0.3907094,0.05120505,0.05372375,0.9835094,10.56084,-7.621263,-55.88984,1000.784
15.196857929,3.320607,-2.05644,0.4518718,0.07008656,0.04936108,0.9510441,9.884206,-8.026532,-57.52755,1000.784
15.216674328,2.524572,-2.237978,0.1460596,0.06194065,0.03669458,0.9659867,9.884206,-8.026532,-57.52755,1000.785
15.236491680,-0.04723396,-3.690283,-0.1597527,0.06210489,0.01970144,0.986171,9.884206,-8.026532,-57.52755,1000.785
15.256308079,-0.1084674,-4.416436,-1.933464,0.0665196,0.02121767,0.9996697,9.892316,-8.369171,-56.25435,1000.785
15.276124954,0.07523298,-2.782593,-2.606251,0.06807478,0.02227172,1.029593,9.892316,-8.369171,-56.25435,1000.785
15.295941353,1.60607,-2.116953,-3.58485,0.05113521,0.02077559,1.051398,9.144664,-8.018862,-56.70141,1000.786
15.315758705,2.708272,-1.572338,-4.685774,0.01852661,0.02498928,1.051598,9.144664,-8.018862,-56.70141,1000.786
15.335576058,2.585805,-2.05644,-6.275998,-0.004388832,0.02287407,1.03144,9.144664,-8.018862,-56.70141,1000.788
15.355392456,0.1976999,-7.018482,-7.682735,0.02531414,0.004965694,1.012361,9.88152,-7.628564,-55.88729,1000.788
15.375209332,1.78977,-9.983604,-10.37388,0.09354243,-0.02537928,1.003144,9.88152,-7.628564,-55.88729,1000.785
15.397503376,-1.516837,1.453297,-15.63385,0.0879723,-0.04672987,1.046023,9.133412,-7.353804,-57.09331,1000.785
15.417319775,3.932941,9.077897,-18.63081,0.01309099,-0.02804187,1.081764,9.133412,-7.353804,-57.09331,1000.786
15.437137127,9.260253,9.319948,-19.85406,-0.07656494,0.02563738,1.121145,9.133412,-7.353804,-57.09331,1000.786
15.456953526,7.178315,7.202003,-14.83874,-0.09390493,0.07127567,1.103133,9.141152,-7.629313,-55.5045,1000.787
15.476770401,5.157611,-0.9066988,-10.31272,-0.07090529,0.0799502,1.016169,9.141152,-7.629313,-55.5045,1000.787
15.496587753,4.97391,-4.29541,-8.416684,-0.02818148,0.04883157,0.9428911,9.8644,-6.598014,-56.34901,1000.783
15.516404152,0.5651007,2.118936,-5.480886,0.000322398,0.01447974,0.9729674,9.8644,-6.598014,-56.34901,1000.783
15.536221504,-1.578071,6.717902,-6.031348,0.003023637,-0.01073635,1.010472,9.8644,-6.598014,-56.34901,1000.782
15.556037903,-0.7820356,6.838927,-3.646013,-0.01916037,-0.03076213,1.032694,9.131318,-6.949821,-55.13636,1000.782
15.575854778,-0.6595686,6.959952,-6.092511,0.0002993899,-0.02919014,1.03694,9.131318,-6.949821,-55.13636,1000.781
15.595671177,0.993735,5.689186,-8.294359,-0.001172229,-0.03311769,1.026791,9.872512,-6.940653,-55.0758,1000.781
15.615488529,2.953206,2.4215,-7.866222,0.02829254,-0.01110881,1.003574,9.872512,-6.940653,-55.0758,1000.783
15.635304928,4.912677,0.4850934,-3.951825,0.05707645,0.01418065,0.9287314,9.872512,-6.940653,-55.0758,1000.783
15.655122280,5.341311,0.1220172,-1.811139,0.07240268,0.03560267,0.8944875,9.496928,-6.570724,-54.70087,1000.778
15.677415848,4.728976,-0.4225971,0.3907094,0.08978239,0.05417884,0.8872476,9.496928,-6.570724,-54.70087,1000.778
15.697233200,4.667743,-1.14875,0.9411715,0.1096958,0.06159644,0.8915207,9.495395,-6.58636,-55.52425,1000.781
15.717049599,4.239109,1.695347,1.002334,0.120026,0.04951134,0.9058825,9.495395,-6.58636,-55.52425,1000.781
15.736866474,4.422809,7.867643,1.124659,0.08821329,0.03194953,0.9609918,9.495395,-6.58636,-55.52425,1000.781
15.756683827,5.708712,9.622512,2.042096,0.008307114,0.0234651,1.047302,9.497636,-6.563507,-54.32086,1000.781
15.776500225,1.544836,2.724063,-1.016027,-0.04436609,-0.009323031,1.092794,9.497636,-6.563507,-54.32086,1000.782
15.796317578,-0.7208021,-8.652325,-0.7102148,0.005182427,-0.02475101,1.049968,9.497636,-6.563507,-54.32086,1000.782
15.816133976,0.1364664,-11.49642,-0.9548646,0.08218645,-0.01822587,0.9651111,9.866759,-6.573957,-55.08228,1000.783
15.835951328,2.340871,-6.594893,0.5741968,0.1292097,-0.007823111,0.9373945,9.866759,-6.573957,-55.08228,1000.783
15.855767727,3.871708,-0.9672114,0.3907094,0.1165095,0.000871404,0.935578,10.1705,-6.196726,-54.7099,1000.779
15.875584603,2.769506,2.4215,0.5741968,0.06355942,0.01432821,0.9759992,10.1705,-6.196726,-54.7099,1000.779
15.895401001,0.6875677,0.3035553,-0.5878899,0.01311353,0.02100526,1.026508,10.1705,-6.196726,-54.7099,1000.78
15.915218353,0.07523298,-7.018482,1.124659,0.01174853,0.02008714,1.052576,9.115598,-5.834099,-54.33243,1000.78
15.937511921,-2.557806,-8.954888,0.6965217,0.04341546,0.005624252,1.044605,9.115598,-5.834099,-54.33243,1000.782
15.957329273,-1.088203,-6.776431,0.1460596,0.04683429,-0.009013908,1.024721,9.492711,-6.188392,-53.88398,1000.782
15.977145672,2.402105,-2.964131,0.8800091,0.03422217,0.003654513,1.055264,9.492711,-6.188392,-53.88398,1000.783
15.996963024,5.708712,0.5456061,1.736283,0.01032917,0.0377073,1.093219,9.492711,-6.188392,-53.88398,1000.783
16.016779900,3.932941,3.692266,5.222544,0.003388985,0.0820654,1.127755,9.496928,-6.570724,-54.70087,1000.784
16.036596298,-0.5983351,6.052262,4.488594,-0.01274339,0.08925574,1.11533,9.496928,-6.570724,-54.70087,1000.784
16.056413651,-2.80274,4.478932,6.87393,-0.06528838,0.08310214,1.099658,9.115598,-5.834099,-54.33243,1000.782
16.076230049,-7.578951,-1.935415,8.219504,-0.0929165,0.06640325,1.099723,9.115598,-5.834099,-54.33243,1000.782
16.096047401,-11.25296,-12.94873,6.568118,-0.04053528,0.04946281,1.029361,9.115598,-5.834099,-54.33243,1000.783
16.115864277,-9.415955,-17.42667,7.852529,0.06536553,0.0245051,0.9519077,8.749394,-6.219211,-55.0846,1000.783
16.135681152,-5.252079,-10.22566,4.794406,0.1118598,0.03340825,0.9092233,8.749394,-6.219211,-55.0846,1000.785
16.155498028,-1.516837,2.905602,5.956493,0.1211219,0.0310273,0.9115736,8.386024,-6.575456,-54.31669,1000.785
16.175314426,1.912237,11.19584,5.89533,0.06466974,0.05075198,0.9337045,8.386024,-6.575456,-54.31669,1000.782
16.195131779,0.2589334,14.64507,6.323468,-0.02915479,0.07718065,0.9893792,8.386024,-6.575456,-54.31669,1000.782
16.217425346,-2.006705,9.925075,7.791367,-0.07093839,0.09557045,1.032178,8.75081,-6.204777,-54.32456,1000.782
16.237242699,-3.537542,4.478932,7.11858,-0.08157934,0.08333493,1.029277,8.75081,-6.204777,-54.32456,1000.782
16.257059097,-4.945911,1.937398,7.974854,-0.03872157,0.05622303,1.001873,8.386024,-6.575456,-54.31669,1000.783
16.276876450,-2.61904,-0.6646479,6.87393,0.0303597,0.02726418,0.9598364,8.386024,-6.575456,-54.31669,1000.783
16.296692848,-2.067938,-0.05952091,6.751605,0.07164614,0.01521946,0.9243129,8.386024,-6.575456,-54.31669,1000.779
16.316509724,-1.884238,2.482013,5.650681,0.09439318,0.01330335,0.8884604,8.019704,-6.96177,-55.1322,1000.779
16.336327076,-0.6595686,4.539444,3.326507,0.09300018,0.003565508,0.8917968,8.019704,-6.96177,-55.1322,1000.779
16.356143475,-2.251639,6.778414,1.675121,0.0683782,-0.001811218,0.9363104,8.380273,-6.20876,-54.32317,1000.779
16.375960827,-3.353841,5.749699,0.6353592,0.06113715,0.01969992,0.9876243,8.380273,-6.20876,-54.32317,1000.779
16.395777226,-1.639304,5.386622,-0.09859026,0.04850314,0.0303972,1.008504,8.380273,-6.20876,-54.32317,1000.779
16.415594101,1.912237,6.173287,1.675121,0.02800832,0.05761902,1.033372,8.014777,-6.586655,-54.69532,1000.782
16.435411453,1.60607,2.058424,3.326507,0.04831748,0.0762185,1.029495,8.014777,-6.586655,-54.69532,1000.782
16.455227852,-0.2921678,-3.145669,3.448832,0.07730211,0.07476343,0.9694769,9.128633,-6.551853,-53.4961,1000.782
16.477521896,-1.884238,-4.840024,1.736283,0.1064926,0.06416695,0.9547824,9.128633,-6.551853,-53.4961,1000.782
16.497338772,-3.170141,-2.601054,1.063496,0.0925811,0.04125421,0.9735653,9.128633,-6.551853,-53.4961,1000.779
16.517156124,-2.312872,-3.327207,-0.2820776,0.07613179,0.04611873,1.006985,8.379565,-6.215977,-54.70319,1000.779
16.536972523,-0.5371017,-4.355923,0.2683845,0.06034327,0.02422251,1.047504,8.379565,-6.215977,-54.70319,1000.781
16.556789398,1.60607,-5.808228,-0.1597527,0.02929895,0.01580832,1.057767,8.391776,-6.942151,-54.31021,1000.781
16.576606274,3.443074,-6.715919,-0.03742781,0.01801747,0.03377015,1.059369,8.391776,-6.942151,-54.31021,1000.781
16.596423149,4.361576,-7.684122,1.552796,0.01388775,0.05264515,1.020392,8.391776,-6.942151,-54.31021,1000.781
16.616240502,5.096377,-8.712837,3.632319,0.05842145,0.06397168,0.9772477,7.639195,-6.216726,-54.3204,1000.783
16.636056900,4.851443,-7.563096,1.736283,0.1133356,0.05836027,0.9551978,7.639195,-6.216726,-54.3204,1000.783
16.655873776,3.871708,-0.4831098,-0.465565,0.08351719,0.02911061,1.005409,7.656449,-7.316812,-54.30096,1000.783
16.675690651,1.422369,3.208165,-2.850901,0.08342177,0.002499503,1.076227,7.656449,-7.316812,-54.30096,1000.783
16.695507527,3.749241,1.271759,-8.049709,0.05628907,-0.02641217,1.058851,7.656449,-7.316812,-54.30096,1000.778
16.715324879,8.831619,2.4215,-11.71946,0.009628186,-0.02907904,1.062954,6.975596,-7.33975,-55.12178,1000.778
16.735141277,9.627654,0.5456061,-13.06503,-0.02777814,-0.02631028,1.080066,6.975596,-7.33975,-55.12178,1000.779
16.757435799,9.688888,-3.992847,-10.6797,-0.01232411,0.03005682,0.9982159,6.600135,-6.968618,-54.68352,1000.779
16.777252197,10.60739,-2.661567,-10.92435,0.01371342,0.05349831,0.9706811,6.600135,-6.968618,-54.68352,1000.78
16.797069073,8.219284,0.2430426,-10.49621,0.02450645,0.03944342,0.9748939,6.600135,-6.968618,-54.68352,1000.78
16.816885948,5.525012,2.542525,-10.43505,0.003768452,0.02821561,1.007772,6.97713,-7.324114,-54.29841,1000.782
16.836702824,2.218405,5.628673,-10.61853,-0.04085631,0.03051242,1.046642,6.97713,-7.324114,-54.29841,1000.782
16.856520176,0.6875677,4.902521,-8.783659,-0.02040433,0.02477035,1.04457,6.60155,-6.954185,-53.92349,1000.781
16.876336575,0.6875677,3.873805,-5.970186,-0.01364542,0.02721443,1.033927,6.60155,-6.954185,-53.92349,1000.781
16.896153927,-3.231374,3.99483,-4.379962,0.01638588,0.04048346,1.019833,6.60155,-6.954185,-53.92349,1000.782
16.915970326,-6.476748,0.6666315,-2.912063,0.06338913,0.02887267,0.9500102,6.224551,-6.598689,-54.3086,1000.782
16.935787201,-5.80318,-3.327207,-3.034388,0.1225108,0.02120731,0.8748321,6.224551,-6.598689,-54.3086,1000.781
16.955604553,-1.21067,0.8481696,-4.502287,0.1291071,0.03917907,0.8420662,6.224551,-6.598689,-54.3086,1000.781
16.975420952,2.402105,8.47277,-2.850901,0.09761221,0.04789846,0.8910339,6.600135,-6.968618,-54.68352,1000.781
16.995238304,5.708712,8.835846,-1.199515,0.05691193,0.04828412,0.9366304,6.600135,-6.968618,-54.68352,1000.781
17.017531872,7.606949,4.599957,0.02373465,0.03038715,0.03559463,0.9815995,5.84673,-6.251613,-55.13706,1000.778
17.037349224,5.586245,1.695347,0.207222,0.04217749,0.02449561,0.997889,5.84673,-6.251613,-55.13706,1000.778
17.057165623,2.218405,1.453297,1.246984,0.05425828,0.03574725,0.9935366,6.231011,-6.958167,-53.9221,1000.779
17.076982498,1.116202,0.1220172,1.552796,0.05527618,0.02796266,0.9939737,6.231011,-6.958167,-53.9221,1000.779
17.096799850,0.07523298,-3.871821,2.65372,0.05929559,0.01438641,1.009328,6.231011,-6.958167,-53.9221,1000.781
17.116616249,-0.6595686,-6.050279,2.40907,0.07877985,0.01010945,1.01113,5.482768,-6.613872,-54.68584,1000.781
17.136433601,0.6263342,-4.29541,2.714883,0.08798738,0.01453373,1.008689,5.482768,-6.613872,-54.68584,1000.782
17.156250477,4.97391,-3.508745,5.650681,0.05817795,0.03969911,1.008498,5.482768,-6.613872,-54.68584,1000.782
17.176066875,3.565541,-5.747715,8.036016,0.04404033,0.06306763,1.037174,4.74886,-6.974099,-53.91655,1000.781
17.195884228,-2.680273,-12.88821,8.341829,0.03973242,0.04011734,1.019703,4.74886,-6.974099,-53.91655,1000.781
17.215700626,-6.048114,-18.03179,7.424392,0.03453766,0.01771222,1.028305,5.114472,-6.595001,-53.48106,1000.777
17.235517979,-5.61948,-16.94257,6.87393,0.05015668,0.03005493,1.064966,5.114472,-6.595001,-53.48106,1000.777
17.255334854,-1.945472,-9.378477,9.014616,0.07495218,0.05266619,1.099699,5.114472,-6.595001,-53.48106,1000.778
17.275151253,-1.088203,5.568161,11.21646,0.07743033,0.05613411,1.119011,4.378322,-6.978082,-53.91516,1000.778
17.297445774,-4.088643,18.75993,12.19506,-0.07390631,0.07728758,1.130084,4.378322,-6.978082,-53.91516,1000.777
17.317262173,-6.660449,9.804049,15.62016,-0.1869993,0.06561554,1.177463,4.063788,-6.614706,-53.92048,1000.777
17.337079525,-14.9882,-10.95181,15.00854,-0.143692,0.1046214,1.105507,4.063788,-6.614706,-53.92048,1000.776
17.356896877,-14.2534,-16.70051,12.50088,-0.006527711,0.09228931,0.9463745,4.063788,-6.614706,-53.92048,1000.776
17.376713276,-4.21111,-3.811309,12.25623,0.06578063,0.08766503,0.8923777,4.056623,-6.262444,-54.68699,1000.776
17.396530151,5.953646,9.440973,14.94737,0.05533219,0.08485567,0.9614435,4.056623,-6.262444,-54.68699,1000.776
17.416346550,7.055848,15.37122,14.5804,-0.03771051,0.06554408,1.028463,2.574471,-6.278376,-54.68144,1000.779
17.436163902,1.728537,16.88404,15.62016,-0.09098381,0.06249332,1.089557,2.574471,-6.278376,-54.68144,1000.779
17.455981255,-4.517277,3.32919,12.19506,-0.07635743,0.05428408,1.086538,2.574471,-6.278376,-54.68144,1000.777
17.475797653,-9.048554,-6.53438,10.11554,0.005583088,0.0242213,0.9628524,3.323539,-6.614251,-53.47435,1000.777
17.495614529,-9.538422,-8.289248,7.36323,0.07001376,0.006777177,0.8595996,3.323539,-6.614251,-53.47435,1000.776
17.515431881,-6.599215,-7.563096,4.610919,0.1127864,-0.0130625,0.8192014,2.946425,-6.259959,-53.9228,1000.776
17.535248280,-4.762211,-2.480029,2.531395,0.111899,-0.01447324,0.8418848,2.946425,-6.259959,-53.9228,1000.776
17.557542801,-1.761771,3.692266,0.5130343,0.113952,-0.009008567,0.8824466,2.946425,-6.259959,-53.9228,1000.776
17.577359200,1.299902,7.867643,-0.7713773,0.08095895,0.007008316,0.9319427,2.947251,-6.251539,-53.47944,1000.775
17.597176552,2.340871,9.622512,-0.8325397,0.04151869,0.04001375,0.9728731,2.947251,-6.251539,-53.47944,1000.775
17.616993427,4.361576,6.89944,-0.4044026,0.02885851,0.05509218,0.9932922,2.929997,-5.151453,-53.49888,1000.776
17.636809826,2.218405,4.357906,-0.9548646,0.03076644,0.07560816,1.016073,2.929997,-5.151453,-53.49888,1000.776
17.656627178,-0.7208021,3.873805,-1.688814,0.03804109,0.07074268,1.002011,2.929997,-5.151453,-53.49888,1000.777
17.676444054,0.5038673,0.0009917939,-2.973226,0.07161394,0.05332847,0.9776035,4.362601,-5.862359,-53.11123,1000.777
17.696260929,1.299902,-1.693364,-1.811139,0.09793401,0.04128424,0.9745015,4.362601,-5.862359,-53.11123,1000.773
17.716077805,0.4426338,-2.661567,-3.58485,0.1042555,0.027628,0.9517108,3.296451,-4.834674,-53.12565,1000.773
17.735894203,1.667303,-5.62669,-5.847861,0.1130404,0.01742914,0.9438875,3.296451,-4.834674,-53.12565,1000.776
17.755711556,1.177435,-5.505664,-7.927384,0.1282078,0.006817088,0.9529209,3.296451,-4.834674,-53.12565,1000.776
17.775528908,0.9325016,-1.874902,-10.55737,0.08365171,-0.001103312,0.9951171,3.651267,-3.714969,-52.32311,1000.776
17.795345307,0.5651007,2.724063,-10.31272,0.06619394,0.02132999,1.046974,3.651267,-3.714969,-52.32311,1000.776
17.815162182,5.463778,5.447135,-6.765298,0.05278099,0.08901367,1.075874,2.928153,-4.815804,-51.92088,1000.777
17.837456227,9.566421,9.743537,-0.6490523,0.02995497,0.1487041,1.04107,2.928153,-4.815804,-51.92088,1000.777
17.857273102,8.280518,6.415338,2.225583,0.0596981,0.147446,1.061173,2.928153,-4.815804,-51.92088,1000.778
17.877090454,-0.7820356,4.236881,-1.566489,0.0245956,0.07910578,1.066323,3.652682,-3.700535,-51.56307,1000.778
17.896906853,-11.43666,1.09022,-3.707175,0.04753586,0.02047476,1.136368,3.652682,-3.700535,-51.56307,1000.779
17.916724205,-13.08996,-0.6646479,-8.416684,0.07221355,-0.05247205,1.12186,2.904442,-3.356239,-52.32681,1000.779
17.936541081,-5.497013,1.876886,-14.71642,0.04620457,-0.1027811,1.113539,2.904442,-3.356239,-52.32681,1000.779
17.956357479,1.851004,2.784576,-15.3892,-0.04883975,-0.04720176,1.144753,2.904442,-3.356239,-52.32681,1000.779
17.976174832,7.178315,-5.142588,-13.98247,-0.07011113,-0.02165649,1.08177,2.905857,-3.341806,-51.56678,1000.78
17.995991707,10.79109,-13.97744,-11.41364,-0.0289923,0.05285317,0.9969761,2.905857,-3.341806,-51.56678,1000.78
18.015808582,10.79109,-15.24821,-10.1904,0.01497438,0.0768302,0.9510042,3.642005,-2.958725,-51.13268,1000.778
18.035625458,6.627214,-8.107711,-9.945745,0.05191449,0.06722908,0.9285495,3.642005,-2.958725,-51.13268,1000.778
18.055442810,3.01444,1.332271,-9.150634,0.004980667,0.04466844,0.9624781,3.642005,-2.958725,-51.13268,1000.777
18.075259209,2.157171,3.268678,-8.844821,-0.04877203,0.03037607,1.007105,2.900931,-2.966691,-51.12991,1000.777
18.097553730,-0.3534013,1.876886,-6.520648,-0.03256869,0.01785885,1.031569,2.900931,-2.966691,-51.12991,1000.778
18.117370129,-3.170141,2.058424,-4.991587,-0.000994287,-0.007425356,0.9786543,3.627244,-1.904119,-50.32767,1000.778
18.137187004,-3.415075,4.055343,-4.502287,0.01586718,-0.002562935,0.93949,3.627244,-1.904119,-50.32767,1000.779
18.157004356,-2.680273,2.542525,-3.58485,0.03811342,0.01310747,0.9283471,3.627244,-1.904119,-50.32767,1000.779
18.176820755,-1.516837,-0.9672114,-1.138352,0.08176502,0.01324963,0.8933561,3.614209,-1.186365,-51.164,1000.781
18.196638107,-0.7208021,1.150733,-1.383002,0.08407547,0.02197529,0.8721504,3.614209,-1.186365,-51.164,1000.781
18.216454983,2.953206,6.657389,-0.5267274,0.06613551,0.029254,0.9002813,3.237922,-0.8236523,-51.16909,1000.778
18.236271858,5.647479,7.686105,0.4518718,0.03511607,0.03992361,0.9492564,3.237922,-0.8236523,-51.16909,1000.778
18.256088734,7.423249,4.539444,2.164421,0.02542721,0.04136685,0.9628318,3.237922,-0.8236523,-51.16909,1000.778
18.275906086,7.239549,1.574322,3.938132,0.06581489,0.03670299,0.9611388,3.986281,-1.166745,-50.34202,1000.778
18.295722485,5.708712,1.75586,4.121619,0.09252695,0.03828228,0.9527951,3.986281,-1.166745,-50.34202,1000.775
18.315539360,3.871708,1.997911,2.776045,0.09950911,0.02230876,0.9772915,3.986281,-1.166745,-50.34202,1000.775
18.335356712,2.769506,2.118936,3.081857,0.06752507,0.0241794,1.01416,4.278516,-0.05612326,-49.9826,1000.775
18.355173111,3.259373,2.784576,1.675121,0.06133053,0.01397166,1.034896,4.278516,-0.05612326,-49.9826,1000.775
18.377467632,4.361576,-2.359004,3.204182,0.05125649,0.01792903,1.082274,4.279223,-0.04890633,-49.60258,1000.772
18.397284031,2.402105,-7.139507,3.754644,0.05747785,0.03011143,1.072649,4.279223,-0.04890633,-49.60258,1000.772
18.417101383,-1.823005,-6.715919,3.448832,0.07835063,0.02725827,1.056109,4.279223,-0.04890633,-49.60258,1000.771
18.436918259,-5.741947,-7.381558,2.40907,0.07307616,0.01115153,1.051711,3.970443,-0.05222559,-49.60142,1000.771
18.456735611,-7.762651,-5.203101,0.2683845,0.04945828,-0.01130822,1.077307,3.970443,-0.05222559,-49.60142,1000.772
18.476552010,-7.885118,-0.4831098,-0.8325397,-0.02076037,-0.03688075,1.123897,3.588403,0.6771817,-49.61299,1000.772
18.496369362,-9.783356,0.6666315,1.430471,-0.06593841,-0.01703491,1.172032,3.588403,0.6771817,-49.61299,1000.77
18.516186237,-8.436219,-7.502584,3.204182,-0.03464149,0.003436559,1.113079,3.588403,0.6771817,-49.61299,1000.77
18.536002636,-7.517717,-10.40719,5.161381,0.04413446,0.03624694,1.020625,3.584317,0.9899778,-49.23838,1000.773
18.555819988,-9.171021,-4.900537,3.020695,0.03714247,0.05221342,0.9932321,3.584317,0.9899778,-49.23838,1000.773
18.575636864,-9.967056,-0.9066988,3.081857,0.02102715,0.06723791,0.998707,4.252135,1.730671,-49.25388,1000.775
18.595453739,-5.986881,-2.601054,3.693482,0.008771856,0.08128291,0.9935367,4.252135,1.730671,-49.25388,1000.775
18.615270615,-2.741507,-3.629771,4.427432,0.01945286,0.0681257,0.9663807,4.252135,1.730671,-49.25388,1000.776
18.637564659,-2.006705,-1.451313,3.632319,0.02778857,0.05452874,0.9638518,3.572816,1.723369,-49.25134,1000.776
18.657381535,-3.721242,0.9086823,5.344869,0.004936512,0.05196997,0.9615505,3.572816,1.723369,-49.25134,1000.776
18.677198887,-2.557806,-0.1805463,6.812768,0.02337444,0.05496841,0.953742,3.561431,2.457962,-49.20096,1000.776
18.697015286,-2.496573,1.392784,7.852529,0.04233967,0.05653203,0.955577,3.561431,2.457962,-49.20096,1000.779
18.716832638,-3.170141,4.720983,8.647641,0.03937428,0.06528274,0.9561208,3.561431,2.457962,-49.20096,1000.779
18.736649513,-3.782475,9.077897,8.158341,0.01554036,0.06760107,0.9591593,2.815314,2.823908,-48.82465,1000.778
18.756465912,-1.945472,8.23072,8.892291,-0.01549092,0.05479635,0.9660209,2.815314,2.823908,-48.82465,1000.778
18.776283264,-2.190405,3.934317,8.708804,-0.01875336,0.03972509,0.982855,4.242166,2.479698,-48.44347,1000.782
18.796100140,-4.456044,-0.1200336,6.751605,0.04441889,0.021439,0.9370435,4.242166,2.479698,-48.44347,1000.782
18.815917492,-3.660008,-0.3015717,5.161381,0.08571184,0.006465707,0.898609,4.242166,2.479698,-48.44347,1000.78
18.835733891,-0.7820356,2.784576,3.754644,0.09793711,-0.005156387,0.8989651,3.921884,3.20977,-48.45527,1000.78
18.855551243,1.973471,5.084059,2.470233,0.1013781,-0.001690457,0.9153752,3.921884,3.20977,-48.45527,1000.781
18.875368118,4.851443,5.386622,0.6353592,0.0975193,0.007600735,0.9400606,4.221654,3.900999,-47.64494,1000.781
18.895184517,4.912677,7.202003,-0.4044026,0.08876137,0.03150731,0.9783629,4.221654,3.900999,-47.64494,1000.781
18.917479038,3.749241,9.804049,0.8188466,0.04937,0.04548166,1.002302,4.221654,3.900999,-47.64494,1000.779
18.937295437,3.320607,5.810211,-0.2209152,0.02409196,0.05513615,1.021797,3.912047,3.889261,-48.08714,1000.782
18.957112789,0.5038673,1.695347,-0.2820776,0.01101083,0.05705925,1.039737,3.912047,3.889261,-48.08714,1000.782
18.976930142,-2.435339,-3.266694,-0.03742781,0.03050035,0.04007538,1.022167,5.34452,3.24789,-47.25721,1000.783
18.996747017,-2.006705,-7.502584,-1.016027,0.0709468,0.01932075,1.01122,5.34452,3.24789,-47.25721,1000.783
19.016563416,-0.2921678,-7.321045,-3.523688,0.08415288,0.004776281,1.009142,5.34452,3.24789,-47.25721,1000.785
19.036380768,1.78977,-5.263614,-5.297399,0.06865215,0.007184265,1.031443,4.575648,5.012286,-47.28575,1000.785
19.056197643,4.055408,-6.836944,-6.398323,0.02092052,0.02350828,1.038063,4.575648,5.012286,-47.28575,1000.782
19.076014519,2.157171,-9.075913,-7.254598,0.0272647,0.02551213,1.047692,3.912873,3.89768,-47.64378,1000.782
19.095831394,1.238669,-9.741553,-9.517609,0.07788146,0.006246519,1.026561,3.912873,3.89768,-47.64378,1000.784
19.115648747,1.851004,-6.594893,-12.02527,0.05525862,-0.01668106,1.057941,3.912873,3.89768,-47.64378,1000.784
19.135465622,1.60607,-5.929253,-13.30968,0.0870731,-0.03250512,1.09099,4.205935,5.016721,-46.84101,1000.784
19.155282021,6.38228,-3.38772,-15.63385,0.116607,-0.02609071,1.062383,4.205935,5.016721,-46.84101,1000.785
19.177576542,13.7303,6.596876,-15.8785,0.04722528,0.04567414,1.086783,4.216611,4.274911,-47.2714,1000.787
19.197392941,16.60827,11.37738,-11.10783,-0.05263006,0.08806613,1.111681,4.216611,4.274911,-47.2714,1000.787
19.217210293,13.42413,8.049181,-7.132273,-0.06677484,0.1080074,1.132616,4.216611,4.274911,-47.2714,1000.786
19.237027645,7.97435,-1.935415,-7.927384,-0.06865884,0.07968661,1.104003,4.20511,5.008302,-47.28436,1000.786
19.256844521,0.3201669,-6.231817,-8.110872,-0.04324581,0.03444093,1.0655,4.20511,5.008302,-47.28436,1000.787
19.276660919,-3.476308,-5.62669,-3.951825,-0.03150787,-0.007005595,1.016472,4.946187,5.016268,-47.28714,1000.787
19.296478272,-4.639744,-6.231817,-3.279038,0.01947437,-0.03026603,0.9533256,4.946187,5.016268,-47.28714,1000.787
19.316295147,-2.61904,-5.808228,-4.563449,0.06112644,-0.03603914,0.8927332,4.946187,5.016268,-47.28714,1000.787
19.336112022,-2.863973,-1.330288,-6.459486,0.05753827,-0.01614442,0.8716171,4.577182,5.027922,-46.46238,1000.788
19.355928898,-1.945472,3.571241,-7.376923,0.04388364,0.002824379,0.8920618,4.577182,5.027922,-46.46238,1000.788
19.375746250,0.5038673,3.813292,-6.398323,0.03321388,0.001323467,0.8983873,4.577182,5.027922,-46.46238,1000.788
19.395563126,3.749241,4.902521,-5.480886,0.03707624,0.01110084,0.9061393,4.939729,5.375746,-47.67363,1000.791
19.415380001,5.341311,7.202003,-4.318799,0.04433144,0.02088763,0.9104939,4.939729,5.375746,-47.67363,1000.791
19.435196877,6.259813,8.412257,-2.973226,0.05007314,0.04040536,0.9149068,4.565679,5.761313,-46.47534,1000.786
19.457490921,5.892412,9.743537,-1.321839,0.04666907,0.05505407,0.9391347,4.565679,5.761313,-46.47534,1000.786
19.477307797,4.728976,8.593796,-1.749977,0.03268352,0.05213218,0.9691222,5.322474,4.653555,-47.28205,1000.786
19.497125149,3.871708,5.568161,-0.5878899,0.03722043,0.04004734,0.9960653,5.322474,4.653555,-47.28205,1000.787
19.516942024,3.075673,3.268678,1.430471,0.05627401,0.02994118,1.004597,5.322474,4.653555,-47.28205,1000.787
19.536758423,3.136906,1.75586,2.286746,0.06895664,0.01732314,0.9948095,5.318257,5.035887,-46.46515,1000.787
19.556575775,3.871708,0.6666315,3.509995,0.08546667,0.01543524,0.9840905,5.318257,5.035887,-46.46515,1000.787
19.576393128,4.484043,-1.753877,4.366269,0.07573909,0.02173953,0.9943123,5.318257,5.035887,-46.46515,1000.788
19.596210003,3.075673,-4.779512,4.916731,0.08835421,0.02618377,0.9928181,4.958396,4.290094,-46.89416,1000.788
19.616026402,1.361136,-4.900537,6.38463,0.07812718,0.03247617,0.9991812,4.958396,4.290094,-46.89416,1000.785
19.635843754,1.054968,-3.750796,7.791367,0.03483975,0.04887088,1.025567,4.947721,5.031905,-46.46377,1000.785
19.655660629,-0.2921678,-8.470787,10.36019,0.02810988,0.05182515,1.053614,4.947721,5.031905,-46.46377,1000.785
19.675477505,-2.98644,-13.37232,9.320428,0.0494918,0.04019112,1.029304,4.947721,5.031905,-46.46377,1000.784
19.695294380,-2.98644,-6.171304,6.13998,0.08931071,0.04231004,1.014616,4.964265,3.924601,-46.82434,1000.784
19.715111733,-0.5371017,8.593796,7.057417,-0.006865354,0.05411723,1.069746,4.964265,3.924601,-46.82434,1000.786
19.737405300,-1.945472,15.73429,9.748566,-0.05862671,0.0819108,1.197116,4.598401,3.613837,-46.88089,1000.785
19.757222653,-5.129612,7.686105,11.52228,-0.05762486,0.06140407,1.171906,4.598401,3.613837,-46.88089,1000.785
19.777039528,-8.987321,-0.4831098,9.198103,-0.04639556,0.02629441,1.126776,4.598401,3.613837,-46.88089,1000.785
19.796856880,-15.78424,-2.903618,6.87393,-0.02460457,0.03758468,1.117543,4.973983,3.243908,-47.25582,1000.785
19.816673279,-12.90626,-8.591812,6.996255,0.0006126284,0.01615378,1.060822,4.973983,3.243908,-47.25582,1000.786
19.836490631,-4.456044,-11.55693,6.87393,0.02896253,0.03121179,0.9844809,4.587857,4.286111,-46.89277,1000.786
19.856307507,-2.312872,-7.381558,7.302067,0.06857735,0.05273974,0.9418989,4.587857,4.286111,-46.89277,1000.785
19.876124859,-1.700538,-2.177466,6.323468,0.04608441,0.0579145,0.9150186,4.587857,4.286111,-46.89277,1000.785
19.895941258,-3.904943,1.634835,6.87393,0.008186278,0.06018797,0.9297181,3.570132,2.121337,-47.61107,1000.785
19.915758133,-5.068378,5.023546,8.769966,-0.02100196,0.07714142,0.9555469,3.570132,2.121337,-47.61107,1000.783
19.935575485,-4.02741,4.539444,9.932053,-0.01176,0.08159031,0.963242,3.184583,3.240294,-46.42574,1000.783
19.955391884,-3.231374,6.294313,9.320428,0.01928426,0.0856046,0.9457163,3.184583,3.240294,-46.42574,1000.784
19.975209236,-2.129172,6.173287,7.913692,-0.0180944,0.07519359,0.9492462,3.184583,3.240294,-46.42574,1000.784
19.997503757,-4.945911,3.510728,6.323468,0.01119436,0.05586762,0.9489866,2.817555,2.846762,-47.62126,1000.786
20.017320156,-5.190845,0.8481696,5.283706,0.02002873,0.02712696,0.9251393,2.817555,2.846762,-47.62126,1000.786
20.037137032,-4.945911,5.628673,4.794406,0.06201065,0.004479051,0.9334814,2.812511,3.220674,-47.24772,1000.786
20.056954384,-2.680273,7.625592,3.632319,0.09039274,-0.02458224,0.9365556,2.812511,3.220674,-47.24772,1000.789
20.076771259,0.5038673,7.746618,2.103258,0.06857784,-0.02660101,0.9540409,2.812511,3.220674,-47.24772,1000.789
20.096588135,0.6263342,6.2338,1.552796,0.04371013,0.01722273,1.007497,2.81673,2.838342,-48.06461,1000.791
20.116405010,0.5651007,3.571241,0.6353592,0.06112791,0.02311542,0.9905379,2.81673,2.838342,-48.06461,1000.791
20.136222363,1.116202,0.7876569,0.6965217,0.07564962,0.03243077,0.9856797,2.806761,3.587369,-47.2542,1000.791
20.156039238,2.095937,-1.209262,0.3295469,0.07268466,0.03433759,0.9750867,2.806761,3.587369,-47.2542,1000.789
20.175855637,2.279638,-3.206182,-0.2209152,0.07015637,0.0401224,0.9563058,2.806761,3.587369,-47.2542,1000.789
20.195672989,3.01444,-5.082076,-0.5878899,0.07599464,0.0479762,0.9698291,2.077187,2.846013,-47.23846,1000.79
20.215490341,2.218405,-4.05336,-1.321839,0.07209875,0.06212961,0.9916437,2.077187,2.846013,-47.23846,1000.79
20.235307217,1.238669,-1.935415,-2.300439,0.05367456,0.06402971,1.011544,2.066392,3.58662,-46.87141,1000.791
20.255123615,3.443074,-3.206182,-0.8937021,0.02995587,0.0610528,1.039654,2.066392,3.58662,-46.87141,1000.791
20.277418137,4.851443,-5.747715,0.5130343,0.004140693,0.07213508,1.04661,2.066392,3.58662,-46.87141,1000.789
20.297235489,4.851443,-6.473867,1.552796,0.02115566,0.07221848,1.044586,2.059359,3.869346,-48.0802,1000.79
20.317051888,3.136906,-5.021563,0.6965217,0.08183149,0.07049517,1.007079,2.059359,3.869346,-48.0802,1000.79
20.336869240,2.891973,-0.9672114,0.2683845,0.06161382,0.03142846,1.004093,1.694439,3.568203,-47.63005,1000.792
20.356686115,-0.1697009,0.5456061,-1.933464,0.03927268,-0.01183042,1.0846,1.694439,3.568203,-47.63005,1000.792
20.376503468,-1.21067,-5.384639,-6.153673,0.08316447,-0.02960488,1.090544,1.694439,3.568203,-47.63005,1000.794
20.396319866,3.565541,-3.992847,-11.90294,0.07385632,-0.03752317,1.057732,0.2840128,2.803909,-48.43514,1000.794
20.416136742,5.831179,4.418419,-13.30968,0.02368402,-0.00459655,1.089067,0.2840128,2.803909,-48.43514,1000.794
20.435954094,7.606949,3.450216,-13.12619,-0.05371263,0.009619204,1.092942,0.6422224,3.532863,-48.89285,1000.791
20.455771446,7.79065,-7.139507,-13.30968,-0.04211459,0.003760349,1.061475,0.6422224,3.532863,-48.89285,1000.791
20.475588322,4.60651,-7.805147,-15.8785,0.009944134,-0.02039859,1.027278,0.6422224,3.532863,-48.89285,1000.793
20.495404720,1.973471,0.0009917939,-14.28828,0.002595019,-0.02487491,1.004127,0.2716846,3.52888,-48.89146,1000.793
20.515222073,3.871708,4.842008,-12.69806,-0.02858567,-0.01627604,1.002411,0.2716846,3.52888,-48.89146,1000.792
20.537516594,5.402544,3.32919,-8.477847,-0.02275228,-0.005492487,1.019328,-0.4798164,4.194392,-48.83722,1000.791
20.557332993,1.78977,2.663551,-11.29132,0.01553336,-0.0009898429,0.9868024,-0.4798164,4.194392,-48.83722,1000.791
20.577149868,-1.39437,5.265597,-11.84178,0.007602515,0.01010705,0.9613209,-0.4798164,4.194392,-48.83722,1000.79
20.596967220,0.2589334,6.596876,-9.578771,0.02640348,0.02719717,0.9405505,-0.4755983,3.812059,-49.65411,1000.79
20.616784573,6.076113,5.991749,-7.988547,0.05589864,0.03553937,0.9037483,-0.4755983,3.812059,-49.65411,1000.792
20.636600971,6.504747,7.80713,-6.398323,0.06355128,0.05797582,0.9028563,-0.8504725,4.189206,-48.89917,1000.792
20.656417847,9.811355,7.444054,-6.398323,0.04842056,0.0676363,0.9029888,-0.8504725,4.189206,-48.89917,1000.792
20.676235199,7.913117,5.023546,-6.275998,0.03061107,0.06571968,0.9542404,-0.8504725,4.189206,-48.89917,1000.791
20.696052075,6.688447,2.905602,-4.502287,0.03932958,0.072095,0.9542254,0.2473984,4.911692,-50.11969,1000.791
20.715869427,8.525452,0.7271442,-3.095551,0.06177153,0.05661747,0.9491962,0.2473984,4.911692,-50.11969,1000.792
20.735685826,6.627214,2.300474,-1.627652,0.05753094,0.03958175,0.9611989,0.2473984,4.911692,-50.11969,1000.792
20.755503178,3.749241,1.574322,-1.199515,0.04253761,0.02734116,0.9655622,-1.222426,4.170789,-49.65782,1000.792
20.775320053,2.095937,-2.116953,-0.8325397,0.05723106,0.01038017,0.9678081,-1.222426,4.170789,-49.65782,1000.792
20.795137406,1.851004,-1.14875,-0.3432401,0.069468,0.01049934,0.9909102,-0.4886332,4.529813,-50.49044,1000.791
20.817430973,1.177435,0.8481696,0.5741968,0.06079936,0.0119816,1.018478,-0.4886332,4.529813,-50.49044,1000.79
20.837248326,1.544836,0.0009917939,0.4518718,0.04659435,0.02503565,1.010417,-0.4886332,4.529813,-50.49044,1000.79
20.857065201,2.891973,-1.935415,1.613959,0.04262808,0.04647183,1.023581,-0.8691406,5.274859,-49.67865,1000.792
20.876882076,0.5038673,-3.508745,2.89837,0.0596367,0.05975024,1.041415,-0.8691406,5.274859,-49.67865,1000.792
20.896698952,-3.231374,-6.413355,2.470233,0.04794073,0.0586949,1.032786,-1.22971,4.521847,-50.48767,1000.792
20.916516304,-5.007145,-7.20002,1.858608,0.04368503,0.05435906,1.061265,-1.22971,4.521847,-50.48767,1000.793
20.936333180,-5.129612,-4.476948,2.470233,0.03501206,0.05926034,1.093194,-1.22971,4.521847,-50.48767,1000.793
20.956150532,-2.741507,1.816373,4.488594,-0.001493058,0.07127164,1.104558,-0.8649225,4.892526,-50.49554,1000.791
20.975966931,-4.884678,6.112775,7.057417,-0.01032087,0.100017,1.130335,-0.8649225,4.892526,-50.49554,1000.791
20.995784283,-4.517277,0.9086823,7.974854,-0.001183463,0.09314709,1.08874,-0.8656301,4.88531,-50.87555,1000.792
21.015601158,-6.537982,-1.269775,6.996255,-0.04373319,0.0725697,1.127964,-0.8656301,4.88531,-50.87555,1000.792
21.035418510,-12.17146,-3.992847,6.812768,-0.03873681,0.05557945,1.138951,-0.8656301,4.88531,-50.87555,1000.794
21.055235386,-9.109787,-10.28617,5.89533,-0.01565268,0.05062596,1.05433,-0.8656301,4.88531,-50.87555,1000.794
21.077529430,-4.149877,-11.13335,6.201143,0.05563056,0.04742575,0.9873142,-0.8656301,4.88531,-50.87555,1000.791
21.097346306,-3.537542,-7.502584,5.834168,0.09189564,0.06359749,0.9519632,-1.60824,4.861707,-51.69615,1000.792
21.117163658,-4.517277,-2.237978,4.855569,0.06751049,0.0751555,0.9511907,-1.60824,4.861707,-51.69615,1000.792
21.136980534,-5.313313,-0.4831098,5.834168,-0.005362012,0.0645666,0.9573273,-1.60824,4.861707,-51.69615,1000.792
21.156797409,-5.558246,-2.843105,7.485555,-0.02292767,0.07274552,0.9540868,-1.254955,5.965775,-51.71698,1000.792
21.176614285,-6.293048,-1.3908,7.485555,0.01552877,0.0602597,0.9436759,-1.254955,5.965775,-51.71698,1000.792
21.196431637,-4.02741,1.09022,5.528356,-0.0190771,0.06198183,0.9245671,-1.633485,6.305634,-52.92546,1000.791
21.216248512,-2.863973,3.450216,5.039056,-0.02874425,0.05366315,0.9284387,-1.633485,6.305634,-52.92546,1000.791
21.236064911,-2.374106,2.300474,3.14302,-0.002898561,0.03624734,0.9200022,-1.633485,6.305634,-52.92546,1000.792
21.255882263,-2.61904,0.6061188,3.081857,0.04477461,0.02183704,0.8993948,-1.625493,5.961792,-51.71559,1000.792
21.275699616,-2.925207,1.150733,-0.4044026,0.07010057,0.0009727515,0.8754977,-1.625493,5.961792,-51.71559,1000.792
21.295516491,-2.312872,7.444054,-3.340201,0.07651421,0.006448353,0.911209,-1.266324,6.62963,-52.17221,1000.792
21.315333843,-0.8432691,12.95071,-5.175074,0.04851476,0.00449529,0.9692736,-1.266324,6.62963,-52.17221,1000.789
21.335150719,2.463338,12.46661,-5.175074,0.008775711,0.007811041,1.016328,-1.266324,6.62963,-52.17221,1000.789
21.357444763,2.095937,6.294313,-3.890663,0.01213443,0.0283287,1.036687,-1.265498,6.63805,-51.72886,1000.79
21.377261639,0.6263342,-0.05952091,-3.523688,0.04304548,0.04202524,0.9960436,-1.265498,6.63805,-51.72886,1000.792
21.397078991,-1.455604,-2.116953,-3.034388,0.07987583,0.03821215,0.9509333,-1.644029,6.977909,-52.93734,1000.792
21.416895390,-1.516837,-1.511826,-3.58485,0.09107771,0.03241523,0.9460154,-1.644029,6.977909,-52.93734,1000.792
21.436712742,-1.578071,-1.632851,-3.951825,0.07801395,0.02652878,0.956193,-1.644029,6.977909,-52.93734,1000.794
21.456529617,-1.516837,-1.874902,-4.502287,0.0712322,0.03140146,0.9721835,-1.642495,6.993545,-52.11397,1000.794
21.476346970,-1.578071,-1.874902,-7.376923,0.0460605,0.02646579,0.9988431,-1.642495,6.993545,-52.11397,1000.795
21.496163845,-0.5983351,-1.269775,-8.172034,0.02239751,0.02059545,1.038522,-1.588848,7.336849,-53.38741,1000.795
21.515980244,-1.02697,-0.9672114,-6.520648,0.002577021,0.01275537,1.060794,-1.588848,7.336849,-53.38741,1000.797
21.535797596,2.524572,-3.448232,-7.376923,0.03538577,0.05673801,1.056013,-1.588848,7.336849,-53.38741,1000.797
21.555614948,5.708712,-2.782593,-5.542049,0.04640339,0.08063059,1.045939,-1.277826,7.36302,-52.18517,1000.794
21.575431824,4.912677,2.118936,-6.642973,0.04105427,0.07815892,1.042095,-1.277826,7.36302,-52.18517,1000.794
