Time (s),Gyroscope X (deg/s),Gyroscope Y (deg/s),Gyroscope Z (deg/s),Accelerometer X (g),Accelerometer Y (g),Accelerometer Z (g),Magnetometer X (uT),Magnetometer Y (uT),Magnetometer Z (uT),Barometer (hPa)
0.000000000,-2.006705,-0.4225971,0.8800091,-0.01818854,-0.04884596,1.002669,32.0132,11.09724,-25.82275,1008.05
0.002476692,-2.129172,-0.5436226,1.491634,-0.01678407,-0.04056654,1.000291,32.0132,11.09724,-25.82275,1008.05
0.004953861,-2.312872,-0.846186,2.042096,-0.02167027,-0.03767486,0.9984019,32.0132,11.09724,-25.82275,1008.05
0.007430553,-2.557806,-1.209262,2.531395,-0.02554943,-0.03768679,1.001802,32.0132,11.09724,-25.82275,1008.05
0.009907246,-2.741507,-1.572338,3.020695,-0.02899785,-0.02746962,1.005735,32.0132,11.09724,-25.82275,1008.05
0.012384415,-2.925207,-1.753877,3.14302,-0.03486548,-0.02654472,0.9980485,31.63761,11.46717,-25.44783,1008.05
0.014861107,-2.98644,-1.814389,3.14302,-0.03825939,-0.02606604,1.001931,31.63761,11.46717,-25.44783,1008.05
0.017338276,-3.231374,-1.995928,3.326507,-0.03826586,-0.0202042,1.009684,31.63761,11.46717,-25.44783,1008.05
0.019814968,-3.415075,-2.177466,3.326507,-0.03486645,-0.01872346,1.010638,31.63761,11.46717,-25.44783,1008.05
0.022291660,-3.660008,-2.237978,3.020695,-0.04068275,-0.02020624,1.014041,31.63761,11.46717,-25.44783,1008.05
0.024768829,-3.537542,-2.237978,2.776045,-0.03973298,-0.01581771,1.014541,31.63761,11.46717,-25.44783,1008.05
0.027245522,-3.476308,-2.298491,3.020695,-0.04312366,-0.01826995,1.014547,31.63761,11.46717,-25.44783,1008.05
0.029723167,-3.537542,-2.177466,2.837208,-0.04460833,-0.01780698,1.0078,31.63761,11.46717,-25.44783,1008.05
0.032199383,-3.782475,-2.298491,2.837208,-0.04312475,-0.01778185,1.015033,31.63761,11.46717,-25.44783,1008.05
0.034676075,-3.904943,-2.419516,2.837208,-0.04360237,-0.02022251,1.013575,31.63761,11.46717,-25.44783,1008.05
0.037153721,-4.02741,-2.419516,2.89837,-0.04510279,-0.01341546,1.012652,31.63761,11.46717,-25.44783,1008.05
0.039630413,-4.149877,-2.419516,2.837208,-0.04216516,-0.01485293,1.016008,31.63761,11.46717,-25.44783,1008.05
0.042107582,-4.02741,-2.298491,2.714883,-0.04509406,-0.01438696,1.013613,31.63761,11.46717,-25.44783,1008.05
0.044584274,-3.721242,-2.116953,2.470233,-0.04898795,-0.01294281,1.01509,31.63761,11.46717,-25.44783,1008.05
0.047061443,-3.415075,-1.693364,2.470233,-0.05141082,-0.01099364,1.020905,31.63761,11.46717,-25.44783,1008.05
0.049538136,-3.170141,-1.451313,1.797446,-0.05045948,-0.01100384,1.014625,31.63761,11.46717,-25.44783,1008.05
0.052014828,-2.925207,-1.209262,1.552796,-0.04948294,-0.007573927,1.021394,31.63761,11.46717,-25.44783,1008.05
0.054491997,-2.680273,-0.6646479,1.063496,-0.04803813,-0.005621021,1.020431,31.63761,11.46717,-25.44783,1008.05
0.056968689,-2.557806,-0.3015717,0.5130343,-0.046541,-0.01243041,1.020388,31.63761,11.46717,-25.44783,1008.05
0.059445858,-2.496573,0.2430426,0.207222,-0.05090105,-0.01488534,1.021365,31.63761,11.46717,-25.44783,1008.05
0.061922550,-2.435339,0.5456061,-0.1597527,-0.047547,-0.01294815,1.009772,32.00662,11.45551,-26.27258,1008.05
0.064399242,-2.251639,0.8481696,-0.7713773,-0.04510392,-0.01586063,1.008296,32.00662,11.45551,-26.27258,1008.05
0.066876411,-2.129172,1.332271,-0.9548646,-0.04655854,-0.01635393,1.008784,32.00662,11.45551,-26.27258,1008.05
0.069353104,-2.067938,1.150733,-1.016027,-0.04609679,-0.01490236,1.003962,32.00662,11.45551,-26.27258,1008.05
0.071830750,-1.823005,1.09022,-1.199515,-0.04170788,-0.02024877,0.9986011,32.00662,11.45551,-26.27258,1008.05
0.074306965,-1.639304,1.211246,-1.505327,-0.04219202,-0.01976085,1.000054,32.00662,11.45551,-26.27258,1008.05
0.076783657,-1.639304,1.150733,-1.688814,-0.03834288,-0.01732601,0.9918402,32.00662,11.45551,-26.27258,1008.05
0.079261303,-1.639304,0.9086823,-1.688814,-0.03830145,-0.02414061,0.9927703,32.00662,11.45551,-26.27258,1008.051
0.081737995,-1.761771,0.7876569,-1.811139,-0.03731244,-0.02705712,0.9927499,32.00662,11.45551,-26.27258,1008.051
0.084215164,-1.761771,0.4850934,-2.116951,-0.03197917,-0.02410789,0.9927358,32.00662,11.45551,-26.27258,1008.051
0.086691856,-1.823005,0.1825299,-2.239276,-0.03047387,-0.03384469,0.9902642,32.00662,11.45551,-26.27258,1008.051
0.089168549,-1.884238,-0.05952091,-2.116951,-0.02900888,-0.03432172,0.991219,32.00662,11.45551,-26.27258,1008.051
0.091645718,-2.006705,-0.241059,-1.811139,-0.03147545,-0.03044828,0.987391,32.00662,11.45551,-26.27258,1008.051
0.094122410,-2.251639,-0.7251607,-1.688814,-0.029028,-0.03384651,0.9863948,32.00662,11.45551,-26.27258,1008.051
0.096599579,-2.496573,-1.027724,-1.627652,-0.0294663,-0.03772567,0.9941002,32.00662,11.45551,-26.27258,1008.051
0.099076271,-2.680273,-1.572338,-1.260677,-0.03432033,-0.03969971,0.9936339,32.00662,11.45551,-26.27258,1008.051
0.101553440,-2.680273,-1.874902,-1.016027,-0.03382968,-0.04311621,0.9892696,32.00662,11.45551,-26.27258,1008.051
0.104030132,-2.61904,-2.177466,-0.7713773,-0.0319002,-0.04262859,0.9854001,32.00662,11.45551,-26.27258,1008.051
0.106506825,-2.312872,-2.359004,-0.465565,-0.03240617,-0.03971191,0.9844525,32.00662,11.45551,-26.27258,1008.051
0.108983994,-1.761771,-2.116953,-0.2820776,-0.02900188,-0.04116092,0.982013,32.00662,11.45551,-26.27258,1008.051
0.111460686,-1.333137,-2.480029,0.02373465,-0.03192201,-0.0387332,0.9854202,32.37319,11.7735,-25.83602,1008.051
0.113938332,-1.39437,-2.661567,0.02373465,-0.03438585,-0.03534669,0.9815897,32.37319,11.7735,-25.83602,1008.051
0.116415024,-1.333137,-2.782593,0.02373465,-0.03535197,-0.03681367,0.9811048,32.37319,11.7735,-25.83602,1008.051
0.118891239,-1.39437,-3.206182,0.1460596,-0.03241213,-0.03629406,0.9883314,32.37319,11.7735,-25.83602,1008.046
0.121368885,-1.578071,-3.690283,0.02373465,-0.03094771,-0.03872699,0.9858977,32.37319,11.7735,-25.83602,1008.046
0.123845577,-1.700538,-4.174385,0.08489711,-0.03000175,-0.03336345,0.9868854,32.37319,11.7735,-25.83602,1008.046
0.126322746,-1.823005,-4.29541,0.207222,-0.02604786,-0.04258667,0.9901951,32.37319,11.7735,-25.83602,1008.046
0.128799439,-2.129172,-4.597974,0.3295469,-0.0274932,-0.04356221,0.9926113,32.37319,11.7735,-25.83602,1008.046
0.131276131,-2.251639,-4.900537,0.5741968,-0.02405456,-0.04938652,0.9930452,32.37319,11.7735,-25.83602,1008.046
0.133753300,-2.312872,-5.203101,1.063496,-0.02646819,-0.05085285,0.9959471,32.37319,11.7735,-25.83602,1008.046
0.136229992,-2.557806,-5.566177,1.369309,-0.02695177,-0.04987565,0.9983681,32.37319,11.7735,-25.83602,1008.046
0.138707161,-2.557806,-5.62669,1.797446,-0.02155903,-0.05372813,1.004594,32.37319,11.7735,-25.83602,1008.046
0.141183853,-2.680273,-5.62669,2.40907,-0.0220764,-0.04641975,1.00753,32.37319,11.7735,-25.83602,1008.046
0.143660545,-3.108907,-5.324126,2.531395,-0.02109984,-0.04152321,1.016721,32.37319,11.7735,-25.83602,1008.046
0.146137714,-3.537542,-5.021563,2.837208,-0.02303915,-0.04201786,1.017694,32.37319,11.7735,-25.83602,1008.046
0.148614407,-3.598775,-4.597974,3.020695,-0.02939686,-0.03572056,1.017761,32.37319,11.7735,-25.83602,1008.046
0.151091576,-3.966176,-4.416436,2.89837,-0.02846893,-0.0303699,1.01344,32.37319,11.7735,-25.83602,1008.046
0.153568268,-3.782475,-4.113872,2.837208,-0.03285298,-0.02941988,1.012986,32.37319,11.7735,-25.83602,1008.046
0.156045914,-3.598775,-3.690283,2.89837,-0.03966102,-0.02749921,1.016412,32.37319,11.7735,-25.83602,1008.046
0.160998821,-2.80274,-2.843105,2.164421,-0.03389488,-0.01823033,1.011118,32.37319,11.7735,-25.83602,1008.047
0.163476467,-2.435339,-2.72208,1.919771,-0.03589422,-0.01241254,1.004884,31.63691,11.45995,-25.82784,1008.047
0.165953159,-2.006705,-2.419516,1.491634,-0.04170506,-0.01486916,1.008282,31.63691,11.45995,-25.82784,1008.047
0.168430328,-1.455604,-1.935415,0.8800091,-0.03732866,-0.01533578,1.00729,31.63691,11.45995,-25.82784,1008.047
0.170907021,-1.271903,-1.572338,0.3907094,-0.03635052,-0.01483796,1.009701,31.63691,11.45995,-25.82784,1008.047
0.173383713,-1.088203,-1.14875,-0.1597527,-0.03101074,-0.0148173,1.006776,31.63691,11.45995,-25.82784,1008.047
0.175860882,-0.5983351,-0.9066988,-0.5267274,-0.03294735,-0.01726551,1.005326,31.63691,11.45995,-25.82784,1008.047
0.178337574,-0.2309344,-0.6646479,-0.7713773,-0.03728782,-0.02557291,1.002411,31.63691,11.45995,-25.82784,1008.047
0.180814743,0.2589334,-0.6041352,-1.016027,-0.02705308,-0.02794882,1.004756,31.63691,11.45995,-25.82784,1008.047
0.183291435,0.3814003,-0.3620844,-1.138352,-0.0328989,-0.02945269,0.9994709,31.63691,11.45995,-25.82784,1008.047
0.185768127,0.5651007,-0.4831098,-1.016027,-0.0328574,-0.03186739,1.007664,31.63691,11.45995,-25.82784,1008.047
0.188245297,0.4426338,-0.5436226,-0.9548646,-0.02992471,-0.03477501,1.00715,31.63691,11.45995,-25.82784,1008.047
0.190721989,0.1976999,-0.846186,-1.07719,-0.02948316,-0.03236013,0.9979892,31.63691,11.45995,-25.82784,1008.047
0.193199635,0.0139995,-1.209262,-0.8325397,-0.03431101,-0.03724869,1.000404,31.63691,11.45995,-25.82784,1008.047
0.195675850,-0.3534013,-1.874902,-0.7102148,-0.03433498,-0.0323771,1.001394,31.63691,11.45995,-25.82784,1008.047
0.198152542,-1.21067,-2.237978,-0.5267274,-0.03382086,-0.03822119,0.9999136,31.63691,11.45995,-25.82784,1008.048
0.200630188,-1.700538,-2.540542,-0.2209152,-0.0367388,-0.03530303,1.004771,31.63691,11.45995,-25.82784,1008.048
0.203106880,-1.761771,-2.843105,-0.1597527,-0.03335133,-0.02845323,1.011063,31.63691,11.45995,-25.82784,1008.048
0.205584049,-2.190405,-3.145669,-0.03742781,-0.03238518,-0.02551962,1.013969,31.63691,11.45995,-25.82784,1008.048
0.208060741,-2.435339,-2.903618,-0.2820776,-0.03188626,-0.02453036,1.01928,31.63691,11.45995,-25.82784,1008.048
0.210537911,-2.435339,-2.903618,-0.09859026,-0.02658412,-0.02013676,1.012516,31.63691,11.45995,-25.82784,1008.048
0.213014603,-2.006705,-2.540542,-0.1597527,-0.02605798,-0.02548338,1.015382,31.63537,11.44432,-26.65121,1008.048
0.215491295,-1.578071,-2.05644,-0.4044026,-0.02702844,-0.02499798,1.016838,31.63537,11.44432,-26.65121,1008.048
0.217968464,-1.088203,-1.3908,-0.5878899,-0.0251055,-0.02304841,1.013459,31.63537,11.44432,-26.65121,1008.048
0.220445156,-0.4758682,-0.9672114,-1.016027,-0.02996171,-0.02404626,1.013963,31.63537,11.44432,-26.65121,1008.048
0.222922325,0.0139995,-0.4831098,-1.383002,-0.02511209,-0.02451973,1.009107,31.63537,11.44432,-26.65121,1008.048
0.225399017,0.4426338,-0.1805463,-1.566489,-0.02558322,-0.0313556,1.002317,31.63537,11.44432,-26.65121,1008.048
0.227875710,0.8712681,0.1825299,-1.749977,-0.02995527,-0.03137474,1.003789,31.63537,11.44432,-26.65121,1008.048
0.230352879,1.177435,0.364068,-1.811139,-0.02896736,-0.03526979,1.001833,31.63537,11.44432,-26.65121,1008.048
0.232829571,1.422369,0.0615045,-1.811139,-0.02656902,-0.03283664,0.9960402,31.63537,11.44432,-26.65121,1008.048
0.235307217,1.238669,-0.1805463,-1.749977,-0.02896577,-0.03820188,0.9974738,31.63537,11.44432,-26.65121,1008.048
0.237783432,0.9325016,-0.3620844,-1.627652,-0.03140947,-0.04017857,0.9907194,31.63537,11.44432,-26.65121,1008.048
0.240260124,0.5038673,-0.6646479,-1.383002,-0.02948385,-0.04164919,0.9824958,31.63537,11.44432,-26.65121,1008.048
0.242737770,0.2589334,-1.209262,-1.016027,-0.0314106,-0.04262373,0.9863628,31.63537,11.44432,-26.65121,1008.048
0.245214462,-0.1084674,-1.3908,-0.9548646,-0.02893203,-0.04746634,0.9921165,31.63537,11.44432,-26.65121,1008.048
0.247691631,-0.5983351,-1.874902,-0.7713773,-0.02502666,-0.04890228,0.9940186,31.63537,11.44432,-26.65121,1008.048
0.250168324,-1.088203,-2.116953,-0.5267274,-0.02700964,-0.04600604,0.9877694,31.63537,11.44432,-26.65121,1008.048
0.252645493,-1.578071,-2.480029,-0.1597527,-0.02797299,-0.04502667,0.9921238,31.63537,11.44432,-26.65121,1008.048
0.255122185,-1.945472,-2.843105,-0.09859026,-0.02845877,-0.04453992,0.9930943,31.63537,11.44432,-26.65121,1008.048
0.257598877,-2.435339,-3.085156,0.207222,-0.02604024,-0.04453671,0.9892197,31.63537,11.44432,-26.65121,1008.048
0.260076046,-2.435339,-3.024643,0.207222,-0.02751611,-0.04064535,0.9906957,31.63537,11.44432,-26.65121,1008.048
0.262552738,-1.945472,-3.085156,0.1460596,-0.02751715,-0.03722399,0.9960228,31.62554,12.12381,-26.28308,1008.048
0.265029907,-1.823005,-2.843105,0.08489711,-0.02123249,-0.0313517,0.9945705,31.62554,12.12381,-26.28308,1008.048
0.267506599,-1.578071,-2.782593,0.02373465,-0.02025823,-0.03427876,0.9902061,31.62554,12.12381,-26.28308,1008.048
0.269983292,-1.088203,-2.237978,-0.2820776,-0.0212063,-0.03426621,0.9974515,31.62554,12.12381,-26.28308,1008.048
0.272460461,-0.4758682,-1.814389,-0.465565,-0.02510786,-0.03380528,0.9950618,31.62554,12.12381,-26.28308,1008.048
0.274937153,0.0139995,-1.632851,-0.7713773,-0.03047166,-0.03188761,0.9941357,31.62554,12.12381,-26.28308,1008.048
0.277414799,0.1976999,-1.209262,-0.9548646,-0.02704606,-0.0333214,0.9979709,31.62554,12.12381,-26.28308,1008.048
0.279891014,0.2589334,-1.269775,-1.07719,-0.02556306,-0.03525217,1.001814,31.62554,12.12381,-26.28308,1008.051
0.282367706,0.1976999,-1.209262,-1.260677,-0.02798653,-0.03672552,1.00182,31.62554,12.12381,-26.28308,1008.051
0.284845352,-0.2921678,-1.330288,-1.321839,-0.03232095,-0.04258424,1.00471,31.62554,12.12381,-26.28308,1008.051
0.287322044,-0.8432691,-1.3908,-1.260677,-0.02793096,-0.04841875,0.9988635,31.62554,12.12381,-26.28308,1008.051
0.289799213,-1.271903,-1.572338,-1.016027,-0.0298473,-0.04743036,1.009015,31.62554,12.12381,-26.28308,1008.051
0.292275906,-1.516837,-1.3908,-1.07719,-0.02741838,-0.04693085,1.009005,31.62554,12.12381,-26.28308,1008.051
0.294753075,-1.39437,-1.269775,-0.8325397,-0.02644847,-0.04790552,1.006581,31.62554,12.12381,-26.28308,1008.051
0.297229767,-1.271903,-1.088237,-0.6490523,-0.02597577,-0.04546838,1.006591,31.62554,12.12381,-26.28308,1008.051
0.299706459,-0.965736,-0.7856733,-0.4044026,-0.02502435,-0.04107868,1.007574,31.62554,12.12381,-26.28308,1008.051
0.302183628,-0.5983351,-0.3015717,-0.2209152,-0.01773489,-0.04153371,1.005118,31.62554,12.12381,-26.28308,1008.051
0.304660320,-0.2921678,-0.05952091,-0.3432401,-0.02064628,-0.0400775,1.009485,31.62554,12.12381,-26.28308,1008.051
0.307137489,-0.1084674,0.2430426,-0.465565,-0.02257197,-0.04300677,1.010446,31.62554,12.12381,-26.28308,1008.051
0.309614182,-0.1084674,0.4850934,-0.5878899,-0.02454022,-0.04156661,1.00612,31.62554,12.12381,-26.28308,1008.051
0.312090874,-0.04723396,0.7876569,-0.9548646,-0.02457077,-0.03816634,1.002759,31.62554,12.12381,-26.28308,1008.051
0.314568043,0.07523298,0.9691951,-1.07719,-0.02845593,-0.03769369,1.005196,31.9969,12.13621,-25.84111,1008.051
0.317044735,-0.1084674,0.9086823,-1.138352,-0.02942535,-0.04062964,1.001325,31.9969,12.13621,-25.84111,1008.051
0.319522381,-0.04723396,0.7876569,-1.199515,-0.02895164,-0.0430805,0.9935872,31.9969,12.13621,-25.84111,1008.05
0.321999073,-0.2309344,0.6666315,-1.016027,-0.0284468,-0.04844236,0.9901782,31.9969,12.13621,-25.84111,1008.05
0.324475288,-0.4758682,0.7271442,-1.07719,-0.02940963,-0.04844036,0.9930794,31.9969,12.13621,-25.84111,1008.05
0.326952934,-0.4146348,0.4850934,-0.8937021,-0.03476798,-0.04749654,0.9921483,31.9969,12.13621,-25.84111,1008.05
0.329429627,-0.1084674,0.2430426,-0.7102148,-0.0352614,-0.04652638,0.9916734,31.9969,12.13621,-25.84111,1008.05
0.331906796,-0.2921678,-0.4225971,-0.5267274,-0.04063829,-0.04315145,0.9893067,31.9969,12.13621,-25.84111,1008.05
0.334383488,-0.5983351,-0.7251607,-0.4044026,-0.03919398,-0.03728792,0.9946383,31.9969,12.13621,-25.84111,1008.05
0.336860180,-1.02697,-1.14875,-0.465565,-0.03625531,-0.04214675,0.9926666,31.9969,12.13621,-25.84111,1008.05
0.339337349,-1.21067,-1.572338,-0.2209152,-0.03969723,-0.03632478,0.9912673,31.9969,12.13621,-25.84111,1008.05
0.341814041,-1.700538,-2.116953,-0.2209152,-0.03922231,-0.03193057,0.9951487,31.9969,12.13621,-25.84111,1008.05
0.344291210,-2.129172,-2.298491,-0.465565,-0.03775401,-0.03093863,0.9994898,31.9969,12.13621,-25.84111,1008.05
0.346767902,-2.129172,-2.419516,-0.8325397,-0.03677642,-0.02946345,1.003354,31.9969,12.13621,-25.84111,1008.05
0.349245071,-2.129172,-2.419516,-0.9548646,-0.04162996,-0.03534812,0.9965923,31.9969,12.13621,-25.84111,1008.05
0.351721764,-2.006705,-2.540542,-1.138352,-0.03045147,-0.03431755,0.9960538,31.9969,12.13621,-25.84111,1008.05
0.354198456,-1.761771,-2.480029,-1.321839,-0.02947658,-0.03088881,1.002341,31.9969,12.13621,-25.84111,1008.05
0.356675625,-1.578071,-2.298491,-1.566489,-0.03140554,-0.03382042,1.002336,31.9969,12.13621,-25.84111,1008.05
0.359152317,-1.088203,-2.05644,-1.688814,-0.0245713,-0.03718897,1.004212,31.9969,12.13621,-25.84111,1008.049
0.361629963,-0.5983351,-1.572338,-1.688814,-0.02360631,-0.03816716,1.000341,31.9969,12.13621,-25.84111,1008.049
0.364106655,-0.1084674,-1.3908,-1.749977,-0.02310308,-0.04059692,1.001291,31.32251,11.75379,-26.27544,1008.049
0.366582871,0.5038673,-1.14875,-1.933464,-0.02454516,-0.04303675,1.002252,31.32251,11.75379,-26.27544,1008.049
0.369060516,0.993735,-0.9672114,-2.116951,-0.02506262,-0.0415949,0.9955042,31.32251,11.75379,-26.27544,1008.049
0.371537209,1.116202,-0.846186,-1.872301,-0.0284287,-0.04402957,1.00275,31.32251,11.75379,-26.27544,1008.049
0.374014378,1.177435,-0.6646479,-1.811139,-0.02698332,-0.04012076,1.005176,31.32251,11.75379,-26.27544,1008.049
0.376491070,1.054968,-0.6041352,-1.566489,-0.02113432,-0.04448108,1.001743,31.32251,11.75379,-26.27544,1008.049
0.378967762,0.9325016,-0.9066988,-1.321839,-0.0235676,-0.04449483,1.001273,31.32251,11.75379,-26.27544,1008.049
0.381444931,0.8712681,-0.9672114,-1.199515,-0.02503255,-0.04108454,1.00516,31.32251,11.75379,-26.27544,1008.049
0.383921623,0.6875677,-1.330288,-0.9548646,-0.0235616,-0.04497942,1.002236,31.32251,11.75379,-26.27544,1008.049
0.386398792,0.3814003,-1.511826,-1.016027,-0.02357957,-0.04059241,1.004189,31.32251,11.75379,-26.27544,1008.049
0.388875484,0.1976999,-1.3908,-1.138352,-0.02696262,-0.04499469,1.00322,31.32251,11.75379,-26.27544,1008.049
0.391352653,-0.3534013,-1.3908,-1.016027,-0.02742877,-0.04742715,1.005141,31.32251,11.75379,-26.27544,1008.049
0.393829346,-0.6595686,-1.451313,-0.7713773,-0.02064138,-0.04154061,1.008513,31.32251,11.75379,-26.27544,1008.049
0.396306038,-1.02697,-1.693364,-0.5878899,-0.02404899,-0.0430272,1.005145,31.32251,11.75379,-26.27544,1008.049
0.398783684,-1.088203,-1.753877,-0.2820776,-0.02742487,-0.04253563,1.014337,31.32251,11.75379,-26.27544,1008.049
0.401259899,-1.39437,-1.572338,-0.09859026,-0.02158287,-0.04005675,1.02011,31.32251,11.75379,-26.27544,1008.049
0.403737545,-1.578071,-1.753877,0.02373465,-0.02840903,-0.0440155,1.008542,31.32251,11.75379,-26.27544,1008.049
0.406214237,-1.333137,-1.14875,0.1460596,-0.0279723,-0.03573762,1.007617,31.32251,11.75379,-26.27544,1008.049
0.408690929,-1.21067,-0.7251607,0.08489711,-0.0274996,-0.03330048,1.007627,31.32251,11.75379,-26.27544,1008.049
0.411168098,-0.4758682,-0.3015717,0.02373465,-0.02991324,-0.0347668,1.010529,31.32251,11.75379,-26.27544,1008.049
0.413644791,0.07523298,0.1825299,-0.03742781,-0.03090444,-0.03234073,1.009099,31.32251,11.75379,-26.27544,1008.049
0.416121960,0.5651007,0.6666315,-0.1597527,-0.03191034,-0.02699194,1.008166,31.32251,11.75379,-26.27544,1008.049
0.418598652,0.8712681,1.029708,-0.465565,-0.03779053,-0.02412051,1.000008,31.32251,11.75379,-26.27544,1008.049
0.421075821,1.054968,1.150733,-1.016027,-0.03582172,-0.0250714,1.005301,31.32251,11.75379,-26.27544,1008.049
0.423552513,0.993735,1.271759,-1.321839,-0.03975381,-0.01974357,1.001972,31.32251,11.75379,-26.27544,1008.049
0.428506374,0.7488011,0.4850934,-1.872301,-0.03828669,-0.02413006,0.9971143,31.32251,11.75379,-26.27544,1008.049
0.430983066,0.3814003,0.1220172,-2.300439,-0.04023967,-0.02512335,0.9932585,31.32251,11.75379,-26.27544,1008.049
0.433460235,0.2589334,-0.241059,-2.545089,-0.03241582,-0.02798588,1.000924,31.32251,11.75379,-26.27544,1008.049
0.435936928,-0.2309344,-0.3015717,-2.912063,-0.03237705,-0.02991365,1.009119,31.32251,11.75379,-26.27544,1008.049
0.438413620,-0.4758682,-0.5436226,-3.034388,-0.03044104,-0.03088799,1.00476,31.32251,11.75379,-26.27544,1008.05
0.440891266,-0.5371017,-0.6041352,-3.095551,-0.02555437,-0.03915694,0.9979328,31.32251,11.75379,-26.27544,1008.05
0.443367481,-0.5371017,-0.5436226,-3.156713,-0.01724696,-0.04446329,1.000756,31.32251,11.75379,-26.27544,1008.05
0.445845127,-0.5983351,-0.5436226,-2.789738,-0.0186541,-0.04932251,1.007979,31.32251,11.75379,-26.27544,1008.05
0.448321819,-0.4146348,-0.241059,-2.728576,-0.01962185,-0.04932403,1.009432,31.32251,11.75379,-26.27544,1008.05
0.450798511,0.0139995,0.1220172,-2.422764,-0.01381425,-0.04540311,1.00749,31.32251,11.75379,-26.27544,1008.05
0.453275680,0.07523298,0.1220172,-1.994627,-0.015794,-0.04543779,0.9973645,31.32251,11.75379,-26.27544,1008.05
0.455752373,0.07523298,0.1825299,-1.688814,-0.01672465,-0.05030153,1.001689,31.32251,11.75379,-26.27544,1008.05
0.458229542,0.2589334,0.3035553,-1.566489,-0.0157689,-0.04786421,1.000731,31.32251,11.75379,-26.27544,1008.05
0.460706234,0.2589334,0.1825299,-1.383002,-0.01671368,-0.04784932,1.008941,31.32251,11.75379,-26.27544,1008.05
0.463182926,0.2589334,0.0615045,-1.07719,-0.01773267,-0.03957664,1.008989,31.32251,11.75379,-26.27544,1008.05
0.465660095,-0.04723396,0.1825299,-0.9548646,-0.01967962,-0.03958788,1.008517,32.00112,11.75388,-26.658,1008.05
0.468136787,-0.4146348,0.1220172,-0.9548646,-0.017742,-0.04202767,1.002219,32.00112,11.75388,-26.658,1008.05
0.470613956,-0.7208021,0.0009917939,-0.8325397,-0.02311074,-0.04158015,0.9974244,32.00112,11.75388,-26.658,1008.05
0.473090649,-1.149436,-0.1805463,-0.9548646,-0.0255495,-0.04208669,0.994539,32.00112,11.75388,-26.658,1008.05
0.475567818,-1.39437,-0.241059,-0.8325397,-0.0216376,-0.04498458,0.9959508,32.00112,11.75388,-26.658,1008.05
0.478044510,-1.39437,-0.3620844,-0.3432401,-0.02456488,-0.04598408,0.9916176,32.00112,11.75388,-26.658,1008.045
0.480521202,-1.455604,-0.4831098,-0.2209152,-0.02409439,-0.04550401,0.987756,32.00112,11.75388,-26.658,1008.045
0.482998848,-1.516837,-0.6041352,-0.03742781,-0.02364132,-0.04014767,0.9868157,32.00112,11.75388,-26.658,1008.045
0.485475063,-1.333137,-0.9672114,0.08489711,-0.02662312,-0.03287531,0.9801118,32.00112,11.75388,-26.658,1008.045
0.487952709,-1.149436,-1.088237,0.02373465,-0.02417517,-0.03871753,0.9752417,32.00112,11.75388,-26.658,1008.045
0.490429401,-1.02697,-1.330288,-0.1597527,-0.02274018,-0.03530503,0.9738033,32.00112,11.75388,-26.658,1008.045
0.492906093,-1.088203,-1.572338,-0.2209152,-0.02463965,-0.03968218,0.9800659,32.00112,11.75388,-26.658,1008.045
0.505290985,-1.271903,-3.085156,-0.1597527,-0.02602269,-0.0406132,1.000824,32.00112,11.75388,-26.658,1008.045
0.507767677,-1.39437,-3.206182,0.02373465,-0.02550526,-0.04352168,1.00515,32.00112,11.75388,-26.658,1008.045
0.510244369,-1.39437,-3.085156,0.207222,-0.02404409,-0.04449032,1.004172,32.00112,11.75388,-26.658,1008.045
0.512721538,-1.39437,-3.085156,0.1460596,-0.02504562,-0.03816065,1.006141,32.00112,11.75388,-26.658,1008.045
0.515198231,-1.761771,-2.964131,0.1460596,-0.02844769,-0.03475457,1.012452,32.01237,11.08882,-26.2661,1008.045
0.517675877,-2.006705,-2.540542,0.3295469,-0.02698752,-0.02936858,1.021642,32.01237,11.08882,-26.2661,1008.044
0.520152092,-2.067938,-2.177466,0.1460596,-0.02794543,-0.02936307,1.025992,32.01237,11.08882,-26.2661,1008.044
0.522628784,-2.312872,-1.995928,-0.09859026,-0.0279727,-0.02596045,1.023596,32.01237,11.08882,-26.2661,1008.044
0.525106430,-2.557806,-1.511826,-0.465565,-0.03037647,-0.02595312,1.031815,32.01237,11.08882,-26.2661,1008.044
0.527583122,-2.374106,-0.9672114,-0.8325397,-0.02650875,-0.02301612,1.029878,32.01237,11.08882,-26.2661,1008.044
0.530060291,-2.006705,-0.4831098,-1.321839,-0.02262086,-0.0239757,1.027438,32.01237,11.08882,-26.2661,1008.044
0.532536983,-1.639304,0.0615045,-1.566489,-0.01972584,-0.023977,1.020665,32.01237,11.08882,-26.2661,1008.044
0.535014152,-1.21067,0.4850934,-1.749977,-0.02455641,-0.02837863,1.023082,32.01237,11.08882,-26.2661,1008.044
0.537490845,-0.7820356,1.150733,-2.116951,-0.02116362,-0.03130249,1.014843,32.01237,11.08882,-26.2661,1008.044
0.539967537,-0.2921678,1.75586,-2.300439,-0.02305329,-0.03713924,1.021581,32.01237,11.08882,-26.2661,1008.044
0.542444706,0.1364664,2.360987,-2.361601,-0.02163852,-0.03423006,1.013382,32.01237,11.08882,-26.2661,1008.044
0.544921398,0.6875677,2.784576,-2.728576,-0.02114512,-0.03666686,1.011436,32.01237,11.08882,-26.2661,1008.044
0.547398567,0.8100346,2.905602,-2.728576,-0.02212,-0.03862896,1.00757,32.01237,11.08882,-26.2661,1008.044
0.549875259,0.8100346,2.905602,-2.850901,-0.0236167,-0.03866346,0.9964767,32.01237,11.08882,-26.2661,1008.044
0.552351951,0.7488011,2.724063,-2.483926,-0.02506481,-0.04208534,0.9940538,32.01237,11.08882,-26.2661,1008.044
0.554829121,0.6875677,2.4215,-2.361601,-0.0284342,-0.04598898,0.9979135,32.01237,11.08882,-26.2661,1008.044
0.557305813,0.2589334,1.937398,-2.361601,-0.02795882,-0.04697203,0.993079,32.01237,11.08882,-26.2661,1008.044
0.559783459,0.1364664,1.453297,-2.055789,-0.01927527,-0.03964395,0.984381,32.01237,11.08882,-26.2661,1008.045
0.562259674,-0.1084674,0.8481696,-1.749977,-0.02510693,-0.0445598,0.9776301,32.01237,11.08882,-26.2661,1008.045
0.564736366,-0.04723396,0.364068,-1.811139,-0.02072943,-0.04551452,0.9761533,32.01237,11.08882,-26.2661,1008.045
0.567214012,0.1364664,0.0009917939,-1.566489,-0.02073816,-0.04454301,0.975193,31.69305,11.75778,-26.27683,1008.045
0.569690704,0.2589334,-0.4225971,-1.260677,-0.01684481,-0.0450098,0.9751693,31.69305,11.75778,-26.27683,1008.045
0.572167873,0.4426338,-0.9066988,-1.321839,-0.01686173,-0.04404416,0.9717954,31.69305,11.75778,-26.27683,1008.045
0.574644565,0.5038673,-1.209262,-1.016027,-0.01542669,-0.03769838,0.975199,31.69305,11.75778,-26.27683,1008.045
0.577121735,0.07523298,-1.935415,-0.6490523,-0.02615044,-0.0319048,0.9777009,31.69305,11.75778,-26.27683,1008.045
0.579598427,-0.2921678,-2.540542,-1.260677,-0.03054597,-0.03096298,0.9738683,31.69305,11.75778,-26.27683,1008.045
0.582075119,-0.1697009,-3.569258,-1.994627,-0.02417947,-0.03383188,0.9820243,31.69305,11.75778,-26.27683,1008.045
0.584552288,0.0139995,-4.05336,-2.300439,-0.01434321,-0.0454361,0.9949431,31.69305,11.75778,-26.27683,1008.045
0.587028980,-0.4146348,-4.174385,-2.239276,-0.008430332,-0.05415062,1.003072,31.69305,11.75778,-26.27683,1008.045
0.589506149,-0.9045025,-4.113872,-1.933464,-0.004480254,-0.06239882,1.006869,31.69305,11.75778,-26.27683,1008.045
0.591982841,-1.21067,-3.932334,-1.321839,-0.005916288,-0.06238997,1.013634,31.69305,11.75778,-26.27683,1008.045
0.594459534,-1.02697,-3.750796,-0.8937021,-0.005927234,-0.06337554,1.008803,31.69305,11.75778,-26.27683,1008.045
0.596936703,-0.965736,-3.569258,-0.4044026,-0.003994987,-0.06044158,1.009772,31.69305,11.75778,-26.27683,1008.045
0.599413395,-0.5983351,-3.085156,0.207222,0.002818011,-0.05942546,1.012636,31.69305,11.75778,-26.27683,1008.046
0.601891041,-0.4758682,-2.72208,0.5741968,0.004284112,-0.05892396,1.015527,31.69305,11.75778,-26.27683,1008.046
0.604367733,-0.2921678,-2.116953,0.7576842,0.002791823,-0.05651094,1.009755,31.69305,11.75778,-26.27683,1008.046
0.606843948,-0.1084674,-1.511826,0.6965217,0.0008143364,-0.05165529,1.008343,31.69305,11.75778,-26.27683,1008.046
0.609321594,0.1976999,-1.088237,0.8800091,-0.005546142,-0.04780433,1.003571,31.69305,11.75778,-26.27683,1008.046
0.611798286,0.1976999,-0.6041352,1.002334,-0.003577893,-0.04924449,1.007897,31.69305,11.75778,-26.27683,1008.046
0.614275455,0.0139995,-0.3620844,1.124659,-0.004554384,-0.04974113,1.005969,31.69305,11.75778,-26.27683,1008.046
0.616752148,-0.3534013,-0.241059,1.124659,-0.009462411,-0.04442067,1.001679,31.99607,12.12779,-26.28446,1008.046
0.619229317,-0.2921678,-0.241059,1.185821,-0.009447723,-0.04881003,0.9987603,31.99607,12.12779,-26.28446,1008.046
0.621706009,-0.2921678,-0.241059,1.369309,-0.01820542,-0.04494704,1.004138,31.99607,12.12779,-26.28446,1008.046
0.624182701,-0.4146348,-0.3620844,1.430471,-0.02013658,-0.04836911,1.002683,31.99607,12.12779,-26.28446,1008.046
0.626659870,-0.7208021,-0.3620844,1.613959,-0.01917812,-0.04788534,0.9993011,31.99607,12.12779,-26.28446,1008.046
0.629136562,-0.9045025,0.0009917939,1.613959,-0.02214083,-0.04255482,0.9950007,31.99607,12.12779,-26.28446,1008.046
0.631613731,-0.8432691,0.1220172,1.736283,-0.03139416,-0.03967875,0.9960314,31.99607,12.12779,-26.28446,1008.046
0.634090423,-0.7820356,-0.1200336,1.552796,-0.03088984,-0.04259661,0.9964963,31.99607,12.12779,-26.28446,1008.046
0.636567116,-0.9045025,-0.241059,1.552796,-0.03141815,-0.0362738,0.994601,31.99607,12.12779,-26.28446,1008.046
0.639044285,-0.7208021,-0.1805463,1.552796,-0.03336513,-0.03775167,0.991708,31.99607,12.12779,-26.28446,1008.046
0.641520977,-0.4758682,0.1220172,1.430471,-0.03335147,-0.03725303,0.9965372,31.99607,12.12779,-26.28446,1008.046
0.643998623,-0.3534013,0.0009917939,1.124659,-0.04409592,-0.02805214,0.9985741,31.99607,12.12779,-26.28446,1008.046
0.646475315,-0.4146348,-0.05952091,0.8188466,-0.04166534,-0.02608483,1.001467,31.99607,12.12779,-26.28446,1008.046
0.648952484,-0.6595686,-0.241059,0.4518718,-0.03971896,-0.02802949,0.9985502,31.99607,12.12779,-26.28446,1008.046
0.651429176,-1.02697,-0.6041352,0.08489711,-0.04069379,-0.02705833,0.9995258,31.99607,12.12779,-26.28446,1008.046
0.653905868,-1.271903,-0.6041352,-0.4044026,-0.03633214,-0.0275355,0.9941902,31.99607,12.12779,-26.28446,1008.046
0.656383037,-1.088203,-0.5436226,-0.7102148,-0.03726062,-0.03337542,0.9975439,31.99607,12.12779,-26.28446,1008.046
0.658859730,-1.02697,-0.4831098,-1.016027,-0.03672409,-0.03822574,1.004274,31.99607,12.12779,-26.28446,1008.046
0.661336899,-0.7820356,-0.1805463,-1.07719,-0.029933,-0.04064739,0.9950531,31.99607,12.12779,-26.28446,1008.046
0.663813591,-0.2921678,0.0615045,-1.260677,-0.02893529,-0.04600205,0.9935721,31.99607,12.12779,-26.28446,1008.046
0.666290283,0.2589334,0.5456061,-1.199515,-0.02797789,-0.04356356,0.9930966,31.69234,11.75056,-26.65685,1008.046
0.668767452,0.8100346,0.7271442,-1.07719,-0.02555444,-0.04355683,0.99067,31.69234,11.75056,-26.65685,1008.046
0.671244144,1.054968,0.9086823,-1.199515,-0.02165238,-0.04646176,0.9891858,31.69234,11.75056,-26.65685,1008.046
0.673721313,1.299902,0.7271442,-1.260677,-0.02606696,-0.04064484,0.9877918,31.69234,11.75056,-26.65685,1008.046
0.676198006,1.177435,0.4850934,-1.260677,-0.03097226,-0.03581131,0.9834994,31.69234,11.75056,-26.65685,1008.046
0.678675651,0.7488011,0.0615045,-1.07719,-0.0299691,-0.04213981,0.9820133,31.69234,11.75056,-26.65685,1008.043
0.681151867,0.2589334,-0.7251607,-1.138352,-0.02846863,-0.04601359,0.9877774,31.69234,11.75056,-26.65685,1008.043
0.683628559,-0.4758682,-1.451313,-1.138352,-0.02653588,-0.04552363,0.9848731,31.69234,11.75056,-26.65685,1008.043
0.686106205,-1.149436,-1.935415,-0.8325397,-0.02699006,-0.05185851,0.9838777,31.69234,11.75056,-26.65685,1008.043
0.688582897,-1.639304,-2.480029,-0.5267274,-0.02013773,-0.0522809,0.9959051,31.69234,11.75056,-26.65685,1008.043
0.691060066,-1.761771,-2.782593,-0.3432401,-0.02159182,-0.05375157,0.9949401,31.69234,11.75056,-26.65685,1008.043
0.696013451,-1.945472,-3.569258,0.4518718,-0.01624763,-0.0512834,0.997337,31.69234,11.75056,-26.65685,1008.043
0.698490620,-1.884238,-3.750796,0.6353592,-0.02015461,-0.048382,0.9973732,31.69234,11.75056,-26.65685,1008.043
0.700967312,-1.761771,-3.569258,0.7576842,-0.02016332,-0.04594386,0.9988337,31.69234,11.75056,-26.65685,1008.043
0.703444481,-1.455604,-3.508745,0.8188466,-0.02210644,-0.04546348,1.000295,31.69234,11.75056,-26.65685,1008.043
0.705921650,-1.149436,-3.327207,1.002334,-0.02018129,-0.04155685,1.000787,31.69234,11.75056,-26.65685,1008.043
0.708397865,-0.965736,-3.085156,0.8188466,-0.01581088,-0.04153888,0.9988325,31.69234,11.75056,-26.65685,1008.043
0.710875034,-0.5983351,-2.782593,0.8188466,-0.01773978,-0.0400706,1.006091,31.69234,11.75056,-26.65685,1008.043
0.713351726,-0.2921678,-2.359004,0.6965217,-0.0201714,-0.03861655,1.008525,31.69234,11.75056,-26.65685,1008.043
0.715828896,-0.04723396,-1.995928,0.5130343,-0.02164074,-0.03618713,1.009511,31.69234,11.75056,-26.65685,1008.043
0.718305588,-0.2309344,-1.995928,0.5741968,-0.02602699,-0.03572755,1.007607,31.31605,12.11327,-26.66194,1008.044
0.720783234,-0.4146348,-1.511826,0.3907094,-0.02892319,-0.04110468,1.005181,31.31605,12.11327,-26.66194,1008.044
0.723259926,-0.5983351,-1.330288,0.08489711,-0.02987557,-0.03767312,1.016789,31.31605,12.11327,-26.66194,1008.044
0.725736141,-0.965736,-0.9066988,0.1460596,-0.02745651,-0.03864727,1.011461,31.31605,12.11327,-26.66194,1008.044
0.728213787,-1.088203,-0.6041352,0.1460596,-0.02844882,-0.03719974,1.008095,31.31605,12.11327,-26.66194,1008.044
0.730690479,-1.088203,-0.6646479,-0.1597527,-0.02697184,-0.04011256,1.008555,31.31605,12.11327,-26.66194,1008.044
0.733167648,-1.02697,-0.4225971,-0.1597527,-0.02893078,-0.03768801,1.008578,31.31605,12.11327,-26.66194,1008.044
0.735644340,-0.7208021,0.0009917939,-0.2209152,-0.0318542,-0.03672925,1.008599,31.31605,12.11327,-26.66194,1008.044
0.738121033,-0.2921678,0.1220172,-0.5878899,-0.0269974,-0.03230888,1.013904,31.31605,12.11327,-26.66194,1008.044
0.740598202,-0.1697009,0.4245807,-0.9548646,-0.03092243,-0.02942035,1.008631,31.31605,12.11327,-26.66194,1008.044
0.743074894,-0.2309344,0.6061188,-1.260677,-0.02847383,-0.02890678,1.014413,31.31605,12.11327,-26.66194,1008.044
0.745552063,-0.6595686,0.7271442,-1.566489,-0.02799895,-0.02744584,1.013452,31.31605,12.11327,-26.66194,1008.044
0.748028755,-0.9045025,0.9086823,-1.994627,-0.03137656,-0.03282197,1.012478,31.31605,12.11327,-26.66194,1008.044
0.750505924,-0.965736,1.029708,-2.300439,-0.02065496,-0.03617272,1.013367,31.31605,12.11327,-26.66194,1008.044
0.752982616,-0.9045025,1.029708,-2.361601,-0.01723535,-0.03565529,1.018661,31.31605,12.11327,-26.66194,1008.044
0.755459309,-0.965736,0.9691951,-2.483926,-0.02209432,-0.03909948,1.014325,31.31605,12.11327,-26.66194,1008.044
0.757936478,-0.7820356,1.332271,-2.483926,-0.01478693,-0.04687478,1.005074,31.31605,12.11327,-26.66194,1008.044
0.760413170,-0.7208021,1.876886,-2.545089,-0.01428148,-0.04734747,1.009896,31.31605,12.11327,-26.66194,1008.044
0.762890816,-0.5983351,2.058424,-2.239276,-0.00941112,-0.04976162,1.007926,31.31605,12.11327,-26.66194,1008.044
0.765367508,-0.2921678,2.058424,-2.055789,-0.01037015,-0.05220127,1.007919,31.31605,12.11327,-26.66194,1008.044
0.767843723,-0.1697009,2.179449,-1.994627,-0.00744839,-0.05462782,1.004994,32.00591,11.4483,-26.6526,1008.044
0.770321369,-0.2309344,2.482013,-1.627652,-0.006943563,-0.05998967,1.001585,32.00591,11.4483,-26.6526,1008.044
0.772798061,-0.04723396,2.724063,-1.566489,-0.003568124,-0.05363735,1.00353,32.00591,11.4483,-26.6526,1008.044
0.775275230,-0.1084674,2.542525,-1.444164,-0.009420495,-0.0551459,0.9963143,32.00591,11.4483,-26.6526,1008.044
0.777751923,-0.1084674,2.784576,-1.199515,-0.01231445,-0.05709933,1.000182,32.00591,11.4483,-26.6526,1008.044
0.780229092,0.0139995,2.663551,-0.8937021,-0.01328984,-0.05661744,1.000189,32.00591,11.4483,-26.6526,1008.044
0.782705784,-0.2921678,2.482013,-0.8325397,-0.01719468,-0.05615885,0.9968343,32.00591,11.4483,-26.6526,1008.044
0.785182476,-0.4758682,2.360987,-0.5878899,-0.01625536,-0.05666652,0.9862077,32.00591,11.4483,-26.6526,1008.044
0.787659645,-0.6595686,2.179449,-0.465565,-0.01481434,-0.05227197,0.988153,32.00591,11.4483,-26.6526,1008.044
0.790136337,-0.6595686,2.058424,-0.2820776,-0.02308905,-0.05280871,0.9852996,32.00591,11.4483,-26.6526,1008.044
0.792613506,-0.6595686,1.695347,-0.09859026,-0.02117431,-0.050865,0.979507,32.00591,11.4483,-26.6526,1008.044
0.795090198,-0.7820356,1.211246,0.02373465,-0.01726345,-0.05034154,0.9862457,32.00591,11.4483,-26.6526,1008.044
0.797566891,-0.8432691,0.8481696,0.1460596,-0.02169006,-0.04502208,0.9805051,32.00591,11.4483,-26.6526,1008.048
0.800044537,-0.9045025,0.6666315,0.1460596,-0.0212054,-0.04648737,0.9775989,32.00591,11.4483,-26.6526,1008.048
0.802520752,-1.02697,0.364068,0.02373465,-0.02067655,-0.05378755,0.9780411,32.00591,11.4483,-26.6526,1008.048
0.804998398,-0.965736,0.0615045,-0.03742781,-0.01972459,-0.04890858,0.9799917,32.00591,11.4483,-26.6526,1008.048
0.807475090,-0.8432691,-0.4225971,0.1460596,-0.02118355,-0.0474495,0.9824206,32.00591,11.4483,-26.6526,1008.048
0.809951782,-1.02697,-0.9066988,0.2683845,-0.02313489,-0.04844162,0.9790474,32.00591,11.4483,-26.6526,1008.048
0.812428951,-1.088203,-1.088237,0.3295469,-0.02211637,-0.05133704,0.9877152,32.00591,11.4483,-26.6526,1008.048
0.814905643,-0.8432691,-1.209262,0.5741968,-0.01869676,-0.05081961,0.9930086,32.00591,11.4483,-26.6526,1008.048
0.817382812,-0.6595686,-1.572338,0.7576842,-0.02160709,-0.05131812,0.9944699,31.68588,12.11004,-27.04334,1008.048
0.819859505,-0.5371017,-1.572338,0.9411715,-0.02159559,-0.04984328,1.00027,31.68588,12.11004,-27.04334,1008.048
0.822336674,-0.7208021,-1.511826,0.8800091,-0.0211294,-0.04447756,1.003191,31.68588,12.11004,-27.04334,1008.048
0.824813366,-0.8432691,-1.572338,0.8800091,-0.0235359,-0.04398331,1.011412,31.68588,12.11004,-27.04334,1008.048
0.827290058,-0.965736,-1.693364,1.246984,-0.02354135,-0.04300946,1.011417,31.68588,12.11004,-27.04334,1008.048
0.829767227,-1.39437,-1.451313,1.002334,-0.0259905,-0.04401229,1.004668,31.68588,12.11004,-27.04334,1008.048
0.832243919,-1.516837,-1.209262,0.9411715,-0.02453855,-0.0400988,1.009024,31.68588,12.11004,-27.04334,1008.048
0.834721088,-1.578071,-1.3908,1.063496,-0.03180026,-0.04695701,1.007581,31.68588,12.11004,-27.04334,1008.048
0.837197781,-1.39437,-1.14875,1.124659,-0.03034615,-0.04401971,1.010966,31.68588,12.11004,-27.04334,1008.048
0.839674473,-1.088203,-0.846186,1.063496,-0.02552761,-0.04011555,1.004202,31.68588,12.11004,-27.04334,1008.048
0.842152119,-0.7820356,-0.7251607,1.185821,-0.03136354,-0.03867912,1.006655,31.68588,12.11004,-27.04334,1008.048
0.844628334,-0.6595686,-0.6041352,1.063496,-0.02895859,-0.03330803,1.007635,31.68588,12.11004,-27.04334,1008.048
0.847105980,-0.965736,-0.3015717,0.8188466,-0.02946565,-0.03136988,1.004752,31.68588,12.11004,-27.04334,1008.048
0.849582672,-0.7820356,-0.1200336,0.5130343,-0.03041975,-0.03233939,1.008613,31.68588,12.11004,-27.04334,1008.048
0.852059841,-0.8432691,-0.1805463,0.3295469,-0.02995958,-0.02795572,1.008151,31.68588,12.11004,-27.04334,1008.048
0.854536533,-1.02697,-0.05952091,0.08489711,-0.02942139,-0.03133824,1.017784,31.68588,12.11004,-27.04334,1008.048
0.857013226,-1.271903,0.2430426,-0.09859026,-0.03574752,-0.0333292,1.013464,31.68588,12.11004,-27.04334,1008.048
0.859490395,-1.333137,0.4245807,-0.09859026,-0.03041157,-0.03380016,1.008606,31.68588,12.11004,-27.04334,1008.048
0.861967087,-1.088203,0.364068,-0.4044026,-0.03286615,-0.03236252,1.004282,31.68588,12.11004,-27.04334,1008.048
0.864444256,-1.02697,0.4850934,-0.465565,-0.03139737,-0.0352812,1.002329,31.68588,12.11004,-27.04334,1008.048
0.866920948,-0.965736,0.4850934,-0.4044026,-0.03381428,-0.03674987,1.004265,31.68588,12.11004,-27.04334,1008.048
0.869398117,-0.5983351,0.4850934,-0.5878899,-0.03087719,-0.03720997,1.009073,30.95676,11.44423,-26.26865,1008.048
0.871874809,-0.4146348,0.6061188,-0.6490523,-0.02749581,-0.03574213,1.004718,30.95676,11.44423,-26.26865,1008.048
0.874351501,-0.1697009,0.7876569,-0.7713773,-0.02607989,-0.02892115,1.003298,30.95676,11.44423,-26.26865,1008.048
0.876829147,-0.1697009,0.9691951,-1.016027,-0.02605863,-0.03183918,1.004731,30.95676,11.44423,-26.26865,1008.048
0.879305363,-0.1084674,1.029708,-1.383002,-0.0241079,-0.03573623,0.9998732,30.95676,11.44423,-26.26865,1008.045
0.881783009,-0.1697009,1.150733,-1.566489,-0.02313196,-0.03572885,1.000833,30.95676,11.44423,-26.26865,1008.045
0.884259701,0.07523298,1.09022,-1.749977,-0.02314894,-0.03769647,0.9926177,30.95676,11.44423,-26.26865,1008.045
0.886735916,0.3201669,1.029708,-1.933464,-0.02458559,-0.04257678,0.9911525,30.95676,11.44423,-26.26865,1008.045
0.889213562,0.4426338,1.332271,-1.811139,-0.02262118,-0.04450855,0.9935452,30.95676,11.44423,-26.26865,1008.045
0.891690254,0.4426338,1.392784,-1.627652,-0.02259608,-0.04693497,0.9969113,30.95676,11.44423,-26.26865,1008.045
0.894167423,0.3201669,1.332271,-1.444164,-0.01721761,-0.05470863,0.9924979,30.95676,11.44423,-26.26865,1008.045
0.896644115,0.4426338,1.634835,-1.260677,-0.01578427,-0.05276392,0.9881558,30.95676,11.44423,-26.26865,1008.045
0.899121284,0.7488011,1.75586,-0.9548646,-0.01722359,-0.05275741,0.993956,30.95676,11.44423,-26.26865,1008.045
0.901597977,0.8712681,1.574322,-0.8937021,-0.01820174,-0.05472186,0.9891245,30.95676,11.44423,-26.26865,1008.045
0.904074669,0.9325016,1.634835,-0.6490523,-0.01725636,-0.05131422,0.9867234,30.95676,11.44423,-26.26865,1008.045
0.906551838,0.8100346,1.634835,-0.7713773,-0.02065082,-0.0513248,0.989638,30.95676,11.44423,-26.26865,1008.045
0.909028530,0.5651007,1.211246,-0.6490523,-0.01580169,-0.04788765,0.9910771,30.95676,11.44423,-26.26865,1008.045
0.911505699,0.4426338,0.8481696,-0.4044026,-0.01869895,-0.05131005,0.9915581,30.95676,11.44423,-26.26865,1008.045
0.913982391,-0.1697009,0.5456061,-0.3432401,-0.01969452,-0.04839822,0.9896477,30.95676,11.44423,-26.26865,1008.045
0.916459084,-0.5983351,0.2430426,-0.2209152,-0.02452781,-0.05231293,0.9920675,30.95676,11.44423,-26.26865,1008.045
0.918936729,-0.7820356,-0.05952091,-0.2820776,-0.02013396,-0.05618919,0.9905754,31.3273,11.44821,-26.27004,1008.046
0.921412945,-0.5983351,-0.241059,-0.03742781,-0.01820992,-0.05326109,0.989132,31.3273,11.44821,-26.27004,1008.046
0.923890591,-0.4146348,-0.3620844,0.3295469,-0.01819084,-0.05666956,0.9891144,31.3273,11.44821,-26.27004,1008.046
0.926367283,0.0139995,-0.1200336,0.6353592,-0.01868752,-0.05423511,0.990095,31.3273,11.44821,-26.27004,1008.046
0.928844452,0.3201669,-0.1805463,0.8188466,-0.01580716,-0.04838043,0.9886612,31.3273,11.44821,-26.27004,1008.046
0.931321144,0.6263342,-0.05952091,1.124659,-0.01825514,-0.04400484,0.9911104,31.3273,11.44821,-26.27004,1008.046
0.933797836,0.5038673,-0.1200336,1.124659,-0.02067801,-0.04205566,0.9969258,31.3273,11.44821,-26.27004,1008.046
0.936275005,0.1364664,-0.3015717,1.063496,-0.02459594,-0.04013982,0.9921304,31.3273,11.44821,-26.27004,1008.046
0.938751698,-0.1084674,-0.4831098,0.9411715,-0.02213806,-0.04010848,0.99984,31.3273,11.44821,-26.27004,1008.046
0.941228867,-0.6595686,-0.7856733,1.002334,-0.0201633,-0.04447722,1.001255,31.3273,11.44821,-26.27004,1008.046
0.943705559,-1.333137,-1.088237,0.9411715,-0.0187147,-0.04496597,0.9973829,31.3273,11.44821,-26.27004,1008.046
0.946182251,-1.823005,-1.269775,1.002334,-0.02695722,-0.0489018,0.9983732,31.3273,11.44821,-26.27004,1008.046
0.948659420,-2.006705,-1.209262,1.246984,-0.02159229,-0.04837431,1.003656,31.3273,11.44821,-26.27004,1008.046
0.951136112,-2.006705,-1.451313,1.491634,-0.02208245,-0.04886844,1.001725,31.3273,11.44821,-26.27004,1008.046
0.953613281,-1.578071,-1.330288,1.552796,-0.02115013,-0.0425369,1.000305,31.3273,11.44821,-26.27004,1008.046
0.956089973,-1.333137,-1.330288,1.736283,-0.02460134,-0.0362327,0.9969773,31.3273,11.44821,-26.27004,1008.046
0.958567619,-1.088203,-1.269775,1.858608,-0.01874082,-0.03765156,1.001765,31.3273,11.44821,-26.27004,1008.047
0.963520527,-1.088203,-1.330288,1.124659,-0.02949731,-0.02894814,0.9994549,31.3273,11.44821,-26.27004,1008.047
0.963520527,-1.088203,-1.330288,1.124659,-0.02949731,-0.02894814,0.9994549,31.3273,11.44821,-26.27004,1008.047
0.968474865,-0.8432691,-1.451313,0.7576842,-0.02949567,-0.02894697,0.9999376,31.99537,12.12057,-26.66448,1008.047
0.970952034,-1.02697,-1.3908,0.3907094,-0.02021995,-0.03229591,1.004696,31.99537,12.12057,-26.66448,1008.047
0.973428726,-1.149436,-1.209262,-0.03742781,-0.02258668,-0.04008405,1.010944,31.99537,12.12057,-26.66448,1008.047
0.975905418,-1.088203,-1.3908,-0.1597527,-0.02017193,-0.03763919,1.009978,31.99537,12.12057,-26.66448,1008.047
0.978382587,-1.02697,-1.269775,-0.3432401,-0.01675297,-0.04347755,1.00462,31.99537,12.12057,-26.66448,1008.047
0.980859280,-0.8432691,-1.027724,-0.2820776,-0.01381097,-0.04540077,1.008455,31.99537,12.12057,-26.66448,1008.047
0.983336449,-0.5983351,-0.7251607,-0.09859026,-0.01816177,-0.04980457,1.008939,31.99537,12.12057,-26.66448,1008.047
0.985813141,-0.2921678,-0.3015717,0.207222,-0.0137843,-0.05222592,1.005041,31.99537,12.12057,-26.66448,1008.047
0.988290310,0.2589334,-0.1200336,0.7576842,-0.01674537,-0.04689422,1.001224,31.99537,12.12057,-26.66448,1008.047
0.990767002,0.6263342,-0.05952091,0.8188466,-0.02407626,-0.03962459,1.002749,31.99537,12.12057,-26.66448,1008.047
0.993243694,1.054968,0.1825299,0.8800091,-0.02013644,-0.03956931,1.017208,31.99537,12.12057,-26.66448,1008.047
0.995721340,0.8712681,0.2430426,0.8188466,-0.02066148,-0.03324415,1.016278,31.99537,12.12057,-26.66448,1008.047
0.998197556,0.5651007,0.3035553,0.6965217,-0.01675285,-0.03614439,1.016725,31.99537,12.12057,-26.66448,1008.047
1.000675201,0.5651007,0.4245807,0.3907094,-0.02018007,-0.03324515,1.014827,31.99537,12.12057,-26.66448,1008.047
1.003151894,0.6263342,0.5456061,0.08489711,-0.02112326,-0.03616235,1.018679,31.99537,12.12057,-26.66448,1008.047
1.005628586,0.4426338,1.029708,-0.2209152,-0.02304733,-0.04055708,1.017702,31.99537,12.12057,-26.66448,1008.047
1.008105755,0.5038673,1.029708,-0.2820776,-0.02940674,-0.03866085,1.010023,31.99537,12.12057,-26.66448,1008.047
1.010582447,1.054968,1.211246,-0.465565,-0.02603738,-0.03622384,1.003743,31.99537,12.12057,-26.66448,1008.047
1.013059616,1.177435,1.332271,-0.6490523,-0.03086846,-0.03818148,1.010034,31.99537,12.12057,-26.66448,1008.047
1.015536308,1.544836,1.513809,-0.7102148,-0.03138316,-0.03575992,1.005705,31.99537,12.12057,-26.66448,1008.047
1.018013477,1.667303,1.271759,-0.8937021,-0.02799357,-0.03281958,1.006184,31.99537,12.12057,-26.66448,1008.047
1.020490170,1.483603,1.09022,-1.138352,-0.02847604,-0.03086386,1.010541,31.69234,11.75056,-26.65685,1008.047
1.022966862,1.299902,1.029708,-1.383002,-0.03091375,-0.03332512,1.00475,31.69234,11.75056,-26.65685,1008.047
1.025444031,0.993735,0.6666315,-1.383002,-0.02993238,-0.03575823,1.003284,31.69234,11.75056,-26.65685,1008.047
1.027920723,0.9325016,0.364068,-1.627652,-0.02550528,-0.04498831,1.002729,31.69234,11.75056,-26.65685,1008.047
1.030397892,0.5038673,-0.1805463,-1.811139,-0.02550583,-0.04547758,1.001762,31.69234,11.75056,-26.65685,1008.047
1.032874584,0.1364664,-0.7251607,-1.811139,-0.02062836,-0.04739777,1.00269,31.69234,11.75056,-26.65685,1008.047
1.035351276,-0.2921678,-1.209262,-1.749977,-0.01913773,-0.05127858,1.005558,31.69234,11.75056,-26.65685,1008.047
1.037828922,-0.6595686,-1.511826,-1.566489,-0.01623447,-0.04834077,1.00604,31.69234,11.75056,-26.65685,1008.046
1.040305138,-0.9045025,-1.814389,-1.444164,-0.02009843,-0.05518604,1.002647,31.69234,11.75056,-26.65685,1008.046
1.042782784,-0.8432691,-1.874902,-1.07719,-0.017181,-0.05566021,1.001664,31.69234,11.75056,-26.65685,1008.046
1.045259476,-0.6595686,-1.693364,-0.7102148,-0.01038165,-0.0536761,1.002119,31.69234,11.75056,-26.65685,1008.046
1.047736645,-0.6595686,-1.753877,-0.5267274,-0.01136958,-0.05124769,1.001655,31.69234,11.75056,-26.65685,1008.046
1.050213337,-0.3534013,-1.572338,-0.2820776,-0.009418256,-0.0517222,1.002607,31.69234,11.75056,-26.65685,1008.046
1.052690029,-0.1084674,-1.572338,-0.2209152,-0.01087447,-0.04928341,1.007454,31.69234,11.75056,-26.65685,1008.046
1.055167198,-0.1697009,-1.632851,-0.09859026,-0.01574153,-0.04540029,1.01281,31.69234,11.75056,-26.65685,1008.046
1.057643890,-0.4146348,-1.753877,-0.09859026,-0.01575412,-0.04638703,1.007496,31.69234,11.75056,-26.65685,1008.046
1.060121059,-0.8432691,-1.935415,-0.2209152,-0.01135094,-0.04781226,1.012774,31.69234,11.75056,-26.65685,1008.046
1.062597752,-1.02697,-1.814389,-0.2209152,-0.01136946,-0.04391452,1.013759,31.69234,11.75056,-26.65685,1008.046
1.065074444,-1.02697,-1.632851,-0.09859026,-0.01184602,-0.04830991,1.009395,31.69234,11.75056,-26.65685,1008.046
1.067551613,-0.5983351,-1.209262,0.08489711,-0.01279956,-0.04879015,1.014225,31.69234,11.75056,-26.65685,1008.046
1.070028305,-0.1084674,-1.027724,0.6353592,-0.01137445,-0.04831794,1.005048,31.69305,11.75778,-26.27683,1008.046
1.072505951,0.3814003,-0.7856733,0.6353592,-0.01577271,-0.04688919,1.001218,31.69305,11.75778,-26.27683,1008.046
1.074982166,0.5651007,-0.6041352,0.6965217,-0.01578737,-0.0410332,1.006558,31.69305,11.75778,-26.27683,1008.046
1.077459812,0.7488011,-0.4225971,0.5741968,-0.01435127,-0.03664216,1.007055,31.69305,11.75778,-26.27683,1008.048
1.079936504,0.9325016,-0.3620844,0.3907094,-0.01629938,-0.0405652,0.9998057,31.69305,11.75778,-26.27683,1008.048
1.082412720,0.6875677,-0.1805463,0.207222,-0.01967912,-0.04203188,1.004643,31.69305,11.75778,-26.27683,1008.048
1.084890366,0.5651007,-0.4225971,0.08489711,-0.02161898,-0.04301579,1.004649,31.69305,11.75778,-26.27683,1008.048
1.087367058,0.4426338,-0.5436226,-0.03742781,-0.02210206,-0.0444826,1.003196,31.69305,11.75778,-26.27683,1008.048
1.089844227,0.2589334,-0.9672114,-0.1597527,-0.02161192,-0.0454551,1.002706,31.69305,11.75778,-26.27683,1008.048
1.092320919,-0.2309344,-1.330288,-0.2209152,-0.01621809,-0.04979568,1.008446,31.69305,11.75778,-26.27683,1008.048
1.094797611,-0.4146348,-1.088237,-0.1597527,-0.02157483,-0.05031732,1.005577,31.69305,11.75778,-26.27683,1008.048
1.097274780,-0.4758682,-1.027724,-0.03742781,-0.02352453,-0.05130827,1.002686,31.69305,11.75778,-26.27683,1008.048
1.099751472,-0.4146348,-1.088237,0.02373465,-0.02303659,-0.05277121,1.000745,31.69305,11.75778,-26.27683,1008.048
1.102228642,-0.3534013,-1.088237,0.5130343,-0.02011697,-0.05275494,1.001212,31.69305,11.75778,-26.27683,1008.048
1.104705334,-0.1084674,-0.846186,0.5741968,-0.01915634,-0.05324737,0.99686,31.69305,11.75778,-26.27683,1008.048
1.107182503,-0.1084674,-0.7251607,0.3907094,-0.02254973,-0.05374606,0.9992895,31.69305,11.75778,-26.27683,1008.048
1.109659195,0.1364664,-0.6041352,0.5130343,-0.01914376,-0.05226063,1.002175,31.69305,11.75778,-26.27683,1008.048
1.112135887,0.0139995,-0.4831098,0.5741968,-0.02207592,-0.05033038,1.001235,31.69305,11.75778,-26.27683,1008.048
1.114613533,0.1364664,-0.1805463,0.3295469,-0.01916667,-0.04934377,1.000259,31.69305,11.75778,-26.27683,1008.048
1.117089748,-0.1084674,0.0009917939,0.2683845,-0.02501574,-0.04938335,0.9964293,31.69305,11.75778,-26.27683,1008.048
1.119567394,0.0139995,0.1220172,0.3295469,-0.02842226,-0.05135804,0.9925764,31.68729,12.12447,-26.28331,1008.049
1.122044086,0.3201669,0.2430426,0.3295469,-0.02454908,-0.04939489,0.9906345,31.68729,12.12447,-26.28331,1008.049
1.124520779,0.6263342,0.364068,0.5741968,-0.02263048,-0.04549295,0.9891961,31.68729,12.12447,-26.28331,1008.049
1.126997948,0.8100346,0.6061188,0.5130343,-0.02748121,-0.04599801,0.9921161,31.68729,12.12447,-26.28331,1008.049
1.129474640,0.993735,0.7271442,0.5741968,-0.03042427,-0.04212006,0.9911867,31.68729,12.12447,-26.28331,1008.049
1.131951809,0.993735,0.6061188,0.5130343,-0.03142312,-0.03921058,0.9883111,31.68729,12.12447,-26.28331,1008.049
1.134428501,0.9325016,0.364068,0.4518718,-0.03582899,-0.03583179,0.9854565,31.68729,12.12447,-26.28331,1008.049
1.136905670,0.9325016,0.3035553,0.207222,-0.03826886,-0.03731686,0.9806355,31.68729,12.12447,-26.28331,1008.049
1.139382362,0.6263342,0.1825299,-0.03742781,-0.03871044,-0.04119837,0.9873754,31.68729,12.12447,-26.28331,1008.049
1.141859055,0.1976999,-0.3015717,-0.03742781,-0.03968908,-0.03925219,0.9888388,31.68729,12.12447,-26.28331,1008.049
1.144336224,-0.1084674,-0.6041352,0.02373465,-0.03968143,-0.0397356,0.9902844,31.68729,12.12447,-26.28331,1008.049
1.146812916,-0.2921678,-0.846186,0.08489711,-0.03673889,-0.04116955,0.9950877,31.68729,12.12447,-26.28331,1008.049
1.149290085,-0.1697009,-0.846186,-0.1597527,-0.03675085,-0.03726713,0.9980038,31.68729,12.12447,-26.28331,1008.049
1.151766777,0.07523298,-0.7856733,-0.2209152,-0.03917266,-0.03727268,1.000913,31.68729,12.12447,-26.28331,1008.049
1.154244423,0.1976999,-0.6041352,-0.2820776,-0.03870982,-0.0363092,0.995606,31.68729,12.12447,-26.28331,1008.049
1.156721115,0.5038673,-0.4831098,-0.4044026,-0.0382169,-0.03483537,0.9999551,31.68729,12.12447,-26.28331,1008.049
1.159197331,0.7488011,-0.1805463,-0.5267274,-0.03873921,-0.02899713,0.9990225,31.68729,12.12447,-26.28331,1008.053
1.161674976,1.116202,-0.1805463,-1.016027,-0.03530763,-0.03238213,1.0014,31.68729,12.12447,-26.28331,1008.053
1.164151669,1.054968,-0.3620844,-1.199515,-0.03718471,-0.03723215,1.013452,31.68729,12.12447,-26.28331,1008.053
1.166628838,1.054968,-0.1805463,-1.383002,-0.03527648,-0.03235987,1.010571,31.68729,12.12447,-26.28331,1008.053
1.169105530,0.6263342,-0.05952091,-1.872301,-0.03768466,-0.03480004,1.013467,31.68729,12.12447,-26.28331,1008.053
1.171582222,0.3814003,-0.05952091,-1.933464,-0.03861529,-0.03819714,1.020212,31.69305,11.75778,-26.27683,1008.053
1.174059391,0.07523298,0.0009917939,-2.178114,-0.03665638,-0.04208833,1.017768,31.69305,11.75778,-26.27683,1008.053
1.176536083,-0.2309344,-0.1200336,-2.239276,-0.03469526,-0.04548908,1.016775,31.69305,11.75778,-26.27683,1008.053
1.179013252,-0.5371017,0.0615045,-2.422764,-0.03517282,-0.04352983,1.02258,31.69305,11.75778,-26.27683,1008.053
1.181489945,-0.7208021,0.4850934,-2.239276,-0.04146452,-0.04549619,1.028396,31.69305,11.75778,-26.27683,1008.053
1.183967114,-1.149436,0.3035553,-2.116951,-0.04194596,-0.04696182,1.027426,31.69305,11.75778,-26.27683,1008.053
1.186443806,-1.39437,0.5456061,-2.116951,-0.03512809,-0.04887546,1.026896,31.69305,11.75778,-26.27683,1008.053
1.188920498,-1.333137,0.8481696,-2.055789,-0.03375636,-0.03768622,1.019706,31.69305,11.75778,-26.27683,1008.053
1.191398144,-0.8432691,0.9086823,-2.055789,-0.03425637,-0.03818738,1.014879,31.69305,11.75778,-26.27683,1008.053
1.193874359,-0.2921678,1.392784,-2.239276,-0.03332733,-0.03185819,1.012493,31.69305,11.75778,-26.27683,1008.053
1.196352005,0.2589334,1.634835,-2.789738,-0.03334971,-0.02991869,1.009125,31.69305,11.75778,-26.27683,1008.053
1.198828697,0.6263342,1.695347,-3.462525,-0.03386548,-0.0255424,1.007702,31.69305,11.75778,-26.27683,1008.053
1.201305389,0.9325016,1.634835,-4.196475,-0.02803066,-0.02795737,1.003313,31.69305,11.75778,-26.27683,1008.053
1.203782558,0.9325016,1.634835,-4.624612,-0.02806451,-0.02602607,0.9965659,31.69305,11.75778,-26.27683,1008.053
1.206259251,1.054968,1.392784,-4.930424,-0.022656,-0.034756,0.9993876,31.69305,11.75778,-26.27683,1008.053
1.208736420,1.238669,1.332271,-5.236237,-0.01974463,-0.03767885,0.9925991,31.69305,11.75778,-26.27683,1008.053
1.211213112,1.361136,1.09022,-5.419724,-0.01439662,-0.0361857,0.9945082,31.69305,11.75778,-26.27683,1008.053
1.213690281,1.483603,0.7271442,-5.480886,-0.01092851,-0.04492218,0.9987884,31.69305,11.75778,-26.27683,1008.053
1.216166973,1.361136,0.364068,-5.480886,-0.01186791,-0.05028104,0.9997315,31.69305,11.75778,-26.27683,1008.053
1.218643665,1.238669,0.2430426,-5.480886,-0.003594357,-0.0536561,0.9958075,31.69305,11.75778,-26.27683,1008.053
1.221120834,0.9325016,-0.1200336,-5.113912,-0.001615762,-0.05753322,0.9991554,31.32251,11.75379,-26.27544,1008.053
1.223597527,0.5651007,-0.7251607,-4.624612,0.002333208,-0.06675996,1.001017,31.32251,11.75379,-26.27544,1008.053
1.226074696,-0.04723396,-1.027724,-4.07415,0.009169069,-0.07159398,1.000955,31.32251,11.75379,-26.27544,1008.053
1.228551388,-0.4758682,-1.330288,-3.707175,0.009173943,-0.07452373,0.997561,31.32251,11.75379,-26.27544,1008.053
1.233505726,-0.6595686,-1.874902,-2.361601,0.01263441,-0.08277678,1.000396,31.32251,11.75379,-26.27544,1008.053
1.235981941,-0.4758682,-2.116953,-1.566489,0.01505024,-0.08082002,0.9989446,31.32251,11.75379,-26.27544,1008.053
1.238459587,-0.5983351,-2.177466,-0.7102148,0.01991896,-0.08323535,0.9964921,31.32251,11.75379,-26.27544,1008.054
1.240936279,-0.6595686,-2.05644,0.1460596,0.01453285,-0.07497828,0.9994602,31.32251,11.75379,-26.27544,1008.054
1.243413448,-0.4758682,-2.05644,0.6965217,0.01358691,-0.07887518,1.000893,31.32251,11.75379,-26.27544,1008.054
1.245890141,-0.5983351,-2.177466,1.185821,0.007226477,-0.07209097,1.000963,31.32251,11.75379,-26.27544,1008.054
1.248366833,-0.4758682,-2.05644,1.552796,0.005718946,-0.06577787,0.9971423,31.32251,11.75379,-26.27544,1008.054
1.250844002,-0.4146348,-2.298491,1.919771,-0.00112837,-0.05948544,0.9962466,31.32251,11.75379,-26.27544,1008.054
1.253320694,-0.4758682,-2.359004,2.225583,-0.006992682,-0.05562493,0.9943678,31.32251,11.75379,-26.27544,1008.054
1.255797863,-0.6595686,-2.540542,2.470233,-0.01140184,-0.05224849,0.9905479,31.32251,11.75379,-26.27544,1008.054
1.258274555,-0.8432691,-2.964131,2.470233,-0.01481263,-0.0478709,0.9958986,31.32251,11.75379,-26.27544,1008.054
1.260751724,-1.149436,-3.266694,2.531395,-0.02215122,-0.04305112,0.9911367,31.32251,11.75379,-26.27544,1008.054
1.263228417,-1.455604,-3.448232,2.714883,-0.02261952,-0.04304075,0.9964488,31.32251,11.75379,-26.27544,1008.054
1.265705109,-1.333137,-3.629771,2.592558,-0.0256237,-0.03382889,0.9863762,31.32251,11.75379,-26.27544,1008.054
1.268182755,-1.21067,-3.932334,2.40907,-0.02854382,-0.03140117,0.9897835,31.32251,11.75379,-26.27544,1008.054
1.270658970,-1.333137,-4.113872,1.980933,-0.02414931,-0.027455,1.001364,31.32251,11.75379,-26.27544,1008.054
1.273136616,-1.700538,-4.174385,1.552796,-0.02996829,-0.02551758,1.009611,31.99454,12.11215,-27.10784,1008.054
1.275613308,-1.884238,-3.932334,1.185821,-0.02556948,-0.02645706,1.014409,31.99454,12.11215,-27.10784,1008.054
1.278090000,-1.945472,-3.629771,0.5741968,-0.02748309,-0.0259556,1.024559,31.99454,12.11215,-27.10784,1008.056
1.280567169,-2.129172,-3.38772,0.08489711,-0.02409028,-0.02741281,1.01874,31.99454,12.11215,-27.10784,1008.056
1.283043861,-2.067938,-2.843105,-0.2820776,-0.02208982,-0.03078544,1.029331,31.99454,12.11215,-27.10784,1008.056
1.285521030,-2.006705,-2.116953,-0.6490523,-0.01572662,-0.03512332,1.034101,31.99454,12.11215,-27.10784,1008.056
1.287997723,-1.700538,-1.3908,-0.7713773,-0.01766489,-0.03903933,1.029747,31.99454,12.11215,-27.10784,1008.056
1.290474892,-1.21067,-0.6646479,-0.8937021,-0.0191315,-0.03709684,1.03073,31.99454,12.11215,-27.10784,1008.056
1.292951584,-0.7208021,0.0615045,-1.138352,-0.01230652,-0.03851652,1.033099,31.99454,12.11215,-27.10784,1008.056
1.295428276,-0.4146348,0.7876569,-1.444164,-0.004508339,-0.04090853,1.034009,31.99454,12.11215,-27.10784,1008.056
1.297905445,-0.2309344,1.816373,-1.627652,-0.005919871,-0.04674863,1.038331,31.99454,12.11215,-27.10784,1008.056
1.300382137,0.07523298,2.239962,-1.688814,-0.01227176,-0.05266897,1.019994,31.99454,12.11215,-27.10784,1008.056
1.302859306,0.5651007,2.4215,-1.749977,-0.01227506,-0.05413795,1.016608,31.99454,12.11215,-27.10784,1008.056
1.305335999,0.5038673,2.905602,-1.505327,-0.01227453,-0.0551153,1.015154,31.99454,12.11215,-27.10784,1008.056
1.307813644,0.6263342,2.966114,-1.321839,-0.01668045,-0.05466978,1.007458,31.99454,12.11215,-27.10784,1008.056
1.310290337,0.8100346,2.784576,-1.199515,-0.01473626,-0.05710488,1.003091,31.99454,12.11215,-27.10784,1008.056
1.312766552,0.993735,2.905602,-0.8937021,-0.01868207,-0.05520896,0.99009,31.99454,12.11215,-27.10784,1008.056
1.315244198,1.177435,2.663551,-0.7102148,-0.01675691,-0.05130232,0.990582,31.99454,12.11215,-27.10784,1008.056
1.317720890,1.054968,2.179449,-0.6490523,-0.01627386,-0.05130215,0.9896141,31.99454,12.11215,-27.10784,1008.057
1.320198059,0.993735,1.997911,-0.6490523,-0.01773945,-0.05424765,0.9828495,31.99454,12.11215,-27.10784,1008.057
1.322674751,0.8100346,1.634835,-0.5878899,-0.02068588,-0.05623857,0.9712711,31.99607,12.12779,-26.28446,1008.057
1.325151444,0.7488011,1.09022,-0.465565,-0.02166346,-0.05624712,0.9698284,31.99607,12.12779,-26.28446,1008.057
1.327628613,0.7488011,0.4245807,-0.3432401,-0.02508582,-0.05774426,0.9621167,31.99607,12.12779,-26.28446,1008.057
1.330105305,0.5651007,0.0009917939,-0.03742781,-0.02020285,-0.05770503,0.9678822,31.99607,12.12779,-26.28446,1008.057
1.332582474,0.1976999,-0.846186,0.1460596,-0.02365568,-0.04993538,0.966493,31.99607,12.12779,-26.28446,1008.057
1.335059166,-0.04723396,-1.572338,0.207222,-0.02754576,-0.04946624,0.967482,31.99607,12.12779,-26.28446,1008.057
1.337536335,-0.2309344,-2.419516,0.2683845,-0.02897747,-0.05287641,0.9698857,31.99607,12.12779,-26.28446,1008.057
1.340013027,-0.6595686,-3.266694,0.3295469,-0.03433966,-0.0524242,0.9670214,31.99607,12.12779,-26.28446,1008.057
1.342489719,-1.02697,-3.750796,0.2683845,-0.03188938,-0.04897619,0.9781272,31.99607,12.12779,-26.28446,1008.057
1.344967365,-1.455604,-3.992847,0.3907094,-0.02797581,-0.05040628,0.9824426,31.99607,12.12779,-26.28446,1008.057
1.347443581,-1.639304,-4.355923,0.3907094,-0.0264868,-0.05282164,0.9872488,31.99607,12.12779,-26.28446,1008.057
1.349921227,-2.006705,-4.416436,0.5130343,-0.02404749,-0.05182583,0.991102,31.99607,12.12779,-26.28446,1008.057
1.352397919,-2.006705,-4.476948,0.3907094,-0.02065023,-0.04790227,0.9954476,31.99607,12.12779,-26.28446,1008.057
1.354874134,-1.700538,-4.416436,0.2683845,-0.01823879,-0.04692638,0.9910954,31.99607,12.12779,-26.28446,1008.057
1.357351780,-1.39437,-4.05336,0.1460596,-0.01675303,-0.04787745,0.9973572,31.99607,12.12779,-26.28446,1008.053
1.359828472,-1.21067,-3.569258,-0.03742781,-0.0143055,-0.04540915,1.006045,31.99607,12.12779,-26.28446,1008.053
1.362305641,-0.7820356,-3.085156,-0.09859026,-0.01429238,-0.04539977,1.009906,31.99607,12.12779,-26.28446,1008.053
1.364782333,-0.5371017,-2.480029,-0.465565,-0.01333661,-0.04149583,1.011369,31.99607,12.12779,-26.28446,1008.053
1.367259502,-0.2921678,-1.935415,-0.5267274,-0.01623167,-0.04442779,1.0133,31.99607,12.12779,-26.28446,1008.053
1.369736195,-0.04723396,-1.269775,-0.5267274,-0.01533213,-0.03665305,1.004647,31.99607,12.12779,-26.28446,1008.053
1.372212887,-0.1084674,-0.9672114,-0.7713773,-0.01384917,-0.04151709,1.003649,30.95126,11.74259,-26.65407,1008.053
1.374690056,0.07523298,-0.6646479,-0.9548646,-0.01917752,-0.04446281,1.005111,30.95126,11.74259,-26.65407,1008.053
1.377166748,0.07523298,-0.3620844,-1.199515,-0.01723763,-0.04201226,1.007526,30.95126,11.74259,-26.65407,1008.053
1.379643917,-0.1084674,-0.3015717,-1.321839,-0.01676389,-0.04299648,1.002209,30.95126,11.74259,-26.65407,1008.053
1.382120609,-0.4758682,-0.3620844,-1.383002,-0.01579837,-0.04495203,0.9968843,30.95126,11.74259,-26.65407,1008.053
1.384598255,-0.7208021,-0.3620844,-1.444164,-0.01675467,-0.04787862,0.9968745,30.95126,11.74259,-26.65407,1008.053
1.387074947,-0.965736,-0.3620844,-1.199515,-0.01138103,-0.04978926,1.000697,30.95126,11.74259,-26.65407,1008.053
1.389551163,-1.088203,-0.3015717,-1.260677,-0.01041059,-0.05174129,0.9968199,30.95126,11.74259,-26.65407,1008.053
1.392028808,-1.02697,-0.05952091,-1.199515,-0.007980027,-0.05124062,0.9972919,30.95126,11.74259,-26.65407,1008.053
1.394505501,-0.9045025,0.1825299,-1.07719,-0.006969219,-0.05805253,0.9972514,30.95126,11.74259,-26.65407,1008.053
1.396982670,-0.7820356,0.6061188,-0.9548646,-0.005044684,-0.05903505,0.9895129,30.95126,11.74259,-26.65407,1008.053
1.399459362,-0.5371017,0.7271442,-0.8937021,-0.007979542,-0.05515124,0.990997,30.95126,11.74259,-26.65407,1008.054
1.401936531,-0.1084674,0.8481696,-0.5878899,-0.00554577,-0.05904812,0.9851715,30.95126,11.74259,-26.65407,1008.054
1.404413223,0.2589334,1.029708,-0.1597527,-0.001204831,-0.05611798,0.9793707,30.95126,11.74259,-26.65407,1008.054
1.406889915,0.5038673,1.150733,0.2683845,-0.006080665,-0.05419663,0.9789245,30.95126,11.74259,-26.65407,1008.054
1.409367084,0.5651007,1.09022,0.5741968,-0.006554917,-0.0507684,0.9881155,30.95126,11.74259,-26.65407,1008.054
1.411843777,0.6875677,1.029708,0.8188466,-0.01189366,-0.05421042,0.9857138,30.95126,11.74259,-26.65407,1008.054
1.414320946,0.5651007,1.029708,0.9411715,-0.01142752,-0.05177797,0.983793,30.95126,11.74259,-26.65407,1008.054
1.416797638,0.5038673,0.9086823,0.8800091,-0.01629402,-0.04740559,0.990117,30.95126,11.74259,-26.65407,1008.054
1.419274330,0.4426338,0.6061188,1.124659,-0.01875077,-0.04499175,0.986764,30.95126,11.74259,-26.65407,1008.054
1.421751499,0.5038673,0.1220172,1.308146,-0.01923433,-0.04254792,0.9916061,30.95126,11.74259,-26.65407,1008.054
1.424228191,0.4426338,0.1220172,1.063496,-0.01779987,-0.03815805,0.9916207,31.68083,12.48395,-26.66981,1008.054
1.426705837,0.2589334,-0.1805463,0.9411715,-0.01683428,-0.03571371,0.9935587,31.68083,12.48395,-26.66981,1008.054
1.429182529,0.1976999,-0.1805463,0.8188466,-0.02023475,-0.03523972,0.9955104,31.68083,12.48395,-26.66981,1008.054
1.431659698,-0.04723396,-0.3620844,0.6965217,-0.01830086,-0.03230458,0.9969629,31.68083,12.48395,-26.66981,1008.054
1.434136391,0.3201669,-0.3015717,0.5741968,-0.02166369,-0.03620354,1.002753,31.68083,12.48395,-26.66981,1008.054
1.436613083,0.4426338,-0.1805463,0.3907094,-0.02265055,-0.03572985,0.9993826,31.68083,12.48395,-26.66981,1008.054
1.439090252,0.8100346,0.2430426,0.1460596,-0.01585178,-0.03570165,0.9964494,31.68083,12.48395,-26.66981,1008.057
1.441566944,0.993735,0.4245807,-0.09859026,-0.02070413,-0.03474125,1.001308,31.68083,12.48395,-26.66981,1008.057
1.444044113,1.177435,0.6666315,-0.4044026,-0.02408005,-0.03718294,1.005658,31.68083,12.48395,-26.66981,1008.057
1.446520805,1.238669,0.9086823,-0.5878899,-0.02216584,-0.03426187,1.001318,31.68083,12.48395,-26.66981,1008.057
1.448997497,1.361136,0.9691951,-0.7713773,-0.02117734,-0.03473439,1.005172,31.68083,12.48395,-26.66981,1008.057
1.451474666,1.361136,1.211246,-0.8937021,-0.02648006,-0.04108389,1.008547,31.68083,12.48395,-26.66981,1008.057
1.453951359,1.177435,1.453297,-1.199515,-0.02892372,-0.04012731,1.006634,31.68083,12.48395,-26.66981,1008.057
1.456428528,1.299902,1.574322,-1.07719,-0.02749475,-0.03769686,1.001812,31.68083,12.48395,-26.66981,1008.057
1.458905220,1.483603,1.574322,-1.138352,-0.02556089,-0.03622836,1.000844,31.68083,12.48395,-26.66981,1008.057
1.461382866,1.361136,1.634835,-1.260677,-0.03090016,-0.03869301,0.9998952,31.68083,12.48395,-26.66981,1008.057
1.463859558,1.667303,1.453297,-1.627652,-0.03529678,-0.0372631,0.9965478,31.68083,12.48395,-26.66981,1008.057
1.466335773,1.60607,1.513809,-1.688814,-0.03288531,-0.03482058,0.9946164,31.68083,12.48395,-26.66981,1008.057
1.468813419,1.544836,1.392784,-1.688814,-0.02994282,-0.03918779,0.9945779,31.68083,12.48395,-26.66981,1008.057
1.471290588,1.544836,1.271759,-1.872301,-0.028986,-0.03870521,0.9907137,31.68083,12.48395,-26.66981,1008.057
1.473767280,1.177435,0.9691951,-1.994627,-0.0299805,-0.03774811,0.9858974,31.68658,12.11725,-26.66333,1008.057
1.476243973,1.238669,0.5456061,-1.994627,-0.03144496,-0.03824844,0.9834895,31.68658,12.11725,-26.66333,1008.057
1.478721142,1.544836,0.3035553,-2.116951,-0.0280238,-0.04359637,0.9795818,31.68658,12.11725,-26.66333,1008.057
1.481197834,1.544836,0.0615045,-2.178114,-0.01974969,-0.04648216,0.9766256,31.68658,12.11725,-26.66333,1008.057
1.483674526,1.973471,0.0009917939,-2.116951,-0.01879719,-0.04258056,0.9771231,31.68658,12.11725,-26.66333,1008.057
1.486151695,2.157171,-0.3015717,-2.422764,-0.01976061,-0.0460011,0.9742147,31.68658,12.11725,-26.66333,1008.057
1.488628387,1.973471,-0.6646479,-2.606251,-0.0163061,-0.05083632,0.9809285,31.68658,12.11725,-26.66333,1008.057
1.491105556,1.973471,-0.9066988,-2.483926,-0.01336083,-0.0527572,0.9857293,31.68658,12.11725,-26.66333,1008.057
1.493582249,1.728537,-1.511826,-2.300439,-0.01480016,-0.05421732,0.9891084,31.68658,12.11725,-26.66333,1008.057
1.496059894,1.422369,-2.177466,-2.178114,-0.01088609,-0.05809141,0.9895498,31.68658,12.11725,-26.66333,1008.057
1.498536110,0.6263342,-3.085156,-1.933464,-0.005025586,-0.06097689,0.9919162,31.68658,12.11725,-26.66333,1008.057
1.503490448,-0.5371017,-3.629771,-0.8325397,0.009162003,-0.06915466,1.002898,31.68658,12.11725,-26.66333,1008.057
1.505967140,-1.149436,-4.113872,-0.1597527,0.008664241,-0.06623212,1.004364,31.68658,12.11725,-26.66333,1008.057
1.508444309,-1.333137,-4.113872,0.2683845,0.01112485,-0.0666877,1.012071,31.68658,12.11725,-26.66333,1008.057
1.510921001,-1.39437,-3.992847,1.002334,0.01405098,-0.06960002,1.009627,31.68658,12.11725,-26.66333,1008.057
1.513397694,-1.455604,-3.629771,1.552796,0.02038587,-0.06711393,1.017328,31.68658,12.11725,-26.66333,1008.057
1.515874863,-1.639304,-3.448232,1.919771,0.01650285,-0.0690841,1.016373,31.68658,12.11725,-26.66333,1008.057
1.518351555,-1.578071,-3.266694,2.103258,0.01307954,-0.06129335,1.023672,31.68658,12.11725,-26.66333,1008.061
1.520828724,-1.578071,-2.782593,2.531395,0.01209489,-0.0588626,1.024173,31.68658,12.11725,-26.66333,1008.061
1.523305416,-1.700538,-2.419516,2.837208,0.009165486,-0.05595263,1.025652,31.68729,12.12447,-26.28331,1008.061
1.525782585,-1.700538,-1.995928,2.837208,0.005248087,-0.05501415,1.019403,31.68729,12.12447,-26.28331,1008.061
1.528259277,-1.333137,-1.753877,3.081857,-0.001080708,-0.05211829,1.022349,31.68729,12.12447,-26.28331,1008.061
1.530735969,-1.21067,-1.511826,3.38767,-0.003533093,-0.05019021,1.019476,31.68729,12.12447,-26.28331,1008.061
1.533213138,-1.149436,-0.846186,3.14302,-0.006449938,-0.04776014,1.023849,31.68729,12.12447,-26.28331,1008.061
1.535689831,-0.9045025,-0.3620844,3.081857,-0.01086392,-0.03852068,1.028264,31.68729,12.12447,-26.28331,1008.061
1.538167477,-0.9045025,0.0009917939,3.081857,-0.01089671,-0.03854412,1.018611,31.68729,12.12447,-26.28331,1008.061
1.540644169,-0.8432691,0.4245807,2.776045,-0.01238298,-0.03514906,1.016223,31.68729,12.12447,-26.28331,1008.061
1.543120384,-0.5983351,0.4245807,2.531395,-0.01723696,-0.03418983,1.020599,31.68729,12.12447,-26.28331,1008.061
1.545598030,-0.5983351,0.6666315,2.286746,-0.02066143,-0.03031088,1.02112,31.68729,12.12447,-26.28331,1008.061
1.548074722,-0.4758682,0.8481696,1.797446,-0.01970519,-0.0317842,1.013867,31.68729,12.12447,-26.28331,1008.061
1.550551891,-0.4758682,0.8481696,1.246984,-0.02020905,-0.0342436,1.004686,31.68729,12.12447,-26.28331,1008.061
1.553028583,-0.4146348,1.09022,0.9411715,-0.0255892,-0.02940439,1.003775,31.68729,12.12447,-26.28331,1008.061
1.555505752,-0.04723396,1.211246,0.5741968,-0.02410077,-0.03377564,1.005193,31.68729,12.12447,-26.28331,1008.061
1.557982445,0.2589334,1.392784,0.02373465,-0.02411608,-0.03427545,0.9998808,31.68729,12.12447,-26.28331,1008.058
1.560459137,0.4426338,1.513809,-0.5267274,-0.02653355,-0.0362334,1.000849,31.68729,12.12447,-26.28331,1008.058
1.562936306,0.9325016,1.513809,-0.7102148,-0.02603957,-0.03671429,1.002292,31.68729,12.12447,-26.28331,1008.058
1.565412998,1.054968,1.453297,-0.8325397,-0.02603248,-0.03768697,1.00277,31.68729,12.12447,-26.28331,1008.058
1.567890167,1.054968,1.332271,-0.8325397,-0.02265603,-0.03622263,0.9969667,31.68729,12.12447,-26.28331,1008.058
1.570366859,0.8712681,1.150733,-1.016027,-0.02607675,-0.0377186,0.9897375,31.68729,12.12447,-26.28331,1008.058
1.572844505,0.8100346,0.7876569,-1.138352,-0.02846145,-0.04111974,0.9979386,31.68729,12.12447,-26.28331,1008.058
1.575320721,0.5651007,0.4245807,-1.383002,-0.02118614,-0.03816278,0.9969487,31.32251,11.75379,-26.27544,1008.058
1.577797413,0.3201669,0.3035553,-1.566489,-0.02069595,-0.03620202,1.0013,31.32251,11.75379,-26.27544,1008.058
1.580275059,0.07523298,0.0615045,-1.566489,-0.01773161,-0.04153137,1.006083,31.32251,11.75379,-26.27544,1008.058
1.582751751,-0.04723396,-0.3015717,-1.321839,-0.01135863,-0.05026212,1.006486,31.32251,11.75379,-26.27544,1008.058
1.585228920,0.0139995,-0.241059,-1.444164,-0.01332307,-0.04979698,1.001673,31.32251,11.75379,-26.27544,1008.058
1.587705612,-0.04723396,-0.3620844,-1.321839,-0.01670225,-0.05077438,1.007478,31.32251,11.75379,-26.27544,1008.058
1.590182781,0.07523298,-0.5436226,-1.138352,-0.01524876,-0.05272625,1.002633,31.32251,11.75379,-26.27544,1008.058
1.592659473,0.07523298,-0.4831098,-0.8325397,-0.01036805,-0.05757736,0.9996858,31.32251,11.75379,-26.27544,1008.058
1.595136166,0.1364664,-0.7251607,-0.3432401,-0.01326908,-0.05709147,1.005496,31.32251,11.75379,-26.27544,1008.058
1.597613335,0.3201669,-1.088237,-0.09859026,-0.01184882,-0.05222288,1.002135,31.32251,11.75379,-26.27544,1008.059
1.600090027,0.3201669,-1.451313,-0.03742781,-0.01379469,-0.05272222,1.001177,31.32251,11.75379,-26.27544,1008.059
1.602567196,-0.04723396,-1.874902,0.3295469,-0.01378919,-0.0507628,1.006014,31.32251,11.75379,-26.27544,1008.059
1.605043888,-0.5371017,-2.177466,0.5130343,-0.01327772,-0.05025344,1.01422,31.32251,11.75379,-26.27544,1008.059
1.607520580,-1.21067,-2.661567,0.5130343,-0.01133191,-0.054154,1.007914,31.32251,11.75379,-26.27544,1008.059
1.609997749,-1.761771,-2.782593,0.9411715,-0.009826576,-0.06095753,1.010284,31.32251,11.75379,-26.27544,1008.059
1.612474441,-1.884238,-2.903618,1.369309,-0.0103042,-0.06339819,1.008826,31.32251,11.75379,-26.27544,1008.059
1.614952087,-1.639304,-2.843105,1.552796,-0.01613084,-0.06244399,1.013207,31.32251,11.75379,-26.27544,1008.059
1.617428303,-1.761771,-2.843105,1.980933,-0.0195515,-0.05954006,1.013241,31.32251,11.75379,-26.27544,1008.059
1.619905949,-2.006705,-2.72208,2.286746,-0.02437166,-0.06197877,1.021943,31.32251,11.75379,-26.27544,1008.059
1.622382641,-2.251639,-2.601054,2.592558,-0.02780047,-0.05614743,1.024405,31.32251,11.75379,-26.27544,1008.059
1.624859333,-2.374106,-2.72208,2.89837,-0.02637907,-0.04883367,1.0254,31.68729,12.12447,-26.28331,1008.059
1.627336502,-2.61904,-2.661567,3.081857,-0.02739538,-0.04398118,1.020604,31.68729,12.12447,-26.28331,1008.059
1.629813194,-2.741507,-2.661567,3.020695,-0.0332793,-0.03573484,1.020196,31.68729,12.12447,-26.28331,1008.059
1.632290363,-2.98644,-2.601054,2.65372,-0.03720695,-0.02649286,1.024609,31.68729,12.12447,-26.28331,1008.059
1.634767055,-2.98644,-2.237978,1.980933,-0.03188848,-0.02648744,1.015409,31.68729,12.12447,-26.28331,1008.059
1.637244224,-2.98644,-1.693364,1.308146,-0.03188628,-0.02599699,1.01686,31.68729,12.12447,-26.28331,1008.059
1.639720917,-2.61904,-1.269775,0.8188466,-0.02943884,-0.02939522,1.015863,31.68729,12.12447,-26.28331,1008.059
1.642197609,-2.067938,-0.5436226,0.02373465,-0.0342814,-0.03136107,1.018776,31.68729,12.12447,-26.28331,1008.059
1.644674778,-1.333137,0.1220172,-0.465565,-0.03478357,-0.03088603,1.01492,31.68729,12.12447,-26.28331,1008.059
1.647151470,-0.9045025,0.4245807,-1.138352,-0.03429556,-0.02794908,1.020241,31.68729,12.12447,-26.28331,1008.059
1.649629116,-0.3534013,0.8481696,-1.627652,-0.02799568,-0.02744349,1.014417,31.68729,12.12447,-26.28331,1008.059
1.652105331,-0.2309344,1.211246,-2.055789,-0.02360728,-0.03034591,1.01293,31.68729,12.12447,-26.28331,1008.059
1.654582977,0.1364664,1.634835,-2.606251,-0.02892035,-0.03425844,1.017284,31.68729,12.12447,-26.28331,1008.059
1.657059669,0.3201669,2.058424,-3.095551,-0.02746293,-0.02985216,1.024056,31.68729,12.12447,-26.28331,1008.059
1.659536362,0.3814003,2.179449,-3.279038,-0.02254296,-0.04054167,1.023009,31.68729,12.12447,-26.28331,1008.059
1.662013531,0.1976999,2.4215,-3.646013,-0.01715411,-0.04781903,1.022459,31.68729,12.12447,-26.28331,1008.059
1.664490223,0.0139995,2.482013,-3.951825,-0.02106661,-0.04834367,1.015237,31.68729,12.12447,-26.28331,1008.059
1.666967392,-0.1697009,2.724063,-4.012987,-0.01373728,-0.05121457,1.020492,31.68729,12.12447,-26.28331,1008.059
1.679351807,0.8712681,3.510728,-3.646013,-0.007966956,-0.05416451,0.9963114,31.31534,12.10606,-27.04196,1008.06
1.679351807,0.8712681,3.510728,-3.646013,-0.007966956,-0.05416451,0.9963114,31.31534,12.10606,-27.04196,1008.06
1.681828499,1.177435,3.571241,-3.646013,-0.008965849,-0.05418829,0.9885939,31.31534,12.10606,-27.04196,1008.06
1.684305668,1.361136,3.510728,-3.523688,-0.01383794,-0.05764185,0.9803973,31.31534,12.10606,-27.04196,1008.06
1.686782360,1.361136,3.268678,-3.523688,-0.01578922,-0.05423407,0.984287,31.31534,12.10606,-27.04196,1008.06
1.689259052,1.116202,2.4215,-3.58485,-0.008042932,-0.05470768,0.9731405,31.31534,12.10606,-27.04196,1008.06
1.691736698,0.6875677,1.634835,-3.523688,-0.01339907,-0.05180679,0.9760808,31.31534,12.10606,-27.04196,1008.06
1.694212913,0.2589334,1.09022,-3.401363,-0.009483907,-0.05616897,0.976037,31.31534,12.10606,-27.04196,1008.06
1.696690559,-0.2921678,0.1825299,-3.279038,-0.007009192,-0.0629698,0.9774365,31.31534,12.10606,-27.04196,1008.06
1.699167252,-0.5983351,-0.7251607,-3.034388,-0.007996029,-0.06102949,0.9764865,31.31534,12.10606,-27.04196,1008.06
1.701644421,-0.8432691,-1.209262,-2.728576,-0.001627399,-0.06780785,0.9788302,31.31534,12.10606,-27.04196,1008.06
1.704121113,-0.965736,-1.632851,-2.300439,-0.00358036,-0.06733452,0.9773954,31.31534,12.10606,-27.04196,1008.06
1.706597805,-1.02697,-2.177466,-1.872301,-0.0001613204,-0.06877297,0.9793,31.31534,12.10606,-27.04196,1008.06
1.709074974,-1.39437,-2.540542,-1.627652,0.00417911,-0.06339885,0.9773731,31.31534,12.10606,-27.04196,1008.06
1.711551666,-1.578071,-2.903618,-1.260677,-0.004078653,-0.06343461,0.9803141,31.31534,12.10606,-27.04196,1008.06
1.714028835,-1.884238,-3.206182,-0.8937021,-0.002113151,-0.06585447,0.9822216,31.31534,12.10606,-27.04196,1008.06
1.716505527,-2.251639,-3.569258,-0.6490523,-0.001638253,-0.06292688,0.9836821,31.31534,12.10606,-27.04196,1008.06
1.718982696,-2.312872,-3.811309,-0.5878899,-0.005029419,-0.0614685,0.9899831,31.31534,12.10606,-27.04196,1008.057
1.721459389,-2.80274,-3.992847,-0.3432401,-0.005541892,-0.05562324,0.9919466,31.31534,12.10606,-27.04196,1008.057
1.723936081,-3.108907,-4.234898,-0.2209152,-0.003078606,-0.05949902,0.9948093,31.31534,12.10606,-27.04196,1008.057
1.726413727,-3.231374,-4.05336,-0.03742781,0.0007940389,-0.05655851,0.9943205,30.94047,12.4832,-26.28701,1008.057
1.728889942,-3.231374,-3.508745,0.1460596,-0.004017964,-0.06192462,1.000594,30.94047,12.4832,-26.28701,1008.057
1.731367588,-2.98644,-3.266694,0.2683845,-0.00403868,-0.05851731,1.000129,30.94047,12.4832,-26.28701,1008.057
1.733844280,-2.496573,-2.843105,0.1460596,0.0003301778,-0.05263399,1.007375,30.94047,12.4832,-26.28701,1008.057
1.736320972,-1.884238,-2.177466,0.08489711,0.001296301,-0.05116701,1.007861,30.94047,12.4832,-26.28701,1008.057
1.738798141,-1.271903,-1.330288,-0.03742781,-0.001132598,-0.05019989,1.010292,30.94047,12.4832,-26.28701,1008.057
1.741274834,-0.7208021,-0.846186,-0.2820776,-0.002634193,-0.04877127,1.000171,30.94047,12.4832,-26.28701,1008.057
1.743752003,-0.3534013,-0.1805463,-0.465565,-0.004099716,-0.04731688,1.00067,30.94047,12.4832,-26.28701,1008.057
1.746228695,0.1364664,0.4850934,-0.8325397,-0.008943335,-0.04732799,1.006488,30.94047,12.4832,-26.28701,1008.057
1.748705864,0.6263342,0.8481696,-1.016027,-0.01135695,-0.04732768,1.011811,30.94047,12.4832,-26.28701,1008.057
1.751182556,0.6875677,1.211246,-1.138352,-0.01768421,-0.05176381,1.003134,30.94047,12.4832,-26.28701,1008.057
1.753659248,0.3201669,1.392784,-1.321839,-0.02163104,-0.04497989,0.9978814,30.94047,12.4832,-26.28701,1008.057
1.756136417,0.1364664,1.332271,-1.321839,-0.01919507,-0.04838633,0.9935065,30.94047,12.4832,-26.28701,1008.057
1.758613110,0.1364664,1.392784,-1.260677,-0.02696327,-0.05135049,0.9925684,30.94047,12.4832,-26.28701,1008.058
1.761090279,-0.04723396,1.634835,-1.383002,-0.02646604,-0.05329567,0.9925557,30.94047,12.4832,-26.28701,1008.058
1.763566971,-0.1084674,1.453297,-1.260677,-0.02744796,-0.05135184,0.9930537,30.94047,12.4832,-26.28701,1008.058
1.766044617,0.0139995,1.392784,-1.444164,-0.02992441,-0.0504187,0.9814878,30.94047,12.4832,-26.28701,1008.058
1.768521309,0.1976999,1.332271,-1.627652,-0.02361792,-0.04697516,0.9824363,30.94047,12.4832,-26.28701,1008.058
1.773475170,0.0139995,1.09022,-1.749977,-0.02554308,-0.05088179,0.9819441,30.94047,12.4832,-26.28701,1008.058
1.775951862,-0.1697009,0.7876569,-1.811139,-0.02507583,-0.04747081,0.9819591,31.32251,11.75379,-26.27544,1008.058
1.778429031,-0.5371017,0.1220172,-1.933464,-0.02893916,-0.04942692,0.986797,31.32251,11.75379,-26.27544,1008.058
1.780905724,-0.9045025,-0.3620844,-1.749977,-0.02698449,-0.04549919,0.9959774,31.32251,11.75379,-26.27544,1008.058
1.783382893,-1.516837,-0.4225971,-1.811139,-0.02161739,-0.04594789,1.00029,31.32251,11.75379,-26.27544,1008.058
1.785859585,-1.823005,-0.241059,-1.994627,-0.02210155,-0.0469266,0.9993221,31.32251,11.75379,-26.27544,1008.058
1.788336277,-1.823005,0.0009917939,-1.811139,-0.01771525,-0.04445291,1.006068,31.32251,11.75379,-26.27544,1008.058
1.790813446,-1.39437,0.364068,-1.933464,-0.02259273,-0.04253273,1.005139,31.32251,11.75379,-26.27544,1008.058
1.793290138,-0.8432691,0.7271442,-2.055789,-0.02161464,-0.04496818,1.002708,31.32251,11.75379,-26.27544,1008.058
1.795767307,-0.3534013,1.271759,-2.361601,-0.01774521,-0.03763011,1.008517,31.32251,11.75379,-26.27544,1008.058
1.798243999,0.3201669,1.513809,-2.483926,-0.01971066,-0.03227698,1.011451,31.32251,11.75379,-26.27544,1008.058
1.800720692,0.6263342,1.997911,-2.789738,-0.02457728,-0.03523776,1.005671,31.32251,11.75379,-26.27544,1008.058
1.803198338,0.6875677,2.239962,-3.156713,-0.02217395,-0.0284012,1.008588,31.32251,11.75379,-26.27544,1008.058
1.805674553,0.7488011,2.118936,-3.340201,-0.02070898,-0.03034486,1.007122,31.32251,11.75379,-26.27544,1008.058
1.808152199,0.5038673,2.239962,-3.8295,-0.01678777,-0.03225837,1.012883,31.32251,11.75379,-26.27544,1008.058
1.810628891,0.5038673,2.179449,-4.318799,-0.01775835,-0.03910612,1.002235,31.32251,11.75379,-26.27544,1008.058
1.813106060,0.2589334,2.118936,-4.502287,-0.01334436,-0.04834558,0.9978188,31.32251,11.75379,-26.27544,1008.058
1.815582752,-0.1084674,1.816373,-4.379962,-0.01332688,-0.04882196,1.00216,31.32251,11.75379,-26.27544,1008.058
1.818059444,0.1364664,1.695347,-4.318799,-0.01529899,-0.04934004,0.9934803,31.32251,11.75379,-26.27544,1008.058
1.820536613,0.3814003,1.75586,-4.135312,-0.01239036,-0.0532426,0.9842734,31.32251,11.75379,-26.27544,1008.058
1.823013782,0.5038673,1.634835,-3.8295,-0.01186911,-0.0571261,0.988112,31.32251,11.75379,-26.27544,1008.058
1.825490475,0.8712681,1.513809,-3.646013,-0.00895825,-0.05760496,0.9851976,31.68083,12.48395,-26.66981,1008.058
1.827967167,1.116202,1.271759,-3.034388,-0.01089327,-0.06298525,0.9793885,31.68083,12.48395,-26.66981,1008.058
1.830444336,1.361136,0.9086823,-2.728576,-0.002626731,-0.06098774,0.9822494,31.68083,12.48395,-26.66981,1008.058
1.832921028,1.238669,0.3035553,-2.545089,-0.0001966779,-0.05804307,0.9865955,31.68083,12.48395,-26.66981,1008.058
1.835397720,0.7488011,-0.241059,-2.239276,0.005636527,-0.05899257,0.9841452,31.68083,12.48395,-26.66981,1008.058
1.837874889,0.3201669,-0.6646479,-2.055789,0.001291754,-0.06241432,0.9880128,31.68083,12.48395,-26.66981,1008.057
1.840351582,0.0139995,-0.7251607,-1.872301,0.002728919,-0.059978,0.9856042,31.68083,12.48395,-26.66981,1008.057
1.842829227,-0.1697009,-1.088237,-1.505327,0.00712004,-0.06336734,0.9841146,31.68083,12.48395,-26.66981,1008.057
1.845305920,-0.1697009,-1.511826,-1.016027,0.008109072,-0.06481721,0.9865152,31.68083,12.48395,-26.66981,1008.057
1.847783089,-0.1084674,-1.632851,-0.5878899,0.005208001,-0.0672646,0.9874839,31.68083,12.48395,-26.66981,1008.057
1.850259781,-0.2309344,-1.814389,-0.09859026,0.005193267,-0.06580851,0.9855608,31.68083,12.48395,-26.66981,1008.057
1.852736473,-0.04723396,-2.177466,0.3295469,0.007154426,-0.066276,0.989409,31.68083,12.48395,-26.66981,1008.057
1.855213642,0.1364664,-2.601054,0.8800091,0.008564894,-0.05848117,0.9879932,31.68083,12.48395,-26.66981,1008.057
1.857690334,-0.04723396,-3.206182,1.246984,0.009061638,-0.05651572,0.9942754,31.68083,12.48395,-26.66981,1008.057
1.860167503,-0.5371017,-3.508745,1.369309,0.004721322,-0.0545567,1.008307,31.68083,12.48395,-26.66981,1008.057
1.862644196,-1.088203,-3.629771,1.552796,0.01008353,-0.05354227,1.013592,31.68083,12.48395,-26.66981,1008.057
1.865120888,-1.823005,-3.871821,1.797446,0.00817313,-0.05743836,1.017444,31.68083,12.48395,-26.66981,1008.057
1.867598057,-2.129172,-3.811309,1.919771,0.01060041,-0.05694002,1.016951,31.68083,12.48395,-26.66981,1008.057
1.870074749,-2.129172,-3.448232,2.286746,0.008179711,-0.05596704,1.021796,31.68083,12.48395,-26.66981,1008.057
1.872551918,-1.945472,-2.782593,2.531395,0.005783027,-0.05693238,1.030492,31.68083,12.48395,-26.66981,1008.057
1.875028610,-1.578071,-2.116953,2.837208,-0.001532606,-0.0520962,1.032488,31.68083,12.48395,-26.66981,1008.057
1.877506256,-1.21067,-1.451313,3.14302,0.002330779,-0.04720682,1.032492,30.94551,12.10929,-26.66055,1008.058
1.879982948,-0.7820356,-0.6646479,3.204182,0.004743327,-0.0452524,1.030075,30.94551,12.10929,-26.66055,1008.058
1.882460117,-0.3534013,0.1825299,2.89837,-0.001118814,-0.04236808,1.027226,30.94551,12.10929,-26.66055,1008.058
1.884936810,0.0139995,0.7876569,2.470233,-0.007489107,-0.03705753,1.021979,30.94551,12.10929,-26.66055,1008.058
1.887413502,0.0139995,1.150733,2.225583,-0.00847971,-0.03120892,1.026358,30.94551,12.10929,-26.66055,1008.058
1.889890671,0.2589334,1.574322,1.858608,-0.01528784,-0.03515479,1.0201,30.94551,12.10929,-26.66055,1008.058
1.892367363,0.2589334,1.997911,1.552796,-0.01336928,-0.0341861,1.01382,30.94551,12.10929,-26.66055,1008.058
1.894844532,0.5038673,2.179449,1.124659,-0.01292339,-0.03372361,1.002718,30.94551,12.10929,-26.66055,1008.058
1.897321224,0.9325016,2.360987,0.8188466,-0.01726823,-0.04154526,0.9993232,30.94551,12.10929,-26.66055,1008.058
1.899797916,1.299902,2.360987,0.7576842,-0.02318166,-0.03332001,0.990227,30.94551,12.10929,-26.66055,1008.058
1.902275085,1.422369,2.118936,0.5130343,-0.02218503,-0.03818656,0.9892312,30.94551,12.10929,-26.66055,1008.058
1.904751778,1.238669,1.876886,0.3295469,-0.02171011,-0.03379235,0.9931125,30.94551,12.10929,-26.66055,1008.058
1.907228947,0.8100346,1.211246,0.2683845,-0.02752151,-0.03673824,0.9955426,30.94551,12.10929,-26.66055,1008.058
1.909705639,0.3814003,0.6061188,0.207222,-0.03041988,-0.04113918,0.9940879,30.94551,12.10929,-26.66055,1008.058
1.912183285,-0.3534013,0.0009917939,0.3907094,-0.03382583,-0.04115797,0.9936237,30.94551,12.10929,-26.66055,1008.058
1.914659500,-0.965736,-0.6646479,0.3907094,-0.02989104,-0.04843936,0.9945301,30.94551,12.10929,-26.66055,1008.058
1.917136192,-1.578071,-1.269775,0.3295469,-0.03278391,-0.05088088,0.9979122,30.94551,12.10929,-26.66055,1008.06
1.919613838,-1.945472,-1.814389,0.5130343,-0.03669145,-0.04846874,0.9969805,30.94551,12.10929,-26.66055,1008.06
1.922090530,-2.067938,-2.116953,0.6965217,-0.02992536,-0.0411308,0.9964985,30.94551,12.10929,-26.66055,1008.06
1.924567699,-2.129172,-2.480029,0.6965217,-0.02990023,-0.04209059,1.002286,30.94551,12.10929,-26.66055,1008.06
1.927044392,-1.884238,-2.540542,0.3907094,-0.03043455,-0.0352832,0.9994274,31.31746,12.12771,-25.9019,1008.06
1.929521561,-1.761771,-2.601054,0.207222,-0.02658371,-0.02844729,0.9989588,31.31746,12.12771,-25.9019,1008.06
1.931998253,-1.39437,-2.601054,-0.1597527,-0.02414058,-0.0284265,1.002324,31.31746,12.12771,-25.9019,1008.06
1.934474945,-1.271903,-2.419516,-0.4044026,-0.02412144,-0.02743508,1.009569,31.31746,12.12771,-25.9019,1008.06
1.936952114,-1.39437,-2.237978,-1.016027,-0.02407779,-0.0322926,1.014371,31.31746,12.12771,-25.9019,1008.06
1.939428806,-1.455604,-1.995928,-1.260677,-0.02017025,-0.03470475,1.015303,31.31746,12.12771,-25.9019,1008.06
1.941905975,-1.271903,-1.753877,-1.505327,-0.01189173,-0.03514303,1.017668,31.31746,12.12771,-25.9019,1008.06
1.944382668,-1.02697,-1.451313,-1.749977,-0.01378308,-0.04391422,1.019082,31.31746,12.12771,-25.9019,1008.06
1.946860313,-0.7208021,-0.9672114,-1.811139,-0.01133889,-0.04584816,1.019541,31.31746,12.12771,-25.9019,1008.06
1.949336529,-0.2309344,-0.6041352,-1.872301,-0.006942318,-0.05021135,1.018047,31.31746,12.12771,-25.9019,1008.06
1.951813221,0.0139995,-0.05952091,-1.811139,-0.008374077,-0.05655478,1.015609,31.31746,12.12771,-25.9019,1008.06
1.954290867,0.4426338,0.6666315,-1.566489,-0.003530482,-0.0580103,1.007369,31.31746,12.12771,-25.9019,1008.06
1.956767082,0.8712681,1.211246,-1.505327,-0.0001272836,-0.05897122,1.005415,31.31746,12.12771,-25.9019,1008.063
1.959244728,1.177435,1.513809,-1.444164,0.0003574286,-0.05750323,1.00735,31.31746,12.12771,-25.9019,1008.063
1.961721420,1.544836,1.937398,-1.138352,-0.002564381,-0.05800995,1.005433,31.31746,12.12771,-25.9019,1008.063
1.964198589,1.422369,2.179449,-0.8325397,0.0008267395,-0.0624016,0.9942902,31.31746,12.12771,-25.9019,1008.063
1.966675282,1.483603,2.179449,-0.8325397,-0.0001448561,-0.06436137,0.9913895,31.31746,12.12771,-25.9019,1008.063
1.969151974,1.667303,2.058424,-0.9548646,0.0003272705,-0.06388012,0.9880105,31.31746,12.12771,-25.9019,1008.063
1.971629143,1.422369,1.75586,-0.5878899,0.0003130229,-0.06633466,0.9797925,31.31746,12.12771,-25.9019,1008.063
1.974105835,1.238669,1.453297,-0.03742781,-0.003064009,-0.0697549,0.9822068,31.31746,12.12771,-25.9019,1008.063
1.976583004,0.993735,0.9691951,0.3295469,-0.004033412,-0.07122423,0.9807566,31.31746,12.12771,-25.9019,1008.063
1.979059696,0.8712681,0.364068,0.7576842,-0.002579342,-0.07122018,0.9793006,31.31605,12.11327,-26.66194,1008.063
1.981536388,0.7488011,0.0009917939,0.8800091,-0.007467671,-0.06441904,0.9832238,31.31605,12.11327,-26.66194,1008.063
1.984013557,0.3201669,-0.6041352,1.124659,-0.007940374,-0.06685617,0.9832138,31.31605,12.11327,-26.66194,1008.063
1.986490250,-0.2309344,-1.209262,1.369309,-0.01381886,-0.06105032,0.9803797,31.31605,12.11327,-26.66194,1008.063
1.988967896,-0.5983351,-1.874902,1.675121,-0.01232819,-0.06199786,0.9880894,31.31605,12.11327,-26.66194,1008.063
1.991444111,-1.149436,-2.298491,1.736283,-0.01669973,-0.06446101,0.9856875,31.31605,12.11327,-26.66194,1008.063
1.993921757,-1.700538,-2.480029,1.919771,-0.01772091,-0.05667876,0.984285,31.31605,12.11327,-26.66194,1008.063
1.996398449,-2.129172,-2.843105,2.042096,-0.01674003,-0.05520123,0.989114,31.31605,12.11327,-26.66194,1008.063
1.998875141,-2.190405,-2.843105,2.042096,-0.009903522,-0.05367945,0.9997033,31.31605,12.11327,-26.66194,1008.06
2.001352310,-2.374106,-3.024643,1.919771,-0.01380554,-0.04784125,1.006029,31.31605,12.11327,-26.66194,1008.06
2.003829002,-2.61904,-2.661567,1.675121,-0.01526671,-0.04687261,1.007008,31.31605,12.11327,-26.66194,1008.06
2.006306171,-2.557806,-2.419516,1.491634,-0.01190221,-0.04150585,1.004121,31.31605,12.11327,-26.66194,1008.06
2.008782864,-2.435339,-2.116953,1.369309,-0.009923638,-0.04684962,1.005048,31.31605,12.11327,-26.66194,1008.06
2.011260033,-1.945472,-1.451313,1.124659,-0.01525742,-0.04735485,1.008936,31.31605,12.11327,-26.66194,1008.06
2.013736725,-1.21067,-0.6041352,0.8188466,-0.01479506,-0.04248074,1.009924,31.31605,12.11327,-26.66194,1008.06
2.016213417,-0.7820356,-0.05952091,0.5130343,-0.01625514,-0.0420002,1.010417,31.31605,12.11327,-26.66194,1008.06
2.018690586,-0.2309344,0.6061188,0.207222,-0.01333222,-0.04051495,1.01427,31.31605,12.11327,-26.66194,1008.06
2.021167278,0.3201669,1.453297,-0.2209152,-0.01574913,-0.04198362,1.016207,31.31605,12.11327,-26.66194,1008.06
2.023644447,0.3201669,1.816373,-0.5878899,-0.02015993,-0.03860835,1.011904,31.31605,12.11327,-26.66194,1008.06
2.026121140,0.4426338,2.179449,-0.9548646,-0.01869879,-0.04104362,1.008505,31.31605,12.11327,-26.66194,1008.06
2.028598785,0.6263342,2.482013,-1.138352,-0.01383226,-0.04394937,1.004601,31.30301,12.83102,-27.49827,1008.06
2.031075478,0.8100346,2.4215,-1.383002,-0.01529449,-0.041026,1.008486,31.30301,12.83102,-27.49827,1008.06
2.033551693,0.9325016,2.724063,-1.688814,-0.01337104,-0.04152044,1.001233,31.30301,12.83102,-27.49827,1008.06
2.038506031,1.054968,2.603038,-2.178114,-0.004600779,-0.04586332,0.998749,31.30301,12.83102,-27.49827,1008.06
2.040983200,1.238669,2.4215,-2.055789,-0.006539076,-0.05124595,0.9919745,31.30301,12.83102,-27.49827,1008.06
2.043459892,1.422369,2.300474,-2.178114,-0.0007255457,-0.05220952,0.9837322,31.30301,12.83102,-27.49827,1008.06
2.045937061,1.667303,2.360987,-1.994627,0.004672089,-0.05752511,0.9889849,31.30301,12.83102,-27.49827,1008.06
2.048413754,1.667303,2.058424,-1.933464,-0.0001497748,-0.06436488,0.9899415,31.30301,12.83102,-27.49827,1008.06
2.050890446,1.728537,1.695347,-1.627652,0.003265454,-0.06482832,0.9923338,31.30301,12.83102,-27.49827,1008.06
2.053367615,1.667303,1.453297,-1.260677,0.006207978,-0.06772891,0.9947162,31.30301,12.83102,-27.49827,1008.06
2.055844307,1.299902,1.271759,-0.8937021,0.01159638,-0.06962901,1.002882,31.30301,12.83102,-27.49827,1008.06
2.058321476,0.8712681,0.9086823,-0.5878899,0.01401927,-0.07011155,0.999488,31.30301,12.83102,-27.49827,1008.06
2.060798168,0.5038673,0.4850934,0.08489711,0.01698036,-0.07397661,1.005727,31.30301,12.83102,-27.49827,1008.06
2.063275814,0.07523298,0.364068,0.9411715,0.01312515,-0.08032676,1.005715,31.30301,12.83102,-27.49827,1008.06
2.065752506,-0.1697009,0.5456061,1.491634,0.007796798,-0.08327249,1.007177,31.30301,12.83102,-27.49827,1008.06
2.068228722,-0.1084674,0.364068,2.286746,0.009684889,-0.073037,1.007219,31.30301,12.83102,-27.49827,1008.06
2.070706368,0.07523298,0.364068,3.020695,0.007731373,-0.07305292,1.004817,31.30301,12.83102,-27.49827,1008.06
2.073183060,-0.04723396,0.5456061,3.632319,-0.001030731,-0.07163746,1.004872,31.30301,12.83102,-27.49827,1008.06
2.075660229,-0.2309344,0.6061188,4.243944,-0.0006037981,-0.06043333,1.005893,31.30301,12.83102,-27.49827,1008.06
2.078136921,-0.2921678,0.5456061,4.366269,-0.004044639,-0.05509947,1.004008,30.95197,11.74981,-26.27405,1008.061
2.080614090,-0.2309344,0.364068,4.672081,-0.01138484,-0.04881423,1.001184,30.95197,11.74981,-26.27405,1008.061
2.083090782,-0.3534013,0.1825299,4.672081,-0.0152907,-0.04346765,1.005577,30.95197,11.74981,-26.27405,1008.061
2.085567474,-0.4146348,-0.1200336,4.366269,-0.02456312,-0.03864975,1.004205,30.95197,11.74981,-26.27405,1008.061
2.088044643,-0.6595686,-0.3620844,4.243944,-0.02219639,-0.0308616,0.9979571,30.95197,11.74981,-26.27405,1008.061
2.090521336,-0.7820356,-0.4225971,3.938132,-0.02703288,-0.02891212,1.009095,30.95197,11.74981,-26.27405,1008.061
2.092998505,-0.9045025,-0.241059,3.38767,-0.03189562,-0.02844802,1.01009,30.95197,11.74981,-26.27405,1008.061
2.095475197,-0.6595686,-0.1805463,3.020695,-0.03482401,-0.03042606,1.003821,30.95197,11.74981,-26.27405,1008.061
2.097952843,-0.4758682,-0.05952091,2.531395,-0.03239344,-0.02992537,1.004292,30.95197,11.74981,-26.27405,1008.061
2.100429058,-0.1697009,0.1220172,2.164421,-0.03579551,-0.02651929,1.010603,30.95197,11.74981,-26.27405,1008.061
2.102905750,0.0139995,0.3035553,1.736283,-0.03873039,-0.02410211,1.009667,30.95197,11.74981,-26.27405,1008.061
2.105383396,0.1976999,0.4850934,1.185821,-0.04012335,-0.03090669,1.017845,30.95197,11.74981,-26.27405,1008.061
2.107860565,0.5038673,0.7271442,0.7576842,-0.03725829,-0.02408518,1.01352,30.95197,11.74981,-26.27405,1008.061
2.110337257,0.6875677,1.271759,0.02373465,-0.03628067,-0.02114337,1.019805,30.95197,11.74981,-26.27405,1008.061
2.112813950,0.8712681,1.75586,-0.7102148,-0.04015871,-0.02017677,1.02514,30.95197,11.74981,-26.27405,1008.061
2.115291119,1.116202,2.179449,-1.444164,-0.03432496,-0.02063701,1.023658,30.95197,11.74981,-26.27405,1008.061
2.117767811,1.361136,2.784576,-1.994627,-0.02896277,-0.02108921,1.026522,30.95197,11.74981,-26.27405,1008.063
2.120244503,1.78977,3.510728,-2.850901,-0.0289279,-0.0279085,1.025522,30.95197,11.74981,-26.27405,1008.063
2.122721672,2.095937,4.236881,-3.401363,-0.02451119,-0.03763489,1.021103,30.95197,11.74981,-26.27405,1008.063
2.125198364,2.524572,4.781495,-3.707175,-0.02305003,-0.03860353,1.020125,30.95197,11.74981,-26.27405,1008.063
2.127675533,2.830739,5.084059,-3.8295,-0.02303428,-0.0449476,1.0143,30.95197,11.74981,-26.27405,1008.063
2.130152226,3.320607,5.507648,-4.196475,-0.01716671,-0.05027241,1.014724,31.31522,12.10485,-27.10529,1008.063
2.132629871,3.626774,5.689186,-4.441124,-0.01424986,-0.05270247,1.010351,31.31522,12.10485,-27.10529,1008.063
2.135106087,3.38184,5.810211,-4.257637,-0.01714389,-0.05905579,1.006956,31.31522,12.10485,-27.10529,1008.063
2.137582779,3.38184,5.931237,-4.196475,-0.01032334,-0.06438962,1.001581,31.31522,12.10485,-27.10529,1008.063
2.140060425,3.259373,5.689186,-4.012987,-0.009837613,-0.06780962,0.995769,31.31522,12.10485,-27.10529,1008.063
2.142537117,2.953206,5.447135,-3.646013,-0.009327333,-0.07414532,0.9923548,31.31522,12.10485,-27.10529,1008.063
2.145014286,2.953206,5.084059,-2.973226,-0.008368946,-0.07806147,0.9817106,31.31522,12.10485,-27.10529,1008.063
2.147490978,2.402105,4.357906,-2.300439,-0.01277653,-0.07908375,0.9711105,31.31522,12.10485,-27.10529,1008.063
2.149967670,1.912237,3.510728,-1.688814,-0.01521908,-0.07714864,0.9711338,31.31522,12.10485,-27.10529,1008.063
2.152444840,1.667303,2.845089,-1.07719,-0.01376997,-0.08008139,0.9633879,31.31522,12.10485,-27.10529,1008.063
2.154921532,1.422369,1.816373,-0.465565,-0.01377813,-0.07715398,0.9658164,31.31522,12.10485,-27.10529,1008.063
2.157398701,0.8100346,0.7271442,-0.03742781,-0.01576765,-0.07279579,0.9600576,31.31522,12.10485,-27.10529,1008.064
2.159875393,0.3201669,-0.05952091,0.3907094,-0.01868943,-0.07183587,0.9605612,31.31522,12.10485,-27.10529,1008.064
2.162352562,-0.1084674,-1.088237,0.9411715,-0.01820091,-0.07134291,0.9620091,31.31522,12.10485,-27.10529,1008.064
2.164829254,-0.5983351,-1.874902,1.430471,-0.01728935,-0.06453734,0.9552816,31.31522,12.10485,-27.10529,1008.064
2.167305946,-0.7208021,-3.024643,1.675121,-0.02067888,-0.06307777,0.9620652,31.31522,12.10485,-27.10529,1008.064
2.169783115,-1.02697,-4.113872,1.797446,-0.02213725,-0.05819617,0.9703037,31.31522,12.10485,-27.10529,1008.064
2.172259808,-1.39437,-5.021563,2.103258,-0.02304827,-0.0659791,0.9755781,31.31522,12.10485,-27.10529,1008.064
2.174737454,-1.639304,-5.687202,2.470233,-0.02160226,-0.05718113,0.9862343,31.31522,12.10485,-27.10529,1008.064
2.177213669,-1.639304,-5.868741,2.592558,-0.01819352,-0.05324937,0.9939588,31.31522,12.10485,-27.10529,1008.064
2.179691315,-1.823005,-6.050279,2.714883,-0.02015025,-0.04886774,0.9978533,31.68154,12.49117,-26.28979,1008.064
2.182168007,-1.823005,-5.989766,2.531395,-0.01577105,-0.04542138,1.004122,31.68154,12.49117,-26.28979,1008.064
2.184644699,-1.700538,-5.929253,2.286746,-0.01234487,-0.04489927,1.011346,31.68154,12.49117,-26.28979,1008.064
2.187121868,-1.271903,-5.263614,2.347908,-0.01085637,-0.04487062,1.020026,31.68154,12.49117,-26.28979,1008.064
2.189598560,-0.9045025,-4.597974,1.797446,-0.01132356,-0.04388171,1.027274,31.68154,12.49117,-26.28979,1008.064
2.192075729,-0.6595686,-3.992847,1.552796,-0.008888075,-0.04337751,1.029194,31.68154,12.49117,-26.28979,1008.064
2.194552422,-0.2921678,-3.145669,1.430471,-0.009871057,-0.03947895,1.032598,31.68154,12.49117,-26.28979,1008.064
2.197029591,0.07523298,-2.177466,1.063496,-0.007919757,-0.0414201,1.031129,31.68154,12.49117,-26.28979,1008.061
2.199506283,0.4426338,-1.209262,0.8188466,-0.005950978,-0.04383763,1.034002,31.68154,12.49117,-26.28979,1008.061
2.201982975,0.6875677,-0.6041352,0.5741968,-0.007883755,-0.04579422,1.034486,31.68154,12.49117,-26.28979,1008.061
2.204460144,1.054968,0.1825299,0.6353592,-0.01082034,-0.04777811,1.025803,31.68154,12.49117,-26.28979,1008.061
2.206936836,1.238669,0.9691951,0.4518718,-0.01424864,-0.04439077,1.024391,31.68154,12.49117,-26.28979,1008.061
2.209414482,1.483603,1.574322,0.2683845,-0.01620269,-0.04342933,1.023442,31.68154,12.49117,-26.28979,1008.061
2.211890698,1.60607,2.058424,0.3295469,-0.01718574,-0.04393066,1.019583,31.68154,12.49117,-26.28979,1008.061
2.214368343,1.667303,2.4215,0.207222,-0.0176841,-0.04443065,1.015239,31.68154,12.49117,-26.28979,1008.061
2.216845036,1.299902,2.724063,0.1460596,-0.0191502,-0.04493216,1.012348,31.68154,12.49117,-26.28979,1008.061
2.219321728,1.422369,2.784576,0.02373465,-0.02501569,-0.04645009,1.001271,31.68154,12.49117,-26.28979,1008.061
2.221798897,1.238669,2.663551,-0.1597527,-0.02795932,-0.04452803,0.996953,31.68154,12.49117,-26.28979,1008.061
2.224275589,0.9325016,2.300474,-0.1597527,-0.02941067,-0.04501899,0.9984065,31.68154,12.49117,-26.28979,1008.061
2.226752758,0.8712681,1.75586,-0.2209152,-0.02800251,-0.04504777,0.9834357,31.68154,12.49117,-26.28979,1008.061
2.229229450,0.6263342,1.211246,-0.465565,-0.02946854,-0.04114938,0.9878078,31.3103,12.47997,-26.66842,1008.061
2.231706619,0.1976999,0.6666315,-0.5267274,-0.02264464,-0.04208096,0.9906616,31.3103,12.47997,-26.66842,1008.061
2.234183312,-0.2309344,0.0009917939,-0.5267274,-0.01921957,-0.04253737,0.9959501,31.3103,12.47997,-26.66842,1008.061
2.236660004,-0.7208021,-0.1805463,-0.8325397,-0.01826548,-0.04156787,0.9920884,31.3103,12.47997,-26.66842,1008.062
2.239137173,-0.7820356,-0.3015717,-0.9548646,-0.01774645,-0.04740845,0.9920556,31.3103,12.47997,-26.66842,1008.062
2.241613865,-0.6595686,-0.4225971,-1.138352,-0.01577769,-0.0512926,0.9925075,31.3103,12.47997,-26.66842,1008.062
2.244091034,-0.2921678,-0.5436226,-1.199515,-0.01287607,-0.04835596,0.9925067,31.3103,12.47997,-26.66842,1008.062
2.246567726,0.3814003,-0.241059,-1.016027,-0.01526899,-0.05322958,0.9958736,31.3103,12.47997,-26.66842,1008.062
2.249045372,1.177435,0.364068,-1.07719,-0.01087674,-0.05417375,0.9987406,31.3103,12.47997,-26.66842,1008.062
2.251522064,2.218405,0.4850934,-1.321839,-0.01039914,-0.05319972,0.9977777,31.3103,12.47997,-26.66842,1008.062
2.253998280,2.708272,0.9691951,-1.260677,-0.01187069,-0.05272738,0.9948922,31.3103,12.47997,-26.66842,1008.062
2.256475926,2.891973,0.9691951,-1.138352,-0.01284769,-0.05078003,0.9968382,31.3103,12.47997,-26.66842,1008.062
2.258952618,2.953206,0.9086823,-1.260677,-0.01673611,-0.04884309,1.000731,31.3103,12.47997,-26.66842,1008.062
2.261429787,2.585805,0.7271442,-1.444164,-0.01920271,-0.04790292,0.992061,31.3103,12.47997,-26.66842,1008.062
2.263906479,1.973471,0.4850934,-1.627652,-0.01822678,-0.04789555,0.993021,31.3103,12.47997,-26.66842,1008.062
2.266383648,1.483603,0.3035553,-1.566489,-0.01963609,-0.05177857,1.001214,31.3103,12.47997,-26.66842,1008.062
2.268860340,1.177435,-0.241059,-1.505327,-0.01333625,-0.05420625,0.9905484,31.3103,12.47997,-26.66842,1008.062
2.271337032,0.7488011,-0.3620844,-1.444164,-0.01477561,-0.057133,0.9915068,31.3103,12.47997,-26.66842,1008.062
2.273814201,0.5651007,-0.3015717,-1.321839,-0.0113642,-0.05662143,0.9943867,31.3103,12.47997,-26.66842,1008.062
2.276290894,0.6875677,-0.1805463,-1.260677,-0.01133803,-0.06100258,0.9948468,31.3103,12.47997,-26.66842,1008.062
2.278768063,0.6875677,-0.241059,-1.138352,-0.009392712,-0.06099251,0.9948362,31.3103,12.47997,-26.66842,1008.062
2.281244755,0.8712681,0.0009917939,-0.8937021,-0.0103992,-0.05759962,0.9905149,31.31676,12.12049,-26.28192,1008.062
2.283722401,1.177435,0.4245807,-0.9548646,-0.008940193,-0.05612544,0.9929279,31.31676,12.12049,-26.28192,1008.062
2.286198616,1.177435,0.2430426,-0.7102148,-0.003587313,-0.05756204,0.9914433,31.31676,12.12049,-26.28192,1008.062
2.288675308,1.054968,0.0615045,-0.9548646,-0.006512379,-0.05660447,0.9909815,31.31676,12.12049,-26.28192,1008.062
2.291152954,0.8712681,-0.1200336,-0.8937021,-0.006030414,-0.0561162,0.9904986,31.31676,12.12049,-26.28192,1008.062
2.293629646,0.8100346,-0.1200336,-0.8937021,-0.003091123,-0.05608586,0.9967575,31.31676,12.12049,-26.28192,1008.062
2.296106815,0.5651007,-0.1200336,-0.8937021,-0.006934834,-0.06096118,1.002546,31.31676,12.12049,-26.28192,1008.062
2.298583508,0.3201669,-0.241059,-0.7713773,-0.005961666,-0.06340015,0.9986663,31.31676,12.12049,-26.28192,1008.062
2.301060677,0.1976999,-0.1805463,-0.6490523,-0.001614145,-0.05899869,0.9972172,31.31676,12.12049,-26.28192,1008.062
2.303537369,0.1364664,-0.241059,-0.5267274,-0.009862093,-0.06049404,1.000633,31.31676,12.12049,-26.28192,1008.062
2.308491230,-0.1697009,0.1220172,-0.03742781,-0.005409889,-0.07215055,1.003445,31.31676,12.12049,-26.28192,1008.062
2.310967922,-0.04723396,0.4245807,0.08489711,-0.005445937,-0.07070969,0.9952472,31.31676,12.12049,-26.28192,1008.062
2.313445091,-0.1697009,0.6061188,0.3907094,-0.006434969,-0.06925981,0.9928467,31.31676,12.12049,-26.28192,1008.062
2.315921784,0.1364664,0.6061188,0.6965217,-0.009382412,-0.06636274,0.9890164,31.31676,12.12049,-26.28192,1008.062
2.318399429,0.1976999,0.6061188,0.9411715,-0.01084468,-0.06637264,0.9880589,31.31676,12.12049,-26.28192,1008.063
2.320875645,-0.04723396,0.364068,1.124659,-0.01327628,-0.06345196,0.992914,31.31676,12.12049,-26.28192,1008.063
2.323352337,-0.1084674,-0.05952091,1.369309,-0.01330896,-0.05614223,0.9953651,31.31676,12.12049,-26.28192,1008.063
2.325829983,-0.04723396,-0.1805463,1.308146,-0.01330245,-0.05907081,0.9924541,31.31676,12.12049,-26.28192,1008.063
2.328306675,0.0139995,-0.4225971,1.491634,-0.01962202,-0.06105708,0.990065,31.31676,12.12049,-26.28192,1008.063
2.330783844,0.1364664,-0.4831098,1.430471,-0.02060612,-0.05813706,0.9915335,30.94551,12.10929,-26.66055,1008.063
2.333260536,0.0139995,-0.846186,1.552796,-0.02305358,-0.05620546,0.9901088,30.94551,12.10929,-26.66055,1008.063
2.335737705,0.0139995,-0.9672114,1.858608,-0.0235612,-0.05475658,0.9862575,30.94551,12.10929,-26.66055,1008.063
2.338214398,0.2589334,-1.027724,1.736283,-0.02498687,-0.05571806,0.9944659,30.94551,12.10929,-26.66055,1008.063
2.340691090,0.3201669,-1.330288,1.797446,-0.02985338,-0.05134567,1.00079,30.94551,12.10929,-26.66055,1008.063
2.343168259,0.07523298,-1.753877,1.980933,-0.02647253,-0.04890046,0.9978878,30.94551,12.10929,-26.66055,1008.063
2.345644951,-0.1084674,-2.05644,1.980933,-0.03133631,-0.045015,1.004209,30.94551,12.10929,-26.66055,1008.063
2.348122120,-0.2309344,-2.237978,1.797446,-0.0357214,-0.04064361,1.009082,30.94551,12.10929,-26.66055,1008.063
2.350598812,-0.2309344,-2.480029,1.491634,-0.03087772,-0.03623261,1.010527,30.94551,12.10929,-26.66055,1008.063
2.353075981,-0.2309344,-2.843105,1.369309,-0.02987123,-0.0396255,1.014848,30.94551,12.10929,-26.66055,1008.063
2.355552673,-0.1697009,-2.480029,0.9411715,-0.02692431,-0.04154521,1.020131,30.94551,12.10929,-26.66055,1008.063
2.358029366,0.0139995,-2.177466,0.7576842,-0.02592757,-0.0390786,1.03124,30.94551,12.10929,-26.66055,1008.064
2.360507011,0.1976999,-1.572338,0.6353592,-0.02789194,-0.03421356,1.033689,30.94551,12.10929,-26.66055,1008.064
2.362983227,0.8712681,-1.14875,0.3295469,-0.02793233,-0.03082033,1.027432,30.94551,12.10929,-26.66055,1008.064
2.365460873,1.422369,-0.5436226,0.1460596,-0.02984544,-0.03276286,1.033707,30.94551,12.10929,-26.66055,1008.064
2.367937565,2.218405,0.2430426,-0.03742781,-0.03179722,-0.02691108,1.041471,30.94551,12.10929,-26.66055,1008.064
2.370414734,2.769506,0.6061188,-0.5267274,-0.03130495,-0.03179305,1.035168,30.94551,12.10929,-26.66055,1008.064
2.372891426,3.01444,1.09022,-0.9548646,-0.03619771,-0.02890604,1.031349,30.94551,12.10929,-26.66055,1008.064
2.375368118,3.443074,1.453297,-1.505327,-0.0313595,-0.02498782,1.030377,30.94551,12.10929,-26.66055,1008.064
2.377845287,3.626774,1.816373,-1.994627,-0.02795032,-0.02789995,1.026965,30.94551,12.10929,-26.66055,1008.064
2.380321979,3.749241,1.937398,-2.300439,-0.02746946,-0.02839022,1.024546,31.3218,11.74658,-26.65546,1008.064
2.382799148,3.626774,2.058424,-2.667413,-0.03041044,-0.03135499,1.012962,31.3218,11.74658,-26.65546,1008.064
2.385275841,3.810475,2.300474,-2.973226,-0.02944166,-0.03477483,1.006182,31.3218,11.74658,-26.65546,1008.064
2.387752533,3.749241,2.360987,-3.034388,-0.02405878,-0.04010097,1.007091,31.3218,11.74658,-26.65546,1008.064
2.390229702,3.626774,2.360987,-3.279038,-0.02355668,-0.0449759,1.003684,31.3218,11.74658,-26.65546,1008.064
2.392706394,3.38184,2.4215,-3.340201,-0.02354529,-0.05083423,0.9973792,31.3218,11.74658,-26.65546,1008.064
2.395184040,3.504307,2.058424,-2.973226,-0.01626077,-0.05275941,0.9910546,31.3218,11.74658,-26.65546,1008.064
2.397660255,3.565541,2.058424,-2.606251,-0.01333136,-0.05566937,0.9895756,31.3218,11.74658,-26.65546,1008.065
2.400137901,3.38184,1.997911,-2.239276,-0.01870994,-0.05522888,0.9818844,31.3218,11.74658,-26.65546,1008.065
2.402614593,3.504307,1.634835,-2.116951,-0.02014872,-0.05619973,0.9862314,31.3218,11.74658,-26.65546,1008.065
2.405091762,3.443074,1.09022,-1.749977,-0.01672862,-0.05959293,0.9852299,31.3218,11.74658,-26.65546,1008.065
2.407568455,3.136906,0.5456061,-1.444164,-0.01626853,-0.05960916,0.9775045,31.3218,11.74658,-26.65546,1008.065
2.410045147,2.830739,0.1825299,-1.260677,-0.01820899,-0.0640156,0.9717003,31.3218,11.74658,-26.65546,1008.065
2.412522316,2.402105,-0.241059,-0.8937021,-0.01285717,-0.06349748,0.9731217,31.3218,11.74658,-26.65546,1008.065
2.414999008,2.095937,-0.9066988,-0.4044026,-0.01478663,-0.06251846,0.9794121,31.3218,11.74658,-26.65546,1008.065
2.417476177,1.78977,-1.451313,-0.1597527,-0.01526148,-0.06251279,0.9827935,31.3218,11.74658,-26.65546,1008.065
2.419952869,1.116202,-2.05644,0.2683845,-0.0142594,-0.06835319,0.9817926,31.3218,11.74658,-26.65546,1008.065
2.422429561,0.7488011,-2.419516,0.6965217,-0.01331233,-0.0620111,0.9847161,31.3218,11.74658,-26.65546,1008.065
2.424906731,0.3814003,-3.266694,1.063496,-0.01185547,-0.0580941,0.9905204,31.3218,11.74658,-26.65546,1008.065
2.427383423,-0.1697009,-3.629771,1.308146,-0.02109953,-0.0571669,0.9910584,31.3218,11.74658,-26.65546,1008.065
2.429860592,-0.4758682,-3.811309,1.613959,-0.01724107,-0.05228103,0.9896144,31.3218,11.74658,-26.65546,1008.065
2.432337284,-0.5371017,-3.871821,1.613959,-0.01722082,-0.05031107,0.9987952,31.32084,11.80769,-26.65654,1008.065
2.434814930,-0.7208021,-3.811309,1.797446,-0.01818415,-0.04786508,1.005571,31.32084,11.80769,-26.65654,1008.065
2.437291622,-0.6595686,-3.750796,1.797446,-0.01818955,-0.04395796,1.010417,31.32084,11.80769,-26.65654,1008.066
2.439767837,-0.5371017,-3.266694,1.675121,-0.01869981,-0.03615563,1.016253,31.32084,11.80769,-26.65654,1008.066
2.442245483,-0.3534013,-2.480029,1.491634,-0.01625454,-0.03857766,1.016227,31.32084,11.80769,-26.65654,1008.066
2.444722175,0.07523298,-1.814389,1.063496,-0.01578451,-0.03272034,1.021081,31.32084,11.80769,-26.65654,1008.066
2.447199345,0.5038673,-1.14875,0.5130343,-0.01774837,-0.0302993,1.019656,31.32084,11.80769,-26.65654,1008.066
2.449676037,1.238669,-0.3620844,-0.03742781,-0.01581287,-0.02882963,1.01917,31.32084,11.80769,-26.65654,1008.066
2.452153206,2.095937,0.4850934,-0.3432401,-0.01873962,-0.03080649,1.013384,31.32084,11.80769,-26.65654,1008.066
2.454629898,2.769506,1.332271,-0.7713773,-0.02167783,-0.03132492,1.00664,31.32084,11.80769,-26.65654,1008.066
2.457107067,3.810475,1.453297,-1.260677,-0.02123027,-0.02939462,0.998442,31.32084,11.80769,-26.65654,1008.066
2.459583759,4.728976,1.997911,-1.505327,-0.0231291,-0.02741598,1.015356,31.32084,11.80769,-26.65654,1008.066
2.462060451,5.096377,2.905602,-1.933464,-0.0168177,-0.02396893,1.017753,31.32084,11.80769,-26.65654,1008.066
2.464537620,5.341311,3.631754,-2.606251,-0.0207499,-0.02597426,1.002318,31.32084,11.80769,-26.65654,1008.066
2.467014313,5.769945,4.357906,-3.401363,-0.02080066,-0.02161069,0.9946181,31.32084,11.80769,-26.65654,1008.066
2.469491958,6.19858,4.842008,-4.318799,-0.01980458,-0.02696651,0.9926545,31.32084,11.80769,-26.65654,1008.066
2.471968651,5.892412,4.539444,-4.746937,-0.014913,-0.03523195,0.9872758,31.32084,11.80769,-26.65654,1008.066
2.474445820,5.769945,3.934317,-4.991587,-0.01735776,-0.03525391,0.9834277,31.32084,11.80769,-26.65654,1008.066
2.476922512,5.525012,3.389703,-5.052749,-0.01684751,-0.04305624,0.9775927,31.32084,11.80769,-26.65654,1008.064
2.479399204,5.035144,2.542525,-4.808099,-0.01387778,-0.05375934,0.9751081,31.32084,11.80769,-26.65654,1008.064
2.481876373,4.361576,1.75586,-4.563449,-0.007558752,-0.05226233,0.9765291,31.31605,12.11327,-26.66194,1008.064
2.484353065,3.810475,1.09022,-4.135312,-0.004128258,-0.05515923,0.9793916,31.31605,12.11327,-26.66194,1008.064
2.486830234,3.38184,0.4245807,-3.890663,-0.00167204,-0.0565957,0.9841976,31.31605,12.11327,-26.66194,1008.064
2.489306927,3.01444,0.0009917939,-3.523688,0.00226058,-0.06290089,0.9860743,31.31605,12.11327,-26.66194,1008.064
2.491784096,2.953206,-0.5436226,-3.034388,0.003739774,-0.06385665,0.9904054,31.31605,12.11327,-26.66194,1008.064
2.494260788,2.891973,-0.7856733,-2.667413,0.002268292,-0.05898441,0.9947826,31.31605,12.11327,-26.66194,1008.064
2.496737480,2.891973,-1.088237,-2.239276,0.006640869,-0.05994263,0.9918577,31.31605,12.11327,-26.66194,1008.064
2.499214649,3.075673,-1.14875,-1.627652,0.009555035,-0.05895252,0.9923295,31.31605,12.11327,-26.66194,1008.064
2.501691341,3.504307,-1.209262,-1.321839,0.01054848,-0.05795489,1.000052,31.31605,12.11327,-26.66194,1008.064
2.504168987,3.688008,-1.027724,-1.016027,0.009539838,-0.05211917,0.9991221,31.31605,12.11327,-26.66194,1008.064
2.506645203,3.871708,-1.209262,-0.7102148,0.006138789,-0.05360107,0.9976851,31.31605,12.11327,-26.66194,1008.064
2.509122848,3.810475,-0.9672114,-0.5267274,-0.001129895,-0.05215345,1.007869,31.31605,12.11327,-26.66194,1008.064
2.511599541,3.810475,-0.846186,-0.3432401,0.002257505,-0.04970355,1.006897,31.31605,12.11327,-26.66194,1008.064
2.514076233,3.810475,-0.846186,0.08489711,0.003731759,-0.05212945,1.007359,31.31605,12.11327,-26.66194,1008.064
2.516553402,3.626774,-0.5436226,0.3295469,-0.00307683,-0.05069805,1.009817,31.31605,12.11327,-26.66194,1008.065
2.519030094,3.565541,-0.3015717,0.5130343,-0.008884447,-0.0560856,1.009339,31.31605,12.11327,-26.66194,1008.065
2.521507263,3.443074,-0.3620844,0.8800091,-0.01135752,-0.04928358,1.008422,31.31605,12.11327,-26.66194,1008.065
2.523983955,3.320607,-0.4831098,1.063496,-0.008478852,-0.04636334,1.001664,31.31605,12.11327,-26.66194,1008.065
2.526461124,3.259373,-0.7251607,1.369309,-0.01283616,-0.04783856,1.005059,31.31605,12.11327,-26.66194,1008.065
2.528937817,2.830739,-1.027724,1.675121,-0.02162829,-0.04400019,1.0003,31.31605,12.11327,-26.66194,1008.065
2.531414509,2.463338,-1.3908,1.797446,-0.01728232,-0.03373338,1.008052,30.95126,11.74259,-26.65407,1008.065
2.533891678,2.340871,-1.572338,1.675121,-0.01532007,-0.03468895,1.011415,30.95126,11.74259,-26.65407,1008.065
2.536368370,2.279638,-1.753877,1.675121,-0.02555807,-0.03084876,1.010525,30.95126,11.74259,-26.65407,1008.065
2.538846016,1.912237,-1.693364,1.552796,-0.0280017,-0.02842554,1.011034,30.95126,11.74259,-26.65407,1008.065
2.541322231,1.422369,-1.451313,1.369309,-0.02898581,-0.02697215,1.010081,30.95126,11.74259,-26.65407,1008.065
2.543799877,1.238669,-1.3908,1.063496,-0.02652957,-0.02694199,1.017308,30.95126,11.74259,-26.65407,1008.065
2.546276569,1.177435,-1.14875,0.8188466,-0.02358432,-0.0303295,1.019688,30.95126,11.74259,-26.65407,1008.065
2.548753261,1.177435,-0.6041352,0.6965217,-0.02162924,-0.0347123,1.015311,30.95126,11.74259,-26.65407,1008.065
2.551230430,1.544836,-0.1200336,0.4518718,-0.02652417,-0.0308491,1.012461,30.95126,11.74259,-26.65407,1008.065
2.553707123,1.851004,0.2430426,0.08489711,-0.02559514,-0.02451991,1.010075,30.95126,11.74259,-26.65407,1008.065
2.556184292,2.034704,0.4245807,-0.2209152,-0.0270432,-0.02500852,1.012494,30.95126,11.74259,-26.65407,1008.065
2.558660984,2.340871,0.6061188,-0.4044026,-0.02704262,-0.02305262,1.015883,30.95126,11.74259,-26.65407,1008.065
2.561138153,2.647039,0.9691951,-0.8325397,-0.02652521,-0.02742774,1.017788,30.95126,11.74259,-26.65407,1008.065
2.563614845,2.647039,1.150733,-1.444164,-0.02459407,-0.02547232,1.016822,30.95126,11.74259,-26.65407,1008.065
2.566091537,2.463338,1.150733,-1.566489,-0.01975597,-0.02888726,1.003746,30.95126,11.74259,-26.65407,1008.065
2.568568706,2.585805,1.332271,-1.994627,-0.01876639,-0.02984787,1.007114,30.95126,11.74259,-26.65407,1008.065
2.571045399,2.524572,1.332271,-2.055789,-0.01680308,-0.03275818,1.007571,30.95126,11.74259,-26.65407,1008.065
2.573522568,2.585805,1.09022,-2.116951,-0.01776648,-0.03471208,1.007084,30.95126,11.74259,-26.65407,1008.065
2.578476906,2.891973,0.8481696,-2.116951,-0.0133748,-0.03761215,1.006562,30.95126,11.74259,-26.65407,1008.065
2.580953598,2.708272,0.7876569,-2.055789,-0.004615467,-0.04147396,1.001668,30.95126,11.74259,-26.65407,1008.065
2.583429813,2.708272,0.7271442,-2.178114,-0.004144981,-0.04099389,0.9978062,31.31522,12.10485,-27.10529,1008.065
2.585907459,2.769506,0.4850934,-2.055789,-0.00362535,-0.04341193,1.003583,31.31522,12.10485,-27.10529,1008.065
2.588384151,2.524572,0.4245807,-1.811139,-0.002677748,-0.03804722,1.005053,31.31522,12.10485,-27.10529,1008.065
2.590861320,2.402105,0.3035553,-1.627652,0.002689356,-0.03849591,1.009366,31.31522,12.10485,-27.10529,1008.065
2.593338013,2.157171,0.4245807,-1.627652,0.004190329,-0.04481369,1.011256,31.31522,12.10485,-27.10529,1008.065
2.595815182,2.095937,0.4850934,-1.444164,0.00365488,-0.04045146,1.004041,31.31522,12.10485,-27.10529,1008.065
2.598291874,2.157171,0.5456061,-1.138352,0.003678365,-0.04141242,1.009346,31.31522,12.10485,-27.10529,1008.062
2.600768566,2.157171,0.4850934,-1.138352,0.006622507,-0.04577847,1.00979,31.31522,12.10485,-27.10529,1008.062
2.603245735,2.034704,0.4850934,-1.016027,0.005110035,-0.04093552,1.0021,31.31522,12.10485,-27.10529,1008.062
2.605722427,1.973471,0.5456061,-1.07719,0.001225358,-0.0443735,0.9982421,31.31522,12.10485,-27.10529,1008.062
2.608199596,2.157171,0.4850934,-0.9548646,0.003185387,-0.04728616,0.9977337,31.31522,12.10485,-27.10529,1008.062
2.610676289,2.340871,0.4850934,-0.6490523,0.005125254,-0.04630224,0.9977282,31.31522,12.10485,-27.10529,1008.062
2.613153934,2.218405,0.364068,-0.4044026,0.007056369,-0.04581346,0.9943413,31.31522,12.10485,-27.10529,1008.062
2.615630627,2.157171,0.2430426,-0.2209152,0.006081562,-0.04337566,0.9977379,31.31522,12.10485,-27.10529,1008.062
2.618106842,2.340871,0.1220172,-0.03742781,-0.003151029,-0.04244026,1.001655,31.31522,12.10485,-27.10529,1008.062
2.620584488,2.279638,0.0615045,-0.09859026,-0.002675046,-0.04000078,1.00263,31.31522,12.10485,-27.10529,1008.062
2.623061180,1.973471,-0.1200336,-0.09859026,-0.002681581,-0.03853883,1.00312,31.31522,12.10485,-27.10529,1008.062
2.625538349,1.728537,-0.3620844,0.1460596,-0.005593045,-0.04148251,1.000225,31.31522,12.10485,-27.10529,1008.062
2.628015041,1.544836,-0.6041352,0.2683845,-0.006571131,-0.03904706,1.002656,31.31522,12.10485,-27.10529,1008.062
2.630492210,1.483603,-0.7856733,0.02373465,-0.006543349,-0.04489367,1.001178,31.31522,12.10485,-27.10529,1008.062
2.632968903,1.361136,-0.6646479,0.02373465,-0.005127961,-0.03709533,1.00121,30.94469,12.10087,-27.1039,1008.062
2.635445595,1.422369,-0.7856733,0.08489711,-0.007050925,-0.04051152,1.002169,30.94469,12.10087,-27.1039,1008.062
2.637922764,1.728537,-0.5436226,0.2683845,-0.01240163,-0.04005112,1.002683,30.94469,12.10087,-27.1039,1008.064
2.640399456,1.973471,-0.1805463,0.2683845,-0.007055844,-0.04051504,1.000721,30.94469,12.10087,-27.1039,1008.064
2.642876625,2.647039,0.1220172,0.1460596,-0.006589166,-0.03905995,0.9973469,30.94469,12.10087,-27.1039,1008.064
2.645353317,3.19814,0.3035553,0.08489711,-0.006132236,-0.03174537,1.000761,30.94469,12.10087,-27.1039,1008.064
2.647830963,3.259373,0.4245807,-0.03742781,-0.004197819,-0.0297876,1.00076,30.94469,12.10087,-27.1039,1008.064
2.650307178,2.953206,0.5456061,0.02373465,-0.007032867,-0.039032,1.009899,30.94469,12.10087,-27.1039,1008.064
2.652783871,3.01444,0.5456061,-0.09859026,-0.007990191,-0.03707059,1.017637,30.94469,12.10087,-27.1039,1008.064
2.655261516,3.01444,0.9691951,-0.3432401,-0.00605097,-0.04244247,1.00698,30.94469,12.10087,-27.1039,1008.064
2.657738209,2.769506,1.029708,-0.465565,-0.004588171,-0.04340994,1.006484,30.94469,12.10087,-27.1039,1008.064
2.660215378,2.463338,1.029708,-0.4044026,-0.006520994,-0.0482998,1.002126,30.94469,12.10087,-27.1039,1008.064
2.662692070,2.463338,1.271759,-0.09859026,-0.00458773,-0.05025384,0.9953476,30.94469,12.10087,-27.1039,1008.064
2.665169239,2.830739,1.392784,0.08489711,-0.007526999,-0.04881753,0.9915098,30.94469,12.10087,-27.1039,1008.064
2.667645931,3.01444,1.453297,0.3907094,-0.009486473,-0.04541562,0.9929859,30.94469,12.10087,-27.1039,1008.064
2.670122623,3.320607,1.453297,0.5741968,-0.008993676,-0.05127494,0.9852303,30.94469,12.10087,-27.1039,1008.064
2.672599792,3.565541,1.453297,0.8188466,-0.007052679,-0.04784586,0.9895814,30.94469,12.10087,-27.1039,1008.064
2.675076485,3.504307,1.392784,0.8800091,-0.01142032,-0.04541748,0.9963753,30.94469,12.10087,-27.1039,1008.064
2.677553654,3.136906,0.9691951,1.124659,-0.009029034,-0.04054502,0.9925258,30.94469,12.10087,-27.1039,1008.065
2.680030346,2.953206,0.9691951,1.063496,-0.01148636,-0.04008709,0.9857842,30.94469,12.10087,-27.1039,1008.065
2.682507992,2.585805,0.6061188,1.002334,-0.01635996,-0.03474203,0.9916304,30.94469,12.10087,-27.1039,1008.065
2.684985161,2.218405,0.1220172,1.124659,-0.0178173,-0.03474841,0.992121,30.95523,11.42859,-27.09202,1008.065
2.687461853,1.78977,-0.3620844,1.185821,-0.01925668,-0.03914179,0.9906582,30.95523,11.42859,-27.09202,1008.065
2.689938545,1.78977,-0.6041352,1.308146,-0.01631855,-0.04302326,0.9901396,30.95523,11.42859,-27.09202,1008.065
2.692414761,1.60607,-0.846186,1.308146,-0.01972225,-0.03961835,0.9959679,30.95523,11.42859,-27.09202,1008.065
