Time (s),Gyroscope X (deg/s),Gyroscope Y (deg/s),Gyroscope Z (deg/s),Accelerometer X (g),Accelerometer Y (g),Accelerometer Z (g),Magnetometer X (uT),Magnetometer Y (uT),Magnetometer Z (uT),Barometer (hPa)
0.000000000,-0.4758682,-3.508745,0.8188466,0.02740252,0.0721973,1.022349,31.13003,11.74917,-29.63265,998.2339
0.000000000,-0.4758682,-3.508745,0.8188466,0.02740252,0.0721973,1.022349,31.13003,11.74917,-29.63265,998.2339
0.002477646,-0.9045025,-3.206182,1.002334,0.02351568,0.0697355,1.019461,31.13003,11.74917,-29.63265,998.2339
0.007431984,-1.333137,-1.935415,1.124659,0.01767924,0.07361594,1.025788,30.38966,11.74842,-29.24985,998.2339
0.007431984,-1.333137,-1.935415,1.124659,0.01767924,0.07361594,1.025788,30.38966,11.74842,-29.24985,998.2339
0.009909630,-1.02697,-1.209262,1.246984,0.006947269,0.07793703,1.023456,30.38966,11.74842,-29.24985,998.2354
0.012386799,-0.7208021,-0.6041352,1.002334,0.005941355,0.08328582,1.022523,30.38966,11.74842,-29.24985,998.2354
0.014863968,-0.8432691,0.0615045,0.8800091,0.004028207,0.07841002,1.023957,30.38966,11.74842,-29.24985,998.2354
0.019818783,-1.333137,1.09022,0.3295469,0.01133624,0.07699051,1.025357,30.38966,11.74842,-29.24985,998.2354
0.022295952,-1.823005,1.271759,0.1460596,0.006954381,0.07843098,1.026354,30.38966,11.74842,-29.24985,998.2354
0.024773121,-2.190405,1.453297,-0.2209152,0.0118362,0.07455841,1.025342,30.38966,11.74842,-29.24985,998.2354
0.027250767,-2.741507,1.634835,-0.3432401,0.009432886,0.06918848,1.024845,30.38966,11.74842,-29.24985,998.2354
0.032205105,-4.333577,1.876886,-0.7713773,0.005039988,0.06377684,1.011326,30.38966,11.74842,-29.24985,998.2354
0.034682274,-4.945911,1.876886,-0.7102148,0.01135354,0.06478107,1.010332,30.38966,11.74842,-29.24985,998.2354
0.037159920,-5.190845,1.453297,-1.016027,0.006453114,0.06668486,1.002645,30.38966,11.74842,-29.24985,998.2354
0.039637089,-5.374546,1.09022,-1.199515,0.003072733,0.05886238,0.9968315,30.38966,11.74842,-29.24985,998.2354
0.042114258,-5.190845,0.7271442,-1.199515,-0.0008413873,0.05980321,0.9915483,30.38966,11.74842,-29.24985,998.2354
0.044591904,-4.823445,0.4850934,-1.199515,0.000608295,0.05882636,0.9871913,30.38966,11.74842,-29.24985,998.2354
0.047069073,-4.456044,0.2430426,-1.07719,-0.004738095,0.05586776,0.9833439,30.38966,11.74842,-29.24985,998.2354
0.049546242,-3.598775,0.0615045,-1.321839,-0.006172535,0.05294452,0.9857501,30.38966,11.74842,-29.24985,998.2325
0.052023888,-2.98644,-0.05952091,-1.566489,-0.006210708,0.05829483,0.9833645,30.38966,11.74842,-29.24985,998.2325
0.054501057,-2.374106,-0.1200336,-1.811139,0.0001187089,0.06028813,0.9886494,31.12346,12.10744,-30.08248,998.2325
0.056978226,-2.006705,0.1220172,-1.872301,0.006465539,0.05740517,0.9910133,31.12346,12.10744,-30.08248,998.2325
0.059455395,-1.823005,0.6061188,-1.933464,0.006451337,0.05788389,0.9876371,31.12346,12.10744,-30.08248,998.2325
0.061933041,-1.700538,0.8481696,-2.055789,0.005993366,0.05399067,0.9895504,31.12346,12.10744,-30.08248,998.2325
0.064409733,-1.149436,1.150733,-2.239276,0.008440809,0.05059244,0.9885541,31.12346,12.10744,-30.08248,998.2325
0.066887379,-0.7820356,1.513809,-2.300439,0.0113883,0.05062863,0.9972264,31.12346,12.10744,-30.08248,998.2325
0.069364071,-0.4758682,1.75586,-2.361601,0.008475795,0.05110631,0.9996582,31.12346,12.10744,-30.08248,998.2325
0.071841717,-0.1697009,1.574322,-2.300439,0.007968705,0.05157783,0.994354,31.12346,12.10744,-30.08248,998.2325
0.074318886,0.0139995,1.332271,-2.055789,0.003621739,0.04766563,0.996771,31.12346,12.10744,-30.08248,998.2325
0.076796055,0.0139995,0.7271442,-2.116951,0.007493785,0.04718361,0.9904726,31.12346,12.10744,-30.08248,998.2325
0.081750870,-0.1697009,-0.7856733,-2.055789,-0.0003059839,0.05250772,0.9939213,31.12346,12.10744,-30.08248,998.2325
0.081750870,-0.1697009,-0.7856733,-2.055789,-0.0003059839,0.05250772,0.9939213,31.12346,12.10744,-30.08248,998.2325
0.084228039,-0.4758682,-1.935415,-2.055789,-0.003201583,0.05055312,0.9973059,31.12346,12.10744,-30.08248,998.2325
0.086705208,-0.9045025,-3.145669,-1.994627,-0.001244302,0.04666076,0.9943792,31.12346,12.10744,-30.08248,998.2325
0.089182854,-1.21067,-3.932334,-1.688814,-0.003264373,0.05441922,0.9852591,31.12346,12.10744,-30.08248,998.2355
0.091660023,-1.700538,-4.900537,-1.933464,-0.002266012,0.05542037,0.9944298,31.12346,12.10744,-30.08248,998.2355
0.094137192,-1.945472,-5.505664,-1.872301,-0.0002661482,0.04862522,0.9992105,31.12346,12.10744,-30.08248,998.2355
0.096614361,-2.190405,-5.868741,-1.994627,0.001166075,0.04959138,0.9929329,31.12346,12.10744,-30.08248,998.2355
0.099092007,-2.435339,-5.989766,-2.116951,0.004110794,0.04718123,0.9967659,31.12346,12.10744,-30.08248,998.2355
0.101569176,-2.067938,-6.110791,-2.178114,0.007030964,0.04768677,0.9982005,31.12346,12.10744,-30.08248,998.2355
0.106523991,-1.761771,-6.171304,-2.239276,0.01432092,0.04332111,0.98945,31.12849,11.73353,-30.45602,998.2355
0.106523991,-1.761771,-6.171304,-2.239276,0.01432092,0.04332111,0.98945,31.12849,11.73353,-30.45602,998.2355
0.116433144,-1.271903,-5.808228,-1.933464,0.01767894,0.05454971,0.9943161,31.12849,11.73353,-30.45602,998.2355
0.116433144,-1.271903,-5.808228,-1.933464,0.01767894,0.05454971,0.9943161,31.12849,11.73353,-30.45602,998.2355
0.118910313,-1.39437,-5.505664,-1.872301,0.02107232,0.0550484,0.9918867,31.12849,11.73353,-30.45602,998.2355
0.123865128,-1.271903,-4.174385,-1.688814,0.02740181,0.0614416,1.004434,31.12849,11.73353,-30.45602,998.2355
0.123865128,-1.271903,-4.174385,-1.688814,0.02740181,0.0614416,1.004434,31.12849,11.73353,-30.45602,998.2355
0.126342297,-1.333137,-3.38772,-1.994627,0.02646402,0.05461728,1.003439,31.12849,11.73353,-30.45602,998.2355
0.128819466,-1.39437,-2.661567,-2.055789,0.02935854,0.05705997,1.00054,31.12849,11.73353,-30.45602,998.2355
0.133774281,-0.965736,-0.7251607,-1.872301,0.02789738,0.05802861,1.001518,31.12849,11.73353,-30.45602,998.2344
0.133774281,-0.965736,-0.7251607,-1.872301,0.02789738,0.05802861,1.001518,31.12849,11.73353,-30.45602,998.2344
0.136251450,-0.7208021,0.0009917939,-1.688814,0.03715237,0.05662035,1.003391,31.12849,11.73353,-30.45602,998.2344
0.138728619,-0.6595686,0.6061188,-1.749977,0.03085789,0.05220765,1.004368,31.12849,11.73353,-30.45602,998.2344
0.141206265,-0.5983351,1.029708,-1.566489,0.02698964,0.05024802,1.007758,31.12849,11.73353,-30.45602,998.2344
0.146160603,-1.21067,1.029708,-1.199515,0.03280215,0.05417245,1.007264,31.12849,11.73353,-30.45602,998.2344
0.146160603,-1.21067,1.029708,-1.199515,0.03280215,0.05417245,1.007264,31.12849,11.73353,-30.45602,998.2344
0.148638248,-1.639304,0.9086823,-1.138352,0.02500829,0.05314544,1.001992,31.12849,11.73353,-30.45602,998.2344
0.151115418,-1.578071,0.9086823,-1.016027,0.02401547,0.05703698,1.0025,31.12849,11.73353,-30.45602,998.2344
0.153592587,-1.578071,0.5456061,-0.9548646,0.02255639,0.05116289,0.9928239,31.12849,11.73353,-30.45602,998.2344
0.158547401,-1.823005,0.0615045,-0.3432401,0.01961553,0.05553128,0.9933451,30.38167,12.09226,-30.45972,998.2344
0.158547401,-1.823005,0.0615045,-0.3432401,0.01961553,0.05553128,0.9933451,30.38167,12.09226,-30.45972,998.2344
0.161024571,-1.578071,-0.3015717,-0.2209152,0.01962754,0.05456213,0.9952708,30.38167,12.09226,-30.45972,998.2344
0.163501740,-1.516837,-0.4831098,0.1460596,0.01772645,0.05165043,1.003472,30.38167,12.09226,-30.45972,998.2344
0.165979385,-1.271903,-0.241059,0.207222,0.01719485,0.0579709,1.000611,30.38167,12.09226,-30.45972,998.2344
0.170933723,-1.333137,0.0009917939,0.2683845,0.0157757,0.05408084,1.005908,30.38167,12.09226,-30.45972,998.2335
0.173411369,-1.271903,0.2430426,0.3295469,0.02060514,0.0560373,0.9991344,30.38167,12.09226,-30.45972,998.2335
0.173411369,-1.271903,0.2430426,0.3295469,0.02060514,0.0560373,0.9991344,30.38167,12.09226,-30.45972,998.2335
0.175888538,-1.271903,0.6666315,0.5741968,0.02209632,0.05264576,1.00297,30.38167,12.09226,-30.45972,998.2335
0.180842876,-1.088203,0.7271442,0.5130343,0.01427845,0.05355707,0.9938469,30.38167,12.09226,-30.45972,998.2335
0.180842876,-1.088203,0.7271442,0.5130343,0.01427845,0.05355707,0.9938469,30.38167,12.09226,-30.45972,998.2335
0.183320522,-1.02697,0.7271442,0.6353592,0.01185172,0.053548,0.9953082,30.38167,12.09226,-30.45972,998.2335
0.185797691,-0.9045025,0.6666315,0.6353592,0.008463278,0.05451947,1.001606,30.38167,12.09226,-30.45972,998.2335
0.188274860,-0.7820356,0.7271442,0.5130343,0.007950207,0.0569422,0.9977604,30.38167,12.09226,-30.45972,998.2335
0.193229675,-0.4758682,0.9086823,0.1460596,0.007984062,0.05501091,1.004508,30.38167,12.09226,-30.45972,998.2335
0.193229675,-0.4758682,0.9086823,0.1460596,0.007984062,0.05501091,1.004508,30.38167,12.09226,-30.45972,998.2335
0.195706844,-0.5983351,0.7876569,0.02373465,0.003112038,0.05595724,1.003574,30.38167,12.09226,-30.45972,998.2335
0.198184490,-0.7208021,0.6666315,-0.03742781,0.003586382,0.05839555,1.004066,30.38167,12.09226,-30.45972,998.2335
0.203138828,-1.149436,-0.7251607,0.08489711,0.00655394,0.04866865,1.002552,30.38167,12.09226,-30.45972,998.2335
0.203138828,-1.149436,-0.7251607,0.08489711,0.00655394,0.04866865,1.002552,30.38167,12.09226,-30.45972,998.2335
0.205615997,-1.516837,-1.3908,0.02373465,0.002182449,0.04913878,1.004992,30.75374,12.11188,-29.63774,998.2335
0.208093643,-1.761771,-2.237978,-0.09859026,0.003572225,0.06180754,1.005532,30.75374,12.11188,-29.63774,998.2335
0.210570812,-2.374106,-2.782593,0.08489711,0.005980917,0.06180372,0.9987615,30.75374,12.11188,-29.63774,998.2341
0.215525627,-2.741507,-4.05336,-0.09859026,0.006967156,0.05644087,0.9939017,30.75374,12.11188,-29.63774,998.2341
0.215525627,-2.741507,-4.05336,-0.09859026,0.006967156,0.05644087,0.9939017,30.75374,12.11188,-29.63774,998.2341
0.218002796,-2.496573,-4.113872,-0.1597527,0.009916794,0.05403424,0.9991826,30.75374,12.11188,-29.63774,998.2341
0.220479965,-2.557806,-3.750796,-0.1597527,0.02013791,0.05409295,1.00154,30.75374,12.11188,-29.63774,998.2341
0.222957611,-2.374106,-3.38772,-0.09859026,0.02162579,0.04923242,1.00199,30.75374,12.11188,-29.63774,998.2341
0.227911949,-1.823005,-2.298491,0.08489711,0.02360824,0.04731354,1.009692,30.75374,12.11188,-29.63774,998.2341
0.227911949,-1.823005,-2.298491,0.08489711,0.02360824,0.04731354,1.009692,30.75374,12.11188,-29.63774,998.2341
0.230389118,-1.639304,-1.693364,0.08489711,0.02747211,0.0482923,1.003401,30.75374,12.11188,-29.63774,998.2341
0.232866764,-1.884238,-1.027724,-0.03742781,0.03280533,0.04830827,0.9985453,30.75374,12.11188,-29.63774,998.2341
0.235343933,-2.067938,-0.5436226,0.08489711,0.02357595,0.04484611,0.9961647,30.75374,12.11188,-29.63774,998.2341
0.240298748,-2.129172,-0.4225971,0.2683845,0.0187001,0.04530083,0.9932975,30.75374,12.11188,-29.63774,998.2341
0.240298748,-2.129172,-0.4225971,0.2683845,0.0187001,0.04530083,0.9932975,30.75374,12.11188,-29.63774,998.2341
0.242775917,-1.945472,-0.3015717,0.5130343,0.02065142,0.04482632,0.9942499,30.75374,12.11188,-29.63774,998.2341
0.245253086,-1.455604,-0.3015717,0.2683845,0.01531318,0.03894031,0.987974,30.75374,12.11188,-29.63774,998.2341
0.247730255,-1.333137,-0.4831098,0.4518718,0.01334281,0.04428993,0.9894603,30.75374,12.11188,-29.63774,998.2341
0.252685070,-0.965736,-0.9066988,0.4518718,0.01481979,0.0413771,0.9899199,30.75374,12.11188,-29.63774,998.2353
0.252685070,-0.965736,-0.9066988,0.4518718,0.01481979,0.0413771,0.9899199,30.75374,12.11188,-29.63774,998.2353
0.255162239,-1.02697,-1.027724,0.5130343,0.0148209,0.04235564,0.9918557,30.75374,12.11188,-29.63774,998.2353
0.257639885,-1.02697,-1.027724,0.4518718,0.01190892,0.04185596,0.9928344,30.00609,12.46219,-30.0848,998.2353
0.260117054,-1.02697,-1.088237,0.3295469,0.01531166,0.0462723,0.9995959,30.00609,12.46219,-30.0848,998.2353
0.265071869,-1.333137,-1.14875,0.207222,0.01483182,0.04187458,0.9942666,30.00609,12.46219,-30.0848,998.2353
0.265071869,-1.333137,-1.14875,0.207222,0.01483182,0.04187458,0.9942666,30.00609,12.46219,-30.0848,998.2353
0.267549038,-1.088203,-0.9672114,0.08489711,0.01677388,0.04334893,0.9957114,30.00609,12.46219,-30.0848,998.2353
0.270026207,-0.7820356,-0.7251607,0.1460596,0.01580829,0.04090459,0.9937735,30.00609,12.46219,-30.0848,998.2353
0.274981022,-0.4146348,-0.9066988,0.02373465,0.01332202,0.04329733,0.9817324,30.00609,12.46219,-30.0848,998.2353
0.274981022,-0.4146348,-0.9066988,0.02373465,0.01332202,0.04329733,0.9817324,30.00609,12.46219,-30.0848,998.2353
0.277458191,-0.2921678,-0.9066988,-0.09859026,0.01384272,0.03892456,0.9846032,30.00609,12.46219,-30.0848,998.2353
0.279935360,-0.1697009,-1.027724,-0.2820776,0.02017865,0.03798929,0.9869772,30.00609,12.46219,-30.0848,998.2353
0.282413006,-0.04723396,-1.209262,-0.3432401,0.01965415,0.04333708,0.9845941,30.00609,12.46219,-30.0848,998.2353
0.287367344,0.0139995,-0.846186,-0.09859026,0.02115897,0.03897754,0.9908382,30.00609,12.46219,-30.0848,998.2353
0.287367344,0.0139995,-0.846186,-0.09859026,0.02115897,0.03897754,0.9908382,30.00609,12.46219,-30.0848,998.2353
0.289844513,0.3201669,-0.6646479,0.02373465,0.0250321,0.03800743,0.9840545,30.00609,12.46219,-30.0848,998.2353
0.294799328,0.6263342,-0.241059,-0.2209152,0.02797257,0.04341619,0.999512,30.00609,12.46219,-30.0848,998.2358
0.297276497,0.5651007,0.1825299,-0.09859026,0.02797036,0.04145912,0.9956405,30.00609,12.46219,-30.0848,998.2358
0.309663296,0.4426338,1.75586,0.02373465,0.02897583,0.04295422,1.00771,30.75291,12.10346,-30.08109,998.2358
0.312140465,0.5651007,2.300474,-0.09859026,0.02750541,0.04587173,1.009181,30.75291,12.10346,-30.08109,998.2358
0.314617634,0.6263342,2.239962,0.08489711,0.02260059,0.04679464,0.9985934,30.75291,12.10346,-30.08109,998.2358
0.317095280,0.5038673,2.482013,0.08489711,0.01971698,0.04240425,1.001483,30.75291,12.10346,-30.08109,998.2358
0.319572449,0.2589334,2.4215,0.1460596,0.01827714,0.04338812,1.008736,30.75291,12.10346,-30.08109,998.2358
0.322049618,0.07523298,2.239962,0.1460596,0.01534334,0.0453172,1.007314,30.75291,12.10346,-30.08109,998.2358
0.324527264,0.07523298,1.997911,0.08489711,0.01337943,0.04480497,1.001047,30.75291,12.10346,-30.08109,998.2358
0.327004433,-0.1084674,1.634835,0.3295469,0.01288657,0.0462644,1.00154,30.75291,12.10346,-30.08109,998.2358
0.329481602,-0.2921678,1.634835,0.3907094,0.01385985,0.0511586,1.009765,30.75291,12.10346,-30.08109,998.2358
0.331959248,-0.4758682,1.453297,0.3295469,0.01290024,0.04676304,1.006369,30.75291,12.10346,-30.08109,998.235
0.334436417,-0.7820356,1.211246,0.3295469,0.01482535,0.04773641,1.00202,30.75291,12.10346,-30.08109,998.235
0.336913586,-0.7820356,0.9086823,0.2683845,0.008528171,0.04527728,1.00542,30.75291,12.10346,-30.08109,998.235
0.339390755,-0.7208021,1.029708,0.207222,0.007564751,0.04185674,1.002512,30.75291,12.10346,-30.08109,998.235
0.341868401,-0.7820356,0.9691951,0.3295469,0.006589412,0.04527189,1.007361,30.75291,12.10346,-30.08109,998.235
0.344345570,-0.9045025,0.6666315,0.2683845,0.004125019,0.04816914,1.002563,30.75291,12.10346,-30.08109,998.235
0.346822739,-0.6595686,0.5456061,0.08489711,0.01287782,0.04576927,0.9981586,30.75291,12.10346,-30.08109,998.235
0.349300385,-0.5983351,0.364068,0.02373465,0.008995933,0.04624427,1.001561,30.75291,12.10346,-30.08109,998.235
0.351777554,-0.2921678,0.1825299,-0.03742781,0.00318125,0.04329603,1.003026,30.75291,12.10346,-30.08109,998.235
0.354254723,-0.4146348,0.0615045,0.08489711,0.006093708,0.03988509,0.9957522,30.75291,12.10346,-30.08109,998.235
0.359209538,-0.1697009,-0.05952091,-0.1597527,0.008029788,0.04331066,0.9986553,30.75291,12.10346,-30.08109,998.235
0.359209538,-0.1697009,-0.05952091,-0.1597527,0.008029788,0.04331066,0.9986553,30.75291,12.10346,-30.08109,998.235
0.361686707,0.0139995,-0.05952091,-0.2209152,0.00411569,0.04571811,0.9957929,30.75291,12.10346,-30.08109,998.235
0.364163876,-0.04723396,-0.3015717,-0.1597527,0.006087195,0.04281367,0.9986634,30.75291,12.10346,-30.08109,998.235
0.366641522,0.07523298,-0.241059,-0.2209152,0.010944,0.04723404,1.003969,30.75291,12.10346,-30.08109,998.235
0.371595860,0.0139995,-0.1200336,-0.1597527,0.0143341,0.04773038,1.000574,30.75291,12.10346,-30.08109,998.2339
0.371595860,0.0139995,-0.1200336,-0.1597527,0.0143341,0.04773038,1.000574,30.75291,12.10346,-30.08109,998.2339
0.374073505,-0.1697009,-0.3015717,-0.03742781,0.02160182,0.05410401,1.00298,30.75291,12.10346,-30.08109,998.2339
0.376550675,-0.4146348,-0.6646479,-0.03742781,0.02018322,0.05070323,1.009246,30.75291,12.10346,-30.08109,998.2339
0.379027844,-0.7208021,-0.3620844,0.2683845,0.01828533,0.04339398,1.011149,30.75291,12.10346,-30.08109,998.2339
0.381505013,-0.9045025,-0.1200336,0.3907094,0.01730016,0.0468021,1.013103,30.75291,12.10346,-30.08109,998.2339
0.383982658,-1.21067,0.1220172,0.4518718,0.02310773,0.04925638,1.008739,30.75291,12.10346,-30.08109,998.2339
0.386459828,-1.578071,0.364068,0.4518718,0.02309466,0.05218027,1.00972,30.75291,12.10346,-30.08109,998.2339
0.388936997,-1.578071,0.7876569,0.5130343,0.01580568,0.04872468,1.005881,30.75291,12.10346,-30.08109,998.2339
0.393891811,-2.190405,1.211246,0.4518718,0.01239966,0.04430599,0.9981537,30.75291,12.10346,-30.08109,998.2339
0.393891811,-2.190405,1.211246,0.4518718,0.01239966,0.04430599,0.9981537,30.75291,12.10346,-30.08109,998.2339
0.396368981,-2.190405,1.211246,0.4518718,0.01335426,0.0428315,0.9904181,30.75291,12.10346,-30.08109,998.2339
0.398846150,-2.129172,1.09022,0.3907094,0.004622689,0.03938007,0.9914135,30.75291,12.10346,-30.08109,998.2339
0.401323795,-1.884238,1.09022,0.3907094,0.004581259,0.04619467,0.9904835,30.75291,12.10346,-30.08109,998.2339
0.406278133,-1.39437,0.8481696,0.2683845,0.001153999,0.04616064,0.9837446,30.75291,12.10346,-30.08109,998.2339
0.406278133,-1.39437,0.8481696,0.2683845,0.001153999,0.04616064,0.9837446,30.75291,12.10346,-30.08109,998.2339
0.408755779,-1.333137,0.4850934,0.1460596,0.002140283,0.04373106,0.9837267,30.75374,12.11188,-29.63774,998.2339
0.411232948,-1.21067,0.1825299,0.02373465,0.000230391,0.03739097,0.9837046,30.75374,12.11188,-29.63774,998.2311
0.413710117,-1.088203,-0.3620844,-0.1597527,-0.0002657534,0.03884805,0.983232,30.75374,12.11188,-29.63774,998.2311
0.418664932,-0.7820356,-1.330288,-0.3432401,0.0007281522,0.03446842,0.9822387,30.75374,12.11188,-29.63774,998.2311
0.418664932,-0.7820356,-1.330288,-0.3432401,0.0007281522,0.03446842,0.9822387,30.75374,12.11188,-29.63774,998.2311
0.421142101,-0.2921678,-1.269775,-0.4044026,-0.001657055,0.03351128,0.9943139,30.75374,12.11188,-29.63774,998.2311
0.423619270,0.07523298,-1.14875,-0.4044026,0.002180696,0.04180445,0.9924047,30.75374,12.11188,-29.63774,998.2311
0.426096916,0.3201669,-0.7251607,-0.6490523,0.0007381262,0.04327525,0.9996603,30.75374,12.11188,-29.63774,998.2311
0.431051254,0.5038673,-0.3015717,-1.138352,-0.0002170741,0.0413272,1.001586,30.75374,12.11188,-29.63774,998.2311
0.431051254,0.5038673,-0.3015717,-1.138352,-0.0002170741,0.0413272,1.001586,30.75374,12.11188,-29.63774,998.2311
0.433528900,0.3201669,-0.3015717,-1.321839,0.001201547,0.04619462,0.9977421,30.75374,12.11188,-29.63774,998.2311
0.436006069,0.3814003,-0.4225971,-1.627652,0.002632153,0.04862625,0.9934025,30.75374,12.11188,-29.63774,998.2311
0.440960407,0.1364664,-1.027724,-1.749977,0.009984366,0.04137186,0.9981519,30.75374,12.11188,-29.63774,998.2311
0.440960407,0.1364664,-1.027724,-1.749977,0.009984366,0.04137186,0.9981519,30.75374,12.11188,-29.63774,998.2311
0.443438053,0.2589334,-1.14875,-1.811139,0.007530364,0.04476539,0.9972174,30.75374,12.11188,-29.63774,998.2311
0.445915222,0.3201669,-1.330288,-1.811139,0.008493717,0.04378604,0.992863,30.75374,12.11188,-29.63774,998.2311
0.448392391,0.3814003,-1.330288,-1.811139,0.01336528,0.04821697,1.002513,30.75374,12.11188,-29.63774,998.2311
0.453347206,0.1976999,-1.209262,-1.872301,0.01678822,0.05167,1.013613,30.75374,12.11188,-29.63774,998.23
0.453347206,0.1976999,-1.209262,-1.872301,0.01678822,0.05167,1.013613,30.75374,12.11188,-29.63774,998.23
0.455824375,0.1364664,-0.7856733,-1.811139,0.02067553,0.04875453,1.007785,30.75374,12.11188,-29.63774,998.23
0.458302021,0.1364664,-0.3620844,-1.994627,0.02847102,0.04978271,1.01354,30.37663,12.46617,-30.08619,998.23
0.460779190,0.0139995,0.0009917939,-1.811139,0.03429714,0.04980588,1.010612,30.37663,12.46617,-30.08619,998.23
0.465733528,-0.1697009,0.5456061,-1.260677,0.03524629,0.04930524,1.002881,30.37663,12.46617,-30.08619,998.23
0.465733528,-0.1697009,0.5456061,-1.260677,0.03524629,0.04930524,1.002881,30.37663,12.46617,-30.08619,998.23
0.470688343,-0.5983351,0.1220172,-0.8937021,0.03818933,0.04396066,1.00139,30.37663,12.46617,-30.08619,998.23
0.470688343,-0.5983351,0.1220172,-0.8937021,0.03818933,0.04396066,1.00139,30.37663,12.46617,-30.08619,998.23
0.475643158,-1.149436,0.0009917939,-0.2820776,0.03082346,0.05218305,0.994232,30.37663,12.46617,-30.08619,998.23
0.475643158,-1.149436,0.0009917939,-0.2820776,0.03082346,0.05218305,0.994232,30.37663,12.46617,-30.08619,998.23
0.478120327,-1.21067,-0.1200336,-0.03742781,0.02840766,0.05169291,0.998104,30.37663,12.46617,-30.08619,998.23
0.480597496,-0.965736,-0.4225971,0.1460596,0.03085621,0.04927322,0.9990435,30.37663,12.46617,-30.08619,998.23
0.483075142,-0.9045025,-0.4225971,0.207222,0.02892946,0.04829868,1.00291,30.37663,12.46617,-30.08619,998.23
0.488029480,-1.02697,-0.3620844,0.7576842,0.02892893,0.04927604,1.004364,30.37663,12.46617,-30.08619,998.23
0.488029480,-1.02697,-0.3620844,0.7576842,0.02892893,0.04927604,1.004364,30.37663,12.46617,-30.08619,998.23
0.490506649,-0.965736,-0.3620844,0.7576842,0.0255088,0.0512026,1.002944,30.37663,12.46617,-30.08619,998.23
0.500416279,-1.149436,0.4245807,0.6965217,0.01724388,0.04773962,0.9981449,30.37663,12.46617,-30.08619,998.2289
0.500416279,-1.149436,0.4245807,0.6965217,0.01724388,0.04773962,0.9981449,30.37663,12.46617,-30.08619,998.2289
0.505370617,-1.333137,0.1220172,0.5741968,0.02016615,0.04286908,0.9913464,30.37663,12.46617,-30.08619,998.2289
0.505370617,-1.333137,0.1220172,0.5741968,0.02016615,0.04286908,0.9913464,30.37663,12.46617,-30.08619,998.2289
0.507847786,-1.149436,-0.1805463,0.6965217,0.01479905,0.04331777,0.987034,30.74141,12.83685,-30.09405,998.2289
0.510325432,-1.02697,-0.3620844,0.5741968,0.01189091,0.0433097,0.9899459,30.74141,12.83685,-30.09405,998.2289
0.512802601,-1.088203,-0.4831098,0.3295469,0.01139421,0.04427752,0.9885055,30.74141,12.83685,-30.09405,998.2289
0.517757416,-0.5371017,-0.1200336,0.1460596,0.008494293,0.04574194,0.9962518,30.74141,12.83685,-30.09405,998.2289
0.517757416,-0.5371017,-0.1200336,0.1460596,0.008494293,0.04574194,0.9962518,30.74141,12.83685,-30.09405,998.2289
0.520234585,-0.4758682,0.4245807,-0.2820776,0.01386676,0.03845286,0.9908754,30.74141,12.83685,-30.09405,998.2289
0.522711754,-0.4146348,0.7271442,-0.4044026,0.01288703,0.04088714,0.9928241,30.74141,12.83685,-30.09405,998.2289
0.525189400,-0.2309344,1.029708,-0.3432401,0.01775088,0.04140158,0.9937655,30.74141,12.83685,-30.09405,998.2289
0.530143738,0.07523298,1.271759,-0.8325397,0.01334817,0.03744955,0.9797716,30.74141,12.83685,-30.09405,998.2289
0.530143738,0.07523298,1.271759,-0.8325397,0.01334817,0.03744955,0.9797716,30.74141,12.83685,-30.09405,998.2289
0.532620907,0.3201669,1.09022,-0.9548646,0.01237391,0.04037661,0.984136,30.74141,12.83685,-30.09405,998.2281
0.535098553,0.3814003,0.7876569,-1.016027,0.01334928,0.03842808,0.9817073,30.74141,12.83685,-30.09405,998.2281
0.540052891,0.5651007,0.1825299,-0.8937021,0.01185214,0.04523747,0.9817505,30.74141,12.83685,-30.09405,998.2281
0.540052891,0.5651007,0.1825299,-0.8937021,0.01185214,0.04523747,0.9817505,30.74141,12.83685,-30.09405,998.2281
0.542530537,0.5651007,-0.05952091,-0.8937021,0.01478265,0.04330605,0.9822072,30.74141,12.83685,-30.09405,998.2281
0.545007706,0.6875677,-0.4225971,-0.8325397,0.01674273,0.04332666,0.9865406,30.74141,12.83685,-30.09405,998.2281
0.547484875,0.7488011,-0.4831098,-0.7102148,0.01963511,0.04967882,0.9894536,30.74141,12.83685,-30.09405,998.2281
0.552439690,0.6263342,-0.05952091,-0.5878899,0.02650107,0.0468218,1.001468,30.74141,12.83685,-30.09405,998.2281
0.552439690,0.6263342,-0.05952091,-0.5878899,0.02650107,0.0468218,1.001468,30.74141,12.83685,-30.09405,998.2281
0.554916859,0.5651007,0.1825299,-0.5878899,0.02843821,0.04829264,1.001465,30.74141,12.83685,-30.09405,998.2281
0.557394028,0.6263342,0.5456061,-0.4044026,0.02943542,0.04538199,1.003858,30.74141,12.83685,-30.09405,998.2281
0.559871674,0.6875677,0.9086823,-0.465565,0.03238669,0.04297652,1.009622,30.74799,12.47858,-29.64422,998.2281
0.564826012,0.4426338,1.029708,0.1460596,0.02793662,0.05072358,1.000998,30.74799,12.47858,-29.64422,998.2281
0.564826012,0.4426338,1.029708,0.1460596,0.02793662,0.05072358,1.000998,30.74799,12.47858,-29.64422,998.2281
0.569780827,0.3201669,0.8481696,0.3295469,0.02696555,0.04778644,0.9966438,30.74799,12.47858,-29.64422,998.2281
0.572257996,0.2589334,0.7271442,0.5741968,0.01771003,0.05017208,0.9962241,30.74799,12.47858,-29.64422,998.2269
0.574735165,-0.04723396,0.4850934,0.6353592,0.01431667,0.05114003,1.001074,30.74799,12.47858,-29.64422,998.2269
0.577212811,-0.1084674,0.0009917939,0.6965217,0.01481498,0.04870676,1.000576,30.74799,12.47858,-29.64422,998.2269
0.579689980,-0.4758682,-0.241059,0.8188466,0.008995379,0.045755,1.000593,30.74799,12.47858,-29.64422,998.2269
0.582167149,-0.6595686,-0.4831098,0.8800091,0.01188114,0.04770257,0.9943127,30.74799,12.47858,-29.64422,998.2269
0.584644795,-0.5983351,-0.7251607,0.8800091,0.01091282,0.04574515,0.9923772,30.74799,12.47858,-29.64422,998.2269
0.587121964,-0.4758682,-0.7856733,0.9411715,0.006050616,0.04523188,0.9919185,30.74799,12.47858,-29.64422,998.2269
0.589599133,-0.4758682,-1.027724,0.9411715,0.008473533,0.04621597,0.9909448,30.74799,12.47858,-29.64422,998.2269
0.592076302,-0.3534013,-1.269775,0.8188466,0.009947808,0.0452567,0.9938279,30.74799,12.47858,-29.64422,998.2269
0.594553948,-0.1084674,-0.9672114,0.8188466,0.006569183,0.04476856,1.000601,30.74799,12.47858,-29.64422,998.2269
0.597031117,0.0139995,-0.846186,0.5741968,0.003145756,0.04522615,0.9957957,30.74799,12.47858,-29.64422,998.2269
0.601985932,0.2589334,-0.3620844,0.02373465,0.003148504,0.04620586,0.9982141,30.74799,12.47858,-29.64422,998.2269
0.601985932,0.2589334,-0.3620844,0.02373465,0.003148504,0.04620586,0.9982141,30.74799,12.47858,-29.64422,998.2269
0.604463101,0.1364664,-0.4831098,-0.03742781,0.005095461,0.0462171,0.9986863,30.74799,12.47858,-29.64422,998.2269
0.606940270,0.2589334,-0.241059,-0.2820776,0.006579506,0.04086497,0.9972026,30.74799,12.47858,-29.64422,998.2269
0.609417915,0.07523298,-0.05952091,-0.3432401,0.004638022,0.04134651,0.9991463,30.75291,12.10346,-30.08109,998.2269
0.611895085,-0.1084674,0.0615045,-0.3432401,0.008537963,0.04235104,1.003474,30.75291,12.10346,-30.08109,998.2275
0.614372254,0.0139995,0.4245807,-0.5878899,0.01146578,0.04237317,1.006354,30.75291,12.10346,-30.08109,998.2275
0.616849423,-0.04723396,0.9086823,-0.8325397,0.0104855,0.04431818,1.007335,30.75291,12.10346,-30.08109,998.2275
0.619327068,-0.1697009,1.634835,-1.07719,0.009984411,0.04430512,1.002994,30.75291,12.10346,-30.08109,998.2275
0.621804238,0.1976999,2.118936,-1.321839,0.006564263,0.04476505,0.9991533,30.75291,12.10346,-30.08109,998.2275
0.624281407,0.2589334,2.542525,-1.383002,0.009971894,0.04771828,1.004942,30.75291,12.10346,-30.08109,998.2275
0.626759052,0.3814003,2.966114,-1.627652,0.009966422,0.04722549,1.002526,30.75291,12.10346,-30.08109,998.2275
0.629236221,0.6875677,2.966114,-1.627652,0.01726298,0.04579779,1.000548,30.75291,12.10346,-30.08109,998.2275
0.631712914,0.9325016,3.389703,-1.749977,0.01920502,0.04580551,0.9995722,30.75291,12.10346,-30.08109,998.2275
0.634191036,0.7488011,3.450216,-1.811139,0.02261699,0.04680635,1.00342,30.75291,12.10346,-30.08109,998.2275
0.636668205,0.3201669,3.510728,-1.566489,0.02554697,0.04585229,1.00533,30.75291,12.10346,-30.08109,998.2275
0.639145374,0.3814003,3.32919,-1.627652,0.02702829,0.04098708,1.003849,30.75291,12.10346,-30.08109,998.2275
0.641622543,0.3201669,3.510728,-1.505327,0.02650758,0.04389323,0.9985572,30.75291,12.10346,-30.08109,998.2275
0.644100189,0.1976999,3.389703,-1.383002,0.0270185,0.04391332,1.005795,30.75291,12.10346,-30.08109,998.2275
0.649054051,0.1976999,3.147652,-0.9548646,0.03183591,0.0453723,0.994674,30.75291,12.10346,-30.08109,998.2275
0.649054051,0.1976999,3.147652,-0.9548646,0.03183591,0.0453723,0.994674,30.75291,12.10346,-30.08109,998.2275
0.651532173,0.07523298,2.845089,-0.7102148,0.02793708,0.04534631,0.9922819,30.75291,12.10346,-30.08109,998.2264
0.654008389,0.0139995,2.4215,-0.465565,0.02113336,0.04384796,0.9913461,30.75291,12.10346,-30.08109,998.2264
0.656486035,-0.04723396,1.816373,-0.2820776,0.02160937,0.04775407,0.9947423,30.75291,12.10346,-30.08109,998.2264
0.658963204,0.07523298,1.392784,-0.09859026,0.02158697,0.04822694,0.9889527,30.74716,12.47016,-30.08757,998.2264
0.661440373,0.3201669,0.9691951,-0.03742781,0.02405568,0.04191068,0.9893895,30.74716,12.47016,-30.08757,998.2264
0.663918495,0.1364664,0.364068,0.207222,0.02407916,0.04094972,0.9946938,30.74716,12.47016,-30.08757,998.2264
0.666395188,0.07523298,-0.1200336,0.3295469,0.0192186,0.04043762,0.9947178,30.74716,12.47016,-30.08757,998.2264
0.668872357,0.07523298,-0.4225971,0.3907094,0.01922733,0.03946612,0.9956781,30.74716,12.47016,-30.08757,998.2264
0.671350002,0.3201669,-0.7856733,0.4518718,0.01825746,0.04337405,1.002944,30.74716,12.47016,-30.08757,998.2264
0.673827171,0.07523298,-0.7251607,0.6353592,0.02016678,0.04775824,0.999577,30.74716,12.47016,-30.08757,998.2264
0.676304341,-0.04723396,-0.9672114,0.6353592,0.01630452,0.04531403,1.00393,30.74716,12.47016,-30.08757,998.2264
0.678781510,0.0139995,-1.14875,0.6353592,0.01291107,0.04041545,0.9990963,30.74716,12.47016,-30.08757,998.2264
0.681259632,-0.2921678,-1.027724,0.6353592,0.01194936,0.04139598,1.003933,30.74716,12.47016,-30.08757,998.2264
0.696122646,-0.4146348,-0.241059,0.02373465,0.01532152,0.04774596,1.004913,30.74716,12.47016,-30.08757,998.2253
0.696122646,-0.4146348,-0.241059,0.02373465,0.01532152,0.04774596,1.004913,30.74716,12.47016,-30.08757,998.2253
0.698600292,-0.4146348,0.1220172,-0.2209152,0.01776464,0.04776675,1.008278,30.74716,12.47016,-30.08757,998.2253
0.701077461,-0.4146348,0.2430426,-0.3432401,0.01681212,0.04239852,1.00536,30.74716,12.47016,-30.08757,998.2253
0.706032753,-0.7208021,0.364068,-0.2820776,0.01922081,0.0423947,0.9985893,30.74716,12.47016,-30.08757,998.2253
0.706032753,-0.7208021,0.364068,-0.2820776,0.01922081,0.0423947,0.9985893,30.74716,12.47016,-30.08757,998.2253
0.708509445,-0.6595686,0.7271442,-0.2820776,0.01729245,0.04288561,1.004394,30.74716,12.47016,-30.08757,998.2253
0.710986614,-0.6595686,0.9691951,-0.465565,0.01143194,0.0457711,1.002028,30.74716,12.47016,-30.08757,998.2253
0.713464260,-0.7820356,1.029708,-0.4044026,0.01532692,0.04383885,1.000066,30.74716,12.47016,-30.08757,998.2253
0.718418598,-0.9045025,0.7876569,-0.465565,0.01384339,0.04674698,0.9976757,30.74716,12.47016,-30.08757,998.2253
0.718418598,-0.9045025,0.7876569,-0.465565,0.01384339,0.04674698,0.9976757,30.74716,12.47016,-30.08757,998.2253
0.720895767,-0.9045025,0.7271442,-0.6490523,0.01432205,0.04576628,0.9938067,30.74716,12.47016,-30.08757,998.2253
0.723373413,-0.9045025,0.5456061,-0.5267274,0.01091446,0.04574632,0.9928598,30.74716,12.47016,-30.08757,998.2253
0.725850582,-0.9045025,0.1825299,-0.5267274,0.01581808,0.03797835,0.9918278,30.74716,12.47016,-30.08757,998.2253
0.730805397,-0.4758682,-0.6041352,-0.2820776,0.01875679,0.03605279,0.9946977,30.74716,12.47016,-30.08757,998.2253
0.730805397,-0.4758682,-0.6041352,-0.2820776,0.01875679,0.03605279,0.9946977,30.74716,12.47016,-30.08757,998.2253
0.733282566,-0.3534013,-0.7856733,-0.09859026,0.009951642,0.04574832,0.9957612,30.74716,12.47016,-30.08757,998.2219
0.735759735,-0.2921678,-0.9672114,-0.03742781,0.01041068,0.04768681,0.9909418,30.74716,12.47016,-30.08757,998.2219
0.740714550,0.0139995,-1.451313,0.207222,0.01189645,0.04820238,0.9996246,30.74716,12.47016,-30.08757,998.2219
0.740714550,0.0139995,-1.451313,0.207222,0.01189645,0.04820238,0.9996246,30.74716,12.47016,-30.08757,998.2219
0.743191719,0.0139995,-1.632851,0.2683845,0.01287188,0.05065376,1.004459,30.74716,12.47016,-30.08757,998.2219
0.745668888,0.0139995,-1.632851,0.3295469,0.007546783,0.04624375,1.004465,30.74716,12.47016,-30.08757,998.2219
0.748146534,-0.1697009,-1.451313,0.207222,0.01529752,0.05115092,1.003483,30.74716,12.47016,-30.08757,998.2219
0.753100872,-0.4146348,-1.027724,0.2683845,0.01435486,0.04725635,1.005881,30.74716,12.47016,-30.08757,998.2219
0.753100872,-0.4146348,-1.027724,0.2683845,0.01435486,0.04725635,1.005881,30.74716,12.47016,-30.08757,998.2219
0.755578518,-0.7208021,-0.846186,0.207222,0.01581221,0.04726272,1.00539,30.74716,12.47016,-30.08757,998.2219
0.758055687,-0.9045025,-0.6646479,0.3295469,0.02261974,0.04778606,1.005839,30.74716,12.47016,-30.08757,998.2219
0.760532856,-0.965736,-0.5436226,0.1460596,0.01727337,0.04629409,1.004412,30.38238,12.09948,-30.0797,998.2219
0.777873993,-1.578071,0.8481696,0.2683845,0.01678365,0.03895606,0.9913447,30.38238,12.09948,-30.0797,998.2211
0.780351639,-1.271903,0.9691951,0.207222,0.01629464,0.04237374,0.9961918,30.38238,12.09948,-30.0797,998.2211
0.782828808,-1.21067,1.09022,0.1460596,0.0118871,0.04428472,0.9904336,30.38238,12.09948,-30.0797,998.2211
0.785305977,-1.088203,1.09022,0.02373465,0.01140673,0.04086436,0.9865572,30.38238,12.09948,-30.0797,998.2211
0.790260792,-0.5983351,0.8481696,-0.1597527,0.0118832,0.03939321,0.9812376,30.38238,12.09948,-30.0797,998.2211
0.790260792,-0.5983351,0.8481696,-0.1597527,0.0118832,0.03939321,0.9812376,30.38238,12.09948,-30.0797,998.2211
0.792737961,-0.6595686,0.7876569,-0.1597527,0.009934578,0.03791417,0.9778619,30.38238,12.09948,-30.0797,998.2211
0.795215130,-0.3534013,0.6061188,-0.09859026,0.006059785,0.03741648,0.981742,30.38238,12.09948,-30.0797,998.2211
0.797692776,-0.2309344,0.3035553,0.08489711,0.01091001,0.04036554,0.9826959,30.38238,12.09948,-30.0797,998.2211
0.802647114,-0.2921678,0.0615045,-0.1597527,0.01090513,0.04329529,0.9860899,30.38238,12.09948,-30.0797,998.2211
0.802647114,-0.2921678,0.0615045,-0.1597527,0.01090513,0.04329529,0.9860899,30.38238,12.09948,-30.0797,998.2211
0.805124283,-0.1084674,0.1220172,-0.09859026,0.0104155,0.0418238,0.9827061,30.38238,12.09948,-30.0797,998.2211
0.807601929,-0.04723396,0.1220172,-0.2209152,0.01189246,0.03744434,0.9807448,30.38238,12.09948,-30.0797,998.2211
0.812556267,0.5038673,-0.3015717,-0.1597527,0.01770333,0.04136759,0.9797679,30.75291,12.10346,-30.08109,998.2234
0.812556267,0.5038673,-0.3015717,-0.1597527,0.01770333,0.04136759,0.9797679,30.75291,12.10346,-30.08109,998.2234
0.815033913,0.8100346,-0.3620844,-0.3432401,0.01141985,0.04087373,0.9904187,30.75291,12.10346,-30.08109,998.2234
0.817511082,1.054968,-0.4831098,-0.03742781,0.01773231,0.04236605,0.9899091,30.75291,12.10346,-30.08109,998.2234
0.819988251,1.238669,-0.4225971,0.02373465,0.01383734,0.0442983,0.9918711,30.75291,12.10346,-30.08109,998.2234
0.832375527,0.4426338,-0.3015717,0.02373465,0.01092871,0.04820086,1.001078,30.75291,12.10346,-30.08109,998.2234
0.832375527,0.4426338,-0.3015717,0.02373465,0.01092871,0.04820086,1.001078,30.75291,12.10346,-30.08109,998.2234
0.834852219,0.2589334,-0.3015717,0.1460596,0.01485205,0.0423779,1.001027,30.75291,12.10346,-30.08109,998.2234
0.839807034,-0.1697009,-0.5436226,0.207222,0.01337782,0.04627043,1.002985,30.75291,12.10346,-30.08109,998.2234
0.842284203,-0.4146348,-0.4225971,0.02373465,0.01144231,0.04480076,1.003471,30.75291,12.10346,-30.08109,998.2234
0.844761372,-0.5371017,-0.3620844,0.1460596,0.01050457,0.04090971,1.007318,30.75291,12.10346,-30.08109,998.2234
0.847239018,-0.6595686,0.0009917939,-0.03742781,0.005629824,0.04234297,1.006386,30.75291,12.10346,-30.08109,998.2234
0.849716187,-0.7208021,0.0009917939,0.02373465,0.01246839,0.03555541,1.003901,30.75291,12.10346,-30.08109,998.2234
0.852193356,-0.965736,0.4245807,-0.09859026,0.01243132,0.04188425,1.003451,30.75291,12.10346,-30.08109,998.2222
0.854670525,-0.8432691,0.9086823,-0.2209152,0.009988753,0.04235274,1.001053,30.75291,12.10346,-30.08109,998.2222
0.857148171,-1.02697,0.9086823,-0.4044026,0.01144776,0.04382692,1.003466,30.75291,12.10346,-30.08109,998.2222
0.859625340,-1.21067,1.09022,-0.465565,0.01241052,0.03942502,0.9933018,30.75291,12.10346,-30.08109,998.2222
0.867057324,-1.088203,1.392784,-0.7713773,0.01240112,0.0325741,0.979269,30.74294,12.85249,-29.27068,998.2222
0.869534493,-0.965736,1.574322,-0.9548646,0.0143666,0.0286876,0.9787557,30.74294,12.85249,-29.27068,998.2222
0.872011662,-0.5371017,1.695347,-0.9548646,0.01141701,0.03402749,0.9783165,30.74294,12.85249,-29.27068,998.2222
0.874489308,-0.2921678,1.937398,-0.9548646,0.009947649,0.03499028,0.9768814,30.74294,12.85249,-29.27068,998.2222
0.876966477,-0.04723396,2.058424,-1.016027,0.01481365,0.03306189,0.9744315,30.74294,12.85249,-29.27068,998.2222
0.879443646,0.5038673,1.997911,-0.9548646,0.01139461,0.03450036,0.9725269,30.74294,12.85249,-29.27068,998.2222
0.881921292,1.116202,1.997911,-1.199515,0.005575581,0.03350451,0.9759324,30.74294,12.85249,-29.27068,998.2222
0.884398937,1.483603,1.997911,-1.138352,0.0123798,0.03255887,0.9729943,30.74294,12.85249,-29.27068,998.2222
0.886875630,1.912237,1.695347,-0.9548646,0.01383394,0.0369628,0.9788011,30.74294,12.85249,-29.27068,998.2222
0.889353276,2.279638,1.574322,-0.9548646,0.01139634,0.04036805,0.9826933,30.74294,12.85249,-29.27068,998.2222
0.891830445,2.647039,1.392784,-1.016027,0.01480997,0.0428367,0.9894449,30.74294,12.85249,-29.27068,998.2222
0.894307614,2.769506,1.332271,-0.9548646,0.01823781,0.04482663,0.9995725,30.74294,12.85249,-29.27068,998.2189
0.896784783,2.830739,1.211246,-0.9548646,0.01967502,0.05019621,1.002006,30.74294,12.85249,-29.27068,998.2189
0.899262428,2.585805,1.211246,-1.07719,0.01532914,0.04579592,1.003937,30.74294,12.85249,-29.27068,998.2189
0.901739598,2.340871,1.332271,-1.016027,0.01681709,0.04533529,1.01165,30.74294,12.85249,-29.27068,998.2189
0.904216767,2.157171,1.513809,-0.9548646,0.02069245,0.04778888,1.011159,30.74294,12.85249,-29.27068,998.2189
0.906694412,1.851004,1.634835,-0.8937021,0.0294404,0.0497854,1.012569,30.74294,12.85249,-29.27068,998.2189
0.909171581,1.60607,1.574322,-0.7713773,0.02894694,0.04782229,1.007252,30.74294,12.85249,-29.27068,998.2189
0.911648751,1.483603,1.75586,-0.6490523,0.02213609,0.04436335,1.000997,30.37241,12.84851,-29.26929,998.2189
0.914125920,1.483603,1.574322,-0.465565,0.02261974,0.04778606,1.005839,30.37241,12.84851,-29.26929,998.2189
0.916603565,1.116202,1.392784,-0.3432401,0.02600113,0.05072054,1.003904,30.37241,12.84851,-29.26929,998.2189
0.921557904,0.6875677,1.513809,0.02373465,0.02363932,0.04293591,1.0116,30.37241,12.84851,-29.26929,998.2189
0.921557904,0.6875677,1.513809,0.02373465,0.02363932,0.04293591,1.0116,30.37241,12.84851,-29.26929,998.2189
0.924035549,0.5651007,1.453297,0.1460596,0.0246038,0.04440172,1.011602,30.37241,12.84851,-29.26929,998.2189
0.926512718,0.5651007,1.513809,0.3295469,0.02165685,0.04338816,1.001477,30.37241,12.84851,-29.26929,998.2189
0.928989887,0.3814003,1.332271,0.3907094,0.01627942,0.04774045,1.000564,30.37241,12.84851,-29.26929,998.2189
0.931467533,0.2589334,1.332271,0.3907094,0.01628432,0.04627734,0.9995906,30.37241,12.84851,-29.26929,998.2189
0.933944702,0.3814003,0.8481696,0.3907094,0.01145539,0.04187687,1.002491,30.37241,12.84851,-29.26929,998.2194
0.936421871,0.4426338,0.7876569,0.5130343,0.005594907,0.04622899,1.002545,30.37241,12.84851,-29.26929,998.2194
0.938899040,0.5038673,0.7876569,0.5130343,0.008008011,0.04867269,1.001096,30.37241,12.84851,-29.26929,998.2194
0.941376686,0.3814003,0.7271442,0.3295469,0.002659518,0.05109017,1.005482,30.37241,12.84851,-29.26929,998.2194
0.943853855,0.1976999,0.7271442,0.08489711,0.005635805,0.04039176,1.004928,30.37241,12.84851,-29.26929,998.2194
0.946331024,0.3814003,0.7271442,-0.09859026,0.003656702,0.04671288,1.005454,30.37241,12.84851,-29.26929,998.2194
0.948808670,0.3814003,0.7271442,-0.2209152,-0.0001940967,0.04281024,1.010765,30.37241,12.84851,-29.26929,998.2194
0.951285839,0.5038673,1.09022,-0.465565,0.0007578467,0.04622258,1.010294,30.37241,12.84851,-29.26929,998.2194
0.953763008,0.5651007,1.029708,-0.6490523,0.0002534592,0.04474053,1.002567,30.37241,12.84851,-29.26929,998.2194
0.956240177,0.6263342,1.211246,-0.3432401,0.002726096,0.04478241,1.01462,30.37241,12.84851,-29.26929,998.2194
0.958718300,0.8712681,1.392784,-0.7713773,0.003199399,0.05064209,1.02044,30.37241,12.84851,-29.26929,998.2194
0.961194992,0.993735,1.574322,-1.07719,0.004687809,0.0448042,1.019436,30.74645,12.46294,-30.46759,998.2194
0.963672161,0.6263342,1.695347,-1.199515,0.002717435,0.05015382,1.020923,30.74645,12.46294,-30.46759,998.2194
0.966149807,0.3201669,1.392784,-1.444164,0.005627745,0.04918569,1.01704,30.74645,12.46294,-30.46759,998.2194
0.971104145,-0.5371017,0.7876569,-1.383002,0.006571445,0.04965891,1.009315,30.74645,12.46294,-30.46759,998.2194
0.971104145,-0.5371017,0.7876569,-1.383002,0.006571445,0.04965891,1.009315,30.74645,12.46294,-30.46759,998.2194
0.973581791,-0.7820356,0.4850934,-1.260677,0.009516649,0.04333813,1.006853,30.74645,12.46294,-30.46759,998.22
0.976058960,-0.8432691,-0.1200336,-1.138352,0.01434228,0.04626961,1.000566,30.74645,12.46294,-30.46759,998.22
0.981013298,-0.4146348,-0.5436226,-0.9548646,0.01583722,0.03896978,0.9990728,30.74645,12.46294,-30.46759,998.22
0.981013298,-0.4146348,-0.5436226,-0.9548646,0.01583722,0.03896978,0.9990728,30.74645,12.46294,-30.46759,998.22
0.983490944,-0.1697009,-0.7856733,-0.9548646,0.01920109,0.03944737,0.9879553,30.74645,12.46294,-30.46759,998.22
0.985968113,-0.04723396,-0.6041352,-0.7713773,0.02018908,0.04141885,0.9956828,30.74645,12.46294,-30.46759,998.22
0.988445282,0.1364664,-0.5436226,-0.5878899,0.01972844,0.04094581,1.002441,30.74645,12.46294,-30.46759,998.22
0.993400097,0.2589334,-0.5436226,-0.3432401,0.02215299,0.04193107,1.00195,30.74645,12.46294,-30.46759,998.22
0.993400097,0.2589334,-0.5436226,-0.3432401,0.02215299,0.04193107,1.00195,30.74645,12.46294,-30.46759,998.22
0.995877266,0.1976999,-0.3015717,-0.2209152,0.01924051,0.04387539,1.006802,30.74645,12.46294,-30.46759,998.22
0.998354912,0.1976999,-0.1200336,-0.1597527,0.02265193,0.04438696,1.009682,30.74645,12.46294,-30.46759,998.22
1.000832081,-0.04723396,-0.1805463,-0.03742781,0.02169671,0.04097228,1.009187,30.74645,12.46294,-30.46759,998.22
1.005786419,-0.5371017,0.0615045,-0.09859026,0.01682519,0.03947463,1.00438,30.74645,12.46294,-30.46759,998.22
1.005786419,-0.5371017,0.0615045,-0.09859026,0.01682519,0.03947463,1.00438,30.74645,12.46294,-30.46759,998.22
1.008264065,-0.4758682,0.1825299,-0.03742781,0.01682081,0.03849375,1.001478,30.74645,12.46294,-30.46759,998.22
1.010741234,-0.8432691,0.1220172,0.02373465,0.01728201,0.03945605,0.9956887,30.74645,12.46294,-30.46759,998.22
1.013218403,-0.9045025,-0.241059,-0.09859026,0.01143021,0.0399034,0.9918617,30.74787,12.47738,-29.70756,998.2183
1.018173218,-0.9045025,-0.7856733,-0.03742781,0.003615644,0.04228369,0.9861246,30.74787,12.47738,-29.70756,998.2183
1.018173218,-0.9045025,-0.7856733,-0.03742781,0.003615644,0.04228369,0.9861246,30.74787,12.47738,-29.70756,998.2183
1.020650387,-1.088203,-0.9672114,-0.03742781,0.005582762,0.03839836,0.9860938,30.74787,12.47738,-29.70756,998.2183
1.023127556,-0.8432691,-1.3908,-0.09859026,0.007513392,0.04279777,0.9890019,30.74787,12.47738,-29.70756,998.2183
1.025605202,-0.5983351,-1.632851,-0.2820776,0.005562024,0.04033903,0.9832078,30.74787,12.47738,-29.70756,998.2183
1.030559540,-0.3534013,-1.451313,-0.3432401,0.01386348,0.03845052,0.9899101,30.74787,12.47738,-29.70756,998.2183
1.030559540,-0.3534013,-1.451313,-0.3432401,0.01386348,0.03845052,0.9899101,30.74787,12.47738,-29.70756,998.2183
1.033037186,-0.2309344,-1.14875,-0.5267274,0.01290992,0.03650365,0.9923187,30.74787,12.47738,-29.70756,998.2183
1.035514355,0.0139995,-0.9066988,-0.5878899,0.01480288,0.04380938,0.9889671,30.74787,12.47738,-29.70756,998.2183
1.040469170,0.5651007,-0.1200336,-0.7102148,0.01438699,0.03945735,1.002462,30.74787,12.47738,-29.70756,998.2183
1.040469170,0.5651007,-0.1200336,-0.7102148,0.01438699,0.03945735,1.002462,30.74787,12.47738,-29.70756,998.2183
1.042946339,0.6263342,0.364068,-0.7102148,0.01728092,0.03994415,0.9961739,30.74787,12.47738,-29.70756,998.2183
1.045423508,0.6263342,0.4850934,-0.8325397,0.01724871,0.04187661,0.9899092,30.74787,12.47738,-29.70756,998.2183
1.047900677,0.5651007,0.6061188,-0.6490523,0.01676353,0.04578589,0.9966894,30.74787,12.47738,-29.70756,998.2183
1.104878902,-0.5983351,0.0615045,-0.4044026,0.0002037175,0.04421611,0.9871185,30.74787,12.47738,-29.70756,998.2232
1.104878902,-0.5983351,0.0615045,-0.4044026,0.0002037175,0.04421611,0.9871185,30.74787,12.47738,-29.70756,998.2232
1.107357025,-0.4146348,-0.4225971,-0.465565,0.003131554,0.04570488,0.9924195,30.74787,12.47738,-29.70756,998.2232
1.109834194,-0.04723396,-0.7251607,-0.7102148,0.005552255,0.04473189,0.9875745,30.74787,12.47738,-29.70756,998.2232
1.114789009,0.1364664,-1.3908,-0.5267274,0.009448894,0.04426745,0.988516,30.74224,12.84527,-29.6507,998.2232
1.117266178,0.1976999,-1.451313,-0.7102148,0.01429036,0.04672138,0.9860889,30.74224,12.84527,-29.6507,998.2232
1.119743347,0.1364664,-1.269775,-0.6490523,0.01189313,0.04526677,0.9938174,30.74224,12.84527,-29.6507,998.2232
1.122220039,0.1976999,-1.088237,-0.8325397,0.01678039,0.04042035,0.9928004,30.74224,12.84527,-29.6507,998.2232
1.124698162,0.3814003,-1.209262,-0.9548646,0.01825411,0.03897182,0.9947155,30.74224,12.84527,-29.6507,998.2232
1.127175331,0.5651007,-0.9672114,-1.016027,0.0201792,0.03847855,0.987945,30.74224,12.84527,-29.6507,998.2232
1.129652977,0.5651007,-0.5436226,-0.8937021,0.02215069,0.03410747,0.9883943,30.74224,12.84527,-29.6507,998.2232
1.132130146,0.5651007,-0.4225971,-1.016027,0.01777157,0.03652764,0.9918096,30.74224,12.84527,-29.6507,998.2232
1.134607315,0.6875677,-0.1200336,-0.9548646,0.02262013,0.03800891,0.9898599,30.74224,12.84527,-29.6507,998.2216
1.137084484,0.8712681,-0.1805463,-0.8325397,0.02260267,0.03995191,0.9879393,30.74224,12.84527,-29.6507,998.2216
1.139562130,0.9325016,-0.05952091,-0.6490523,0.02114856,0.03701461,0.9845535,30.74224,12.84527,-29.6507,998.2216
1.142039299,1.054968,0.1825299,-0.7102148,0.02062625,0.04285284,0.9836209,30.74224,12.84527,-29.6507,998.2216
1.144516468,1.054968,0.3035553,-0.6490523,0.01773993,0.04041601,0.9889336,30.74224,12.84527,-29.6507,998.2216
1.146994114,0.993735,0.2430426,-0.5267274,0.02115572,0.04044183,0.9922938,30.74224,12.84527,-29.6507,998.2216
1.149471283,1.116202,0.364068,-0.4044026,0.02209452,0.04237816,0.9855412,30.74224,12.84527,-29.6507,998.2216
1.154426098,1.361136,0.7271442,-0.5267274,0.01872194,0.04433871,0.9981193,30.74224,12.84527,-29.6507,998.2216
1.154426098,1.361136,0.7271442,-0.5267274,0.01872194,0.04433871,0.9981193,30.74224,12.84527,-29.6507,998.2216
1.156903267,1.361136,1.09022,-0.465565,0.02019073,0.04142002,0.9961656,30.74224,12.84527,-29.6507,998.2216
1.159380436,1.238669,1.332271,-0.3432401,0.01877162,0.04046323,1.006305,30.74224,12.84527,-29.6507,998.2216
1.161857605,1.238669,1.211246,-0.5878899,0.01581381,0.04433063,1.001031,30.74224,12.84527,-29.6507,998.2216
1.166812420,1.177435,1.332271,-0.5878899,0.01582526,0.0428722,1.001989,30.74716,12.47016,-30.08757,998.2216
1.166812420,1.177435,1.332271,-0.5878899,0.01582526,0.0428722,1.001989,30.74716,12.47016,-30.08757,998.2216
1.169289589,0.6875677,1.513809,-0.465565,0.0192143,0.04532327,1.0015,30.74716,12.47016,-30.08757,998.2216
1.171767235,0.2589334,1.09022,-0.5878899,0.01920229,0.04629244,0.9995747,30.74716,12.47016,-30.08757,998.2216
1.174244404,0.0139995,0.7876569,-0.2820776,0.00993259,0.05062342,0.9981997,30.74716,12.47016,-30.08757,998.2221
1.176721573,-0.1697009,0.7271442,-0.3432401,0.006558237,0.043783,0.9957696,30.74716,12.47016,-30.08757,998.2221
1.179198742,-0.2921678,0.6666315,-0.1597527,0.01383408,0.04576259,0.9933265,30.74716,12.47016,-30.08757,998.2221
1.181676388,-0.1084674,0.5456061,-0.3432401,0.01583667,0.03848051,0.998105,30.74716,12.47016,-30.08757,998.2221
1.184153557,-0.04723396,0.6061188,-0.465565,0.01337826,0.03942654,0.9918486,30.74716,12.47016,-30.08757,998.2221
1.186630726,0.1364664,0.5456061,-0.5267274,0.01335916,0.04136838,0.9894453,30.74716,12.47016,-30.08757,998.2221
1.189108372,0.3201669,0.4245807,-0.4044026,0.01139423,0.04574415,0.9909264,30.74716,12.47016,-30.08757,998.2221
1.191585541,0.6875677,0.4245807,-0.5267274,0.01383129,0.04184962,0.9860664,30.74716,12.47016,-30.08757,998.2221
1.194062710,0.993735,0.3035553,-0.465565,0.01433507,0.03990912,0.9879844,30.74716,12.47016,-30.08757,998.2221
1.199017525,1.238669,-0.05952091,-0.5267274,0.008980047,0.04378855,0.9928604,30.74716,12.47016,-30.08757,998.2221
1.199017525,1.238669,-0.05952091,-0.5267274,0.008980047,0.04378855,0.9928604,30.74716,12.47016,-30.08757,998.2221
1.201494694,1.299902,-0.1805463,-0.5267274,0.01435701,0.04481352,1.00249,30.74716,12.47016,-30.08757,998.2221
1.203971863,1.116202,-0.4225971,-0.5267274,0.02019075,0.04288665,0.9985865,30.74716,12.47016,-30.08757,998.2221
1.206449509,1.177435,-0.7251607,-0.465565,0.01580457,0.04774614,1.003945,30.74716,12.47016,-30.08757,998.2221
1.211403847,1.054968,-0.7856733,-0.4044026,0.02119516,0.04633649,1.013562,30.74716,12.47016,-30.08757,998.2221
1.211403847,1.054968,-0.7856733,-0.4044026,0.02119516,0.04633649,1.013562,30.74716,12.47016,-30.08757,998.2221
1.213881493,0.7488011,-0.7856733,-0.2820776,0.02022963,0.04829204,1.018887,30.38238,12.09948,-30.0797,998.2244
1.216358662,0.7488011,-0.3620844,-0.2209152,0.02264659,0.05269398,1.021792,30.38238,12.09948,-30.0797,998.2244
1.218835831,0.4426338,0.1825299,-0.3432401,0.01585976,0.04729671,1.019388,30.38238,12.09948,-30.0797,998.2244
1.223790646,0.07523298,0.4850934,-0.5267274,0.01779196,0.0472974,1.015516,30.38238,12.09948,-30.0797,998.2244
1.223790646,0.07523298,0.4850934,-0.5267274,0.01779196,0.0472974,1.015516,30.38238,12.09948,-30.0797,998.2244
1.226267815,-0.3534013,0.4850934,-0.465565,0.02026993,0.03903227,1.01546,30.38238,12.09948,-30.0797,998.2244
1.228744984,-0.5983351,0.7271442,-0.1597527,0.02122349,0.04097914,1.013051,30.38238,12.09948,-30.0797,998.2244
1.231222630,-0.4758682,0.6061188,0.02373465,0.02071204,0.04193641,1.007267,30.38238,12.09948,-30.0797,998.2244
1.236176968,-0.4758682,-0.05952091,0.207222,0.0143575,0.04090289,0.9961948,30.38238,12.09948,-30.0797,998.2244
1.236176968,-0.4758682,-0.05952091,0.207222,0.0143575,0.04090289,0.9961948,30.38238,12.09948,-30.0797,998.2244
1.238654614,-0.3534013,-0.7251607,0.3295469,0.01191442,0.04381537,0.9976712,30.38238,12.09948,-30.0797,998.2244
1.241131783,-0.2921678,-1.088237,0.5130343,0.008960994,0.04866366,0.9952989,30.38238,12.09948,-30.0797,998.2244
1.243608952,-0.1697009,-1.209262,0.5741968,0.008001961,0.046224,0.9952917,30.38238,12.09948,-30.0797,998.2244
1.248563767,0.2589334,-1.572338,0.4518718,0.01628864,0.04285832,0.9952289,30.38238,12.09948,-30.0797,998.2244
1.248563767,0.2589334,-1.572338,0.4518718,0.01628864,0.04285832,0.9952289,30.38238,12.09948,-30.0797,998.2244
1.251040936,0.3201669,-1.693364,0.4518718,0.01291763,0.04042013,1.001027,30.38238,12.09948,-30.0797,998.2244
1.253518105,0.3201669,-1.572338,0.4518718,0.01340507,0.04140119,1.00296,30.38238,12.09948,-30.0797,998.2244
1.255995750,0.3201669,-1.451313,0.4518718,0.01292255,0.04042365,1.002475,30.38238,12.09948,-30.0797,998.2267
1.260950089,0.6263342,-0.6646479,0.3295469,0.009517225,0.04529403,1.010242,30.38238,12.09948,-30.0797,998.2267
1.260950089,0.6263342,-0.6646479,0.3295469,0.009517225,0.04529403,1.010242,30.38238,12.09948,-30.0797,998.2267
1.263427258,0.7488011,-0.5436226,0.1460596,0.004655617,0.0482033,1.015592,30.37733,12.47339,-29.70617,998.2267
1.265904903,0.8100346,0.0009917939,-0.09859026,0.007593201,0.04383256,1.014106,30.37733,12.47339,-29.70617,998.2267
1.270859242,0.8712681,0.5456061,-0.6490523,0.001262166,0.04330471,1.010759,30.37733,12.47339,-29.70617,998.2267
1.270859242,0.8712681,0.5456061,-0.6490523,0.001262166,0.04330471,1.010759,30.37733,12.47339,-29.70617,998.2267
1.273336887,0.8712681,0.8481696,-0.5878899,0.001215286,0.05109316,1.009834,30.37733,12.47339,-29.70617,998.2267
1.275814056,0.6263342,0.8481696,-0.8937021,0.002665014,0.05304958,1.010319,30.37733,12.47339,-29.70617,998.2267
1.278291225,0.3201669,0.6061188,-1.199515,0.002222308,0.04672291,1.012702,30.37733,12.47339,-29.70617,998.2267
1.283246040,-0.3534013,0.364068,-1.505327,0.008527108,0.047232,1.008326,30.37733,12.47339,-29.70617,998.2267
1.283246040,-0.3534013,0.364068,-1.505327,0.008527108,0.047232,1.008326,30.37733,12.47339,-29.70617,998.2267
1.285723209,-0.3534013,0.364068,-1.566489,0.008038054,0.04771641,1.008332,30.37733,12.47339,-29.70617,998.2267
1.288200378,-0.5371017,0.364068,-1.749977,0.01140465,0.04770708,0.9972113,30.37733,12.47339,-29.70617,998.2267
1.290678024,-0.4146348,0.1825299,-1.872301,0.01094335,0.04087824,0.9933173,30.37733,12.47339,-29.70617,998.2267
1.295632362,-0.5371017,0.0615045,-1.688814,0.02066398,0.04434643,0.9971433,30.37733,12.47339,-29.70617,998.225
1.295632362,-0.5371017,0.0615045,-1.688814,0.02066398,0.04434643,0.9971433,30.37733,12.47339,-29.70617,998.225
1.298110008,-0.3534013,0.0009917939,-1.688814,0.02112625,0.043354,0.9884474,30.37733,12.47339,-29.70617,998.225
1.300587177,-0.1084674,0.1220172,-1.627652,0.02452513,0.0458121,0.9908549,30.37733,12.47339,-29.70617,998.225
1.305541992,0.1976999,0.364068,-1.260677,0.0211072,0.04822911,0.990886,30.37733,12.47339,-29.70617,998.225
1.305541992,0.1976999,0.364068,-1.260677,0.0211072,0.04822911,0.990886,30.37733,12.47339,-29.70617,998.225
1.308019161,0.1976999,0.4245807,-1.138352,0.02400554,0.05116342,0.9899199,30.37733,12.47339,-29.70617,998.225
1.310496330,0.1364664,0.364068,-1.07719,0.02453007,0.04728225,0.9947239,30.37733,12.47339,-29.70617,998.225
1.312973499,0.1976999,0.364068,-0.8325397,0.0250273,0.04533707,0.9947112,30.75362,12.11068,-29.70107,998.225
1.317928314,-0.1084674,0.0615045,-0.6490523,0.02064107,0.04726329,0.9952278,30.75362,12.11068,-29.70107,998.225
1.317928314,-0.1084674,0.0615045,-0.6490523,0.02064107,0.04726329,0.9952278,30.75362,12.11068,-29.70107,998.225
1.320405483,-0.1084674,-0.05952091,-0.4044026,0.01677767,0.04090727,0.9928029,30.75362,12.11068,-29.70107,998.225
1.325360298,-0.2309344,-0.1200336,-0.3432401,0.01382152,0.04624248,0.9904331,30.75362,12.11068,-29.70107,998.225
1.325360298,-0.2309344,-0.1200336,-0.3432401,0.01382152,0.04624248,0.9904331,30.75362,12.11068,-29.70107,998.225
1.330314636,-0.1697009,-0.3015717,-0.1597527,0.01285325,0.04721833,0.9933394,30.75362,12.11068,-29.70107,998.225
1.330314636,-0.1697009,-0.3015717,-0.1597527,0.01285325,0.04721833,0.9933394,30.75362,12.11068,-29.70107,998.225
1.332792282,-0.1084674,-0.3620844,-0.1597527,0.01285816,0.04722184,0.9947874,30.75362,12.11068,-29.70107,998.225
1.335269451,0.0139995,-0.4831098,-0.1597527,0.01380297,0.04867359,0.9889976,30.75362,12.11068,-29.70107,998.2255
1.337746620,0.0139995,-0.6041352,-0.1597527,0.01087735,0.0491419,0.987568,30.75362,12.11068,-29.70107,998.2255
1.342701435,0.0139995,-0.9672114,-0.09859026,0.006047336,0.04522954,0.990953,30.75362,12.11068,-29.70107,998.2255
1.342701435,0.0139995,-0.9672114,-0.09859026,0.006047336,0.04522954,0.990953,30.75362,12.11068,-29.70107,998.2255
1.345178604,-0.04723396,-1.209262,-0.09859026,0.01038393,0.05011206,0.987093,30.75362,12.11068,-29.70107,998.2255
1.347656250,0.0139995,-1.330288,-0.2209152,0.008426608,0.05107116,0.9851779,30.75362,12.11068,-29.70107,998.2255
1.350133419,-0.04723396,-1.330288,-0.2209152,0.01528653,0.04723208,0.9938089,30.75362,12.11068,-29.70107,998.2255
1.355087757,-0.1697009,-1.330288,-0.09859026,0.01529584,0.04821648,0.998158,30.75362,12.11068,-29.70107,998.2255
1.355087757,-0.1697009,-1.330288,-0.09859026,0.01529584,0.04821648,0.998158,30.75362,12.11068,-29.70107,998.2255
1.357565403,-0.4758682,-1.209262,-0.1597527,0.0216132,0.04824569,0.9966755,30.75362,12.11068,-29.70107,998.2255
1.360042572,-0.6595686,-1.027724,-0.1597527,0.01771765,0.04822204,0.9952487,30.75362,12.11068,-29.70107,998.2255
1.362519741,-0.8432691,-0.9066988,-0.1597527,0.02407263,0.04241167,0.9951841,30.75362,12.11068,-29.70107,998.2255
1.367474556,-0.5371017,-0.1200336,-0.1597527,0.01966731,0.04627972,0.9932973,31.1177,12.47414,-30.08896,998.2255
1.367474556,-0.5371017,-0.1200336,-0.1597527,0.01966731,0.04627972,0.9932973,31.1177,12.47414,-30.08896,998.2255
1.369951725,-0.5983351,0.0009917939,0.02373465,0.01967823,0.04579865,0.9957082,31.1177,12.47414,-30.08896,998.2255
1.372428894,-0.3534013,0.2430426,-0.2209152,0.0172476,0.04089807,0.9879735,31.1177,12.47414,-30.08896,998.2255
1.377383709,-0.3534013,0.1220172,-0.09859026,0.01231939,0.04864847,0.9817654,31.1177,12.47414,-30.08896,998.2298
1.377383709,-0.3534013,0.1220172,-0.09859026,0.01231939,0.04864847,0.9817654,31.1177,12.47414,-30.08896,998.2298
1.379860878,-0.1697009,-0.05952091,0.02373465,0.01380773,0.03841068,0.9734992,31.1177,12.47414,-30.08896,998.2298
1.382338524,0.0139995,-0.3015717,0.08489711,0.01383064,0.03549382,0.9754149,31.1177,12.47414,-30.08896,998.2298
1.387292862,0.4426338,-1.027724,0.08489711,0.01283727,0.03889609,0.974955,31.1177,12.47414,-30.08896,998.2298
1.389770508,0.7488011,-1.088237,0.207222,0.01386565,0.03747433,0.9889397,31.1177,12.47414,-30.08896,998.2298
1.392247677,0.9325016,-1.269775,0.3295469,0.01628533,0.04138934,0.9918427,31.1177,12.47414,-30.08896,998.2298
1.394724846,0.9325016,-1.3908,0.3295469,0.01627716,0.04285011,0.9918503,31.1177,12.47414,-30.08896,998.2298
1.397202015,1.054968,-0.9066988,0.2683845,0.01531872,0.04383299,0.9976527,31.1177,12.47414,-30.08896,998.2298
1.399679661,1.116202,-0.6646479,0.207222,0.01190844,0.04576658,0.9991292,31.1177,12.47414,-30.08896,998.2298
1.402156830,1.177435,-0.3620844,0.1460596,0.0148226,0.04675671,0.9996011,31.1177,12.47414,-30.08896,998.2298
1.404633999,1.177435,0.1220172,0.02373465,0.009988799,0.045286,1.005895,31.1177,12.47414,-30.08896,998.2298
1.407111645,1.054968,0.4245807,-0.09859026,0.008517225,0.04429171,1.000588,31.1177,12.47414,-30.08896,998.2298
1.409588814,1.116202,0.7271442,-0.2209152,0.009455476,0.04573877,0.9928678,31.1177,12.47414,-30.08896,998.2298
1.412065983,1.177435,0.8481696,-0.1597527,0.01194008,0.04187822,1.002005,31.1177,12.47414,-30.08896,998.2298
1.414543629,1.299902,0.9691951,-0.2209152,0.007562025,0.04234366,1.002514,30.37663,12.46617,-30.08619,998.2281
1.417020798,1.116202,0.9691951,-0.4044026,0.010421,0.04378321,0.9875429,30.37663,12.46617,-30.08619,998.2281
1.419497967,0.8712681,0.8481696,-0.5267274,0.01093622,0.03891766,0.9879979,30.37663,12.46617,-30.08619,998.2281
1.421975136,1.177435,0.8481696,-0.7102148,0.01192095,0.04235343,0.9971809,30.37663,12.46617,-30.08619,998.2281
1.424452782,1.177435,0.7271442,-0.5267274,0.01194721,0.04383881,1.007325,30.37663,12.46617,-30.08619,998.2281
1.426929951,0.993735,1.029708,-0.7102148,0.008043436,0.04234267,1.001064,30.37663,12.46617,-30.08619,998.2281
1.429407120,0.993735,1.271759,-0.7713773,0.007041864,0.04573907,0.9981904,30.37663,12.46617,-30.08619,998.2281
1.431884766,1.177435,1.453297,-0.7102148,0.007086642,0.04332671,1.007349,30.37663,12.46617,-30.08619,998.2281
1.434361935,1.483603,1.513809,-1.138352,0.009003069,0.04820486,1.006881,30.37663,12.46617,-30.08619,998.2281
1.436839104,1.238669,1.695347,-1.260677,0.004626681,0.05013811,1.010293,30.37663,12.46617,-30.08619,998.2281
1.439316273,0.993735,2.118936,-1.016027,0.00756371,0.0452781,1.007839,30.37663,12.46617,-30.08619,998.2281
1.441793919,0.993735,2.300474,-1.199515,0.0109391,0.04869717,1.004942,30.37663,12.46617,-30.08619,998.2281
1.444271088,0.8712681,2.179449,-1.383002,0.01002318,0.04237735,1.011189,30.37663,12.46617,-30.08619,998.2281
1.446748257,0.8100346,2.058424,-1.444164,0.01486519,0.04385391,1.007309,30.37663,12.46617,-30.08619,998.2281
1.449225903,0.7488011,2.118936,-1.321839,0.01677067,0.04774648,1.002009,30.37663,12.46617,-30.08619,998.2281
1.451703072,0.6263342,1.937398,-1.260677,0.01534821,0.04238745,1.00392,30.37663,12.46617,-30.08619,998.2281
1.454180241,0.5038673,1.816373,-1.138352,0.01242153,0.04481049,1.005396,30.37663,12.46617,-30.08619,998.2281
1.456657887,0.1976999,1.453297,-1.138352,0.01531004,0.04773776,1.001534,30.37663,12.46617,-30.08619,998.2287
1.459135056,0.0139995,1.150733,-1.138352,0.01432921,0.0491935,1.001547,30.37663,12.46617,-30.08619,998.2287
1.461612225,-0.1084674,0.9691951,-1.07719,0.01285218,0.04917306,0.9962456,30.37663,12.46617,-30.08619,998.2287
1.464089394,-0.3534013,0.7876569,-0.8325397,0.01044675,0.04771259,1.001561,30.75362,12.11068,-29.70107,998.2287
1.466567040,-0.1084674,0.4245807,-0.7713773,0.01531055,0.04529376,0.9976602,30.75362,12.11068,-29.70107,998.2287
1.469044209,-0.2921678,0.4245807,-0.8937021,0.02017597,0.04140948,0.9918215,30.75362,12.11068,-29.70107,998.2287
1.473999024,0.1364664,0.7271442,-0.6490523,0.01338378,0.04285259,0.9991062,30.75362,12.11068,-29.70107,998.2287
1.473999024,0.1364664,0.7271442,-0.6490523,0.01338378,0.04285259,0.9991062,30.75362,12.11068,-29.70107,998.2287
1.476476193,0.3814003,0.8481696,-0.8325397,0.01729464,0.04337605,1.005845,30.75362,12.11068,-29.70107,998.2287
1.478953362,0.5038673,0.9086823,-0.8325397,0.01580672,0.04530331,1.000553,30.75362,12.11068,-29.70107,998.2287
1.481430531,0.7488011,0.6666315,-0.6490523,0.01824275,0.04629678,1.003442,30.75362,12.11068,-29.70107,998.2287
1.483908177,0.5038673,0.8481696,-0.5878899,0.01242698,0.04383664,1.005391,30.75362,12.11068,-29.70107,998.2287
1.486385346,0.3201669,0.9086823,-0.5267274,0.01532318,0.04921377,1.007817,30.75362,12.11068,-29.70107,998.2287
1.488862515,0.1976999,0.4850934,-0.465565,0.01967777,0.05117591,1.004424,30.75362,12.11068,-29.70107,998.2287
1.493817330,0.0139995,0.4850934,-0.1597527,0.02260496,0.04630888,0.9990734,30.75362,12.11068,-29.70107,998.2287
1.493817330,0.0139995,0.4850934,-0.1597527,0.02260496,0.04630888,0.9990734,30.75362,12.11068,-29.70107,998.2287
1.516113281,-0.1084674,-0.7856733,0.02373465,0.007523252,0.04427144,0.9943189,30.37733,12.47339,-29.70617,998.2253
1.516113281,-0.1084674,-0.7856733,0.02373465,0.007523252,0.04427144,0.9943189,30.37733,12.47339,-29.70617,998.2253
1.518590450,-0.04723396,-1.511826,0.08489711,0.009948363,0.04574597,0.9947958,30.37733,12.47339,-29.70617,998.2253
1.521067619,-0.1084674,-1.814389,-0.03742781,0.009946215,0.0481888,0.9981871,30.37733,12.47339,-29.70617,998.2253
1.523544788,0.1364664,-2.116953,-0.1597527,0.009466399,0.0452577,0.9952787,30.37733,12.47339,-29.70617,998.2253
1.528499603,0.3814003,-2.298491,-0.4044026,0.007544058,0.04673067,1.004468,30.37733,12.47339,-29.70617,998.2253
1.528499603,0.3814003,-2.298491,-0.4044026,0.007544058,0.04673067,1.004468,30.37733,12.47339,-29.70617,998.2253
1.530976772,0.5038673,-2.116953,-0.465565,0.009987736,0.04724073,1.008801,30.37733,12.47339,-29.70617,998.2253
1.533454418,0.5038673,-1.935415,-0.5878899,0.01048663,0.04676335,1.011692,30.37733,12.47339,-29.70617,998.2253
1.535931587,0.3814003,-1.753877,-0.6490523,0.009989953,0.0491978,1.012672,30.37733,12.47339,-29.70617,998.2292
1.540886402,0.07523298,-1.209262,-0.8937021,0.009469792,0.05259321,1.008349,30.37733,12.47339,-29.70617,998.2292
1.540886402,0.07523298,-1.209262,-0.8937021,0.009469792,0.05259321,1.008349,30.37733,12.47339,-29.70617,998.2292
1.543363571,0.07523298,-0.9672114,-0.8937021,0.008029325,0.04868792,1.007371,30.37733,12.47339,-29.70617,998.2292
1.545840740,0.2589334,-0.9672114,-0.9548646,0.01093802,0.04918526,1.005427,30.37733,12.47339,-29.70617,998.2292
1.548317909,0.0139995,-0.7856733,-1.016027,0.01873353,0.05168007,1.013603,30.37733,12.47339,-29.70617,998.2292
1.553272724,-0.4146348,-0.3620844,-1.07719,0.02164274,0.04973341,1.007785,30.37733,12.47339,-29.70617,998.2292
1.553272724,-0.4146348,-0.3620844,-1.07719,0.02164274,0.04973341,1.007785,30.37733,12.47339,-29.70617,998.2292
1.555749893,-0.3534013,-0.3620844,-0.9548646,0.02263068,0.04877163,1.01067,30.37733,12.47339,-29.70617,998.2292
1.558227539,-0.2921678,-0.1200336,-0.8937021,0.02847537,0.04783032,1.011599,30.37733,12.47339,-29.70617,998.2292
1.560704708,-0.4146348,0.2430426,-0.7713773,0.02795246,0.05024603,1.004857,30.37733,12.47339,-29.70617,998.2292
1.565659523,-0.4146348,0.4245807,-0.5878899,0.02553058,0.04584057,1.000503,30.36583,13.20678,-29.71913,998.2292
1.565659523,-0.4146348,0.4245807,-0.5878899,0.02553058,0.04584057,1.000503,30.36583,13.20678,-29.71913,998.2292
1.568136692,-0.2921678,0.4245807,-0.5878899,0.02160507,0.05263973,1.001525,30.36583,13.20678,-29.71913,998.2292
1.570613861,-0.2309344,0.4245807,-0.465565,0.02258535,0.05069472,1.000544,30.36583,13.20678,-29.71913,998.2292
1.575568676,0.0139995,0.5456061,-0.03742781,0.02205598,0.05897226,1.001555,30.36583,13.20678,-29.71913,998.2333
1.575568676,0.0139995,0.5456061,-0.03742781,0.02205598,0.05897226,1.001555,30.36583,13.20678,-29.71913,998.2333
1.578045845,0.07523298,0.5456061,-0.1597527,0.01913795,0.05602389,0.996729,30.36583,13.20678,-29.71913,998.2333
1.580523014,-0.1084674,0.6666315,0.02373465,0.02693779,0.05509969,1.000543,30.36583,13.20678,-29.71913,998.2333
1.583000660,-0.04723396,0.7271442,0.02373465,0.02455145,0.05169738,1.008262,30.36583,13.20678,-29.71913,998.2333
1.587954998,0.07523298,0.8481696,0.3295469,0.02308535,0.05119587,1.005371,30.36583,13.20678,-29.71913,998.2333
1.587954998,0.07523298,0.8481696,0.3295469,0.02308535,0.05119587,1.005371,30.36583,13.20678,-29.71913,998.2333
1.590432167,-0.1084674,0.7271442,0.5130343,0.02546737,0.0580172,1.002014,30.36583,13.20678,-29.71913,998.2333
1.592909813,-0.3534013,0.8481696,0.6965217,0.02355743,0.04874386,0.9971501,30.36583,13.20678,-29.71913,998.2333
1.595386982,-0.6595686,0.6061188,0.8188466,0.02258586,0.04825072,0.9966702,30.36583,13.20678,-29.71913,998.2333
1.600341797,-0.8432691,0.0615045,1.063496,0.01530237,0.04675454,0.9976678,30.36583,13.20678,-29.71913,998.2333
1.600341797,-0.8432691,0.0615045,1.063496,0.01530237,0.04675454,0.9976678,30.36583,13.20678,-29.71913,998.2333
1.602818966,-0.9045025,-0.241059,1.063496,0.0153018,0.04479863,0.994279,30.36583,13.20678,-29.71913,998.2333
1.605296135,-1.088203,-0.7856733,1.124659,0.006563133,0.04231988,0.9947967,30.36583,13.20678,-29.71913,998.2333
1.610250950,-1.02697,-0.9066988,1.002334,0.007493299,0.05109424,0.9967674,30.36583,13.20678,-29.71913,998.2333
1.610250950,-1.02697,-0.9066988,1.002334,0.007493299,0.05109424,0.9967674,30.36583,13.20678,-29.71913,998.2333
1.612728119,-0.7820356,-0.7251607,0.8800091,0.009464182,0.04330063,0.9914072,30.36583,13.20678,-29.71913,998.2333
1.615205288,-0.6595686,-0.6646479,0.9411715,0.009984942,0.04332776,1.001541,31.12346,12.10744,-30.08248,998.2333
1.617682934,-0.3534013,-0.3620844,0.6965217,0.009954921,0.04575066,0.9967265,31.12346,12.10744,-30.08248,998.2356
1.622637272,0.07523298,0.364068,0.1460596,0.005585533,0.0408447,0.990933,31.12346,12.10744,-30.08248,998.2356
1.622637272,0.07523298,0.364068,0.1460596,0.005585533,0.0408447,0.990933,31.12346,12.10744,-30.08248,998.2356
1.625114918,0.1364664,0.7271442,-0.09859026,0.006577889,0.04233043,0.9991407,31.12346,12.10744,-30.08248,998.2356
1.627592087,-0.1697009,0.9691951,-0.2209152,0.0007277345,0.04277895,0.9957964,31.12346,12.10744,-30.08248,998.2356
1.630069256,-0.2309344,1.271759,-0.2820776,0.008970254,0.04671479,0.9948061,31.12346,12.10744,-30.08248,998.2356
1.635024071,-0.1697009,1.513809,-0.7102148,0.006536877,0.0408345,0.9846531,31.12346,12.10744,-30.08248,998.2356
1.635024071,-0.1697009,1.513809,-0.7102148,0.006536877,0.0408345,0.9846531,31.12346,12.10744,-30.08248,998.2356
1.637501240,-0.04723396,1.513809,-0.8325397,0.007050503,0.03890104,0.9894671,31.12346,12.10744,-30.08248,998.2356
1.639978409,0.07523298,1.634835,-0.8937021,0.01238541,0.04185145,0.9899357,31.12346,12.10744,-30.08248,998.2356
1.642456055,0.0139995,1.816373,-0.8937021,0.01091282,0.04574515,0.9923772,31.12346,12.10744,-30.08248,998.2356
1.647411347,-0.1084674,1.997911,-1.07719,0.01237671,0.04428958,0.9913963,31.12346,12.10744,-30.08248,998.2356
1.647411347,-0.1084674,1.997911,-1.07719,0.01237671,0.04428958,0.9913963,31.12346,12.10744,-30.08248,998.2356
1.649888039,0.07523298,1.997911,-1.07719,0.01044497,0.03891163,0.9865524,31.12346,12.10744,-30.08248,998.2356
1.652365208,0.1364664,1.816373,-1.199515,0.02019558,0.03702364,0.9903508,31.12346,12.10744,-30.08248,998.2356
1.654842377,0.1364664,1.574322,-1.07719,0.0172558,0.04090393,0.9903869,31.12346,12.10744,-30.08248,998.2356
1.659797192,0.07523298,0.4245807,-0.5267274,0.01773067,0.04236488,0.9894264,31.12346,12.10744,-30.08248,998.2356
1.662274361,-0.04723396,0.0615045,-0.4044026,0.01481979,0.0413771,0.9899199,31.12346,12.10744,-30.08248,998.2356
1.664751530,0.1364664,-0.3620844,-0.3432401,0.0119035,0.04429644,0.9952604,31.12346,12.10744,-30.08248,998.2356
1.667229176,-0.1084674,-1.027724,-0.1597527,0.01142915,0.04185813,0.9947677,30.75444,12.1191,-29.25772,998.2356
1.669706822,-0.1084674,-1.511826,-0.09859026,0.008521544,0.04087269,0.9962267,30.75444,12.1191,-29.25772,998.2356
1.672183514,0.07523298,-1.572338,-0.09859026,0.009945592,0.04329963,0.9899564,30.75444,12.1191,-29.25772,998.2356
1.674660683,-0.04723396,-1.632851,-0.03742781,0.0119395,0.03992232,0.9986165,30.75444,12.1191,-29.25772,998.2356
1.677138329,-0.4146348,-1.753877,0.1460596,0.01095922,0.04186733,0.9995971,30.75444,12.1191,-29.25772,998.2356
1.679615498,-0.2921678,-1.511826,-0.1597527,0.00850464,0.04330497,0.9952739,30.75444,12.1191,-29.25772,998.2356
1.682092667,-0.1084674,-1.3908,-0.1597527,0.00703145,0.04377614,0.9919056,30.75444,12.1191,-29.25772,998.2356
1.684570313,0.1976999,-1.088237,-0.2820776,0.009508405,0.040399,0.9995975,30.75444,12.1191,-29.25772,998.2356
1.687047482,0.2589334,-0.6646479,-0.1597527,0.0119319,0.04333899,1.002013,30.75444,12.1191,-29.25772,998.2356
1.689524651,0.4426338,-0.5436226,-0.2820776,0.01141278,0.04331304,0.9923619,30.75444,12.1191,-29.25772,998.2356
1.692002297,0.5038673,-0.241059,-0.3432401,0.01385098,0.04333031,0.9942794,30.75444,12.1191,-29.25772,998.2356
1.694479466,0.5651007,0.0615045,-0.5267274,0.01532415,0.04139251,0.9952267,30.75444,12.1191,-29.25772,998.2356
1.696956635,0.5038673,0.1220172,-0.5267274,0.01435637,0.03845773,0.9918382,30.75444,12.1191,-29.25772,998.2381
1.706865788,0.7488011,0.0615045,-0.465565,0.01043469,0.04574849,0.9947931,30.75444,12.1191,-29.25772,998.2381
1.709343910,0.8712681,0.1220172,-0.5267274,0.01189368,0.04575604,0.9947852,30.75444,12.1191,-29.25772,998.2381
1.711821079,0.8712681,0.1825299,-0.5267274,0.01528926,0.04674516,0.9938064,30.75444,12.1191,-29.25772,998.2381
1.714298725,1.054968,0.1825299,-0.5267274,0.0138281,0.0477138,0.9947847,30.75444,12.1191,-29.25772,998.2381
1.716775894,1.116202,0.0009917939,-0.5267274,0.01967553,0.04775221,0.9981316,30.38238,12.09948,-30.0797,998.2381
1.719253063,0.8712681,-0.1805463,-0.4044026,0.01968317,0.0472688,0.9995771,30.38238,12.09948,-30.0797,998.2381
1.721730709,0.9325016,0.0009917939,-0.4044026,0.01625924,0.05017039,0.9986455,30.38238,12.09948,-30.0797,998.2381
1.724207878,0.7488011,0.1220172,-0.3432401,0.01916029,0.05115113,0.9952558,30.38238,12.09948,-30.0797,998.2381
1.726685047,0.5651007,-0.1805463,-0.2209152,0.02161978,0.04971701,1.001027,30.38238,12.09948,-30.0797,998.2381
1.729162216,0.4426338,0.364068,-0.2209152,0.01919851,0.04873409,1.002483,30.38238,12.09948,-30.0797,998.2381
1.731639862,0.4426338,0.5456061,-0.2209152,0.01677501,0.0457941,1.000068,30.38238,12.09948,-30.0797,998.2381
1.734117031,0.4426338,0.6061188,-0.03742781,0.01629094,0.05068192,1.008784,30.38238,12.09948,-30.0797,998.2381
1.739071846,0.3814003,1.453297,-0.09859026,0.02215572,0.04144415,1.001947,30.38238,12.09948,-30.0797,998.2422
1.739071846,0.3814003,1.453297,-0.09859026,0.02215572,0.04144415,1.001947,30.38238,12.09948,-30.0797,998.2422
1.741549015,0.0139995,1.634835,0.08489711,0.01876508,0.04192518,1.006795,30.38238,12.09948,-30.0797,998.2422
1.744026184,-0.2309344,1.816373,0.207222,0.01391384,0.04386411,1.013589,30.38238,12.09948,-30.0797,998.2422
1.746503353,-0.3534013,2.239962,0.207222,0.01826129,0.04386567,1.004877,30.38238,12.09948,-30.0797,998.2422
1.748980999,-0.4146348,2.4215,0.207222,0.01677718,0.0448179,0.9990977,30.38238,12.09948,-30.0797,998.2422
1.751458168,-0.4146348,2.482013,0.3295469,0.01194825,0.04041744,1.001998,30.38238,12.09948,-30.0797,998.2422
1.753935337,-0.4146348,2.4215,0.2683845,0.0075369,0.04330345,0.9967272,30.38238,12.09948,-30.0797,998.2422
1.756412983,-0.4146348,2.300474,0.2683845,0.006565835,0.04036632,0.9923733,30.38238,12.09948,-30.0797,998.2422
1.761367321,-0.5371017,1.513809,0.207222,0.001696006,0.0418031,0.99289,30.38238,12.09948,-30.0797,998.2422
1.761367321,-0.5371017,1.513809,0.207222,0.001696006,0.0418031,0.99289,30.38238,12.09948,-30.0797,998.2422
1.763844967,-0.4146348,1.09022,0.08489711,-0.002691905,0.04079488,0.9880821,30.38238,12.09948,-30.0797,998.2422
1.766322136,-0.3534013,0.7876569,-0.03742781,-0.007557878,0.0441899,0.9929529,30.74787,12.47738,-29.70756,998.2422
1.768799305,-0.1697009,0.364068,0.08489711,0.000722816,0.04277543,0.9943485,30.74787,12.47738,-29.70756,998.2422
1.773754120,-0.2309344,0.1825299,-0.4044026,-0.004150847,0.0437206,0.9929319,30.74787,12.47738,-29.70756,998.2422
1.773754120,-0.2309344,0.1825299,-0.4044026,-0.004150847,0.0437206,0.9929319,30.74787,12.47738,-29.70756,998.2422
1.776231289,0.1364664,0.364068,-0.4044026,-0.0002296136,0.04327373,1.001114,30.74787,12.47738,-29.70756,998.2461
1.778708458,0.3201669,0.6666315,-0.5878899,0.002661066,0.04522481,0.9962811,30.74787,12.47738,-29.70756,998.2461
1.781186104,0.5038673,0.7271442,-0.9548646,0.004138599,0.04280125,0.9977086,30.74787,12.47738,-29.70756,998.2461
1.783663273,0.4426338,1.029708,-1.199515,0.006601398,0.0428361,1.006866,30.74787,12.47738,-29.70756,998.2461
1.786140442,0.4426338,1.211246,-1.321839,0.004106983,0.04815625,0.9972535,30.74787,12.47738,-29.70756,998.2461
1.788617611,0.3201669,1.211246,-1.260677,0.007549485,0.04429019,1.002042,30.74787,12.47738,-29.70756,998.2461
1.791095257,0.1976999,1.029708,-1.505327,0.0104691,0.04430646,1.002509,30.74787,12.47738,-29.70756,998.2461
1.793572426,-0.1084674,0.9691951,-1.566489,0.001201547,0.04619462,0.9977421,30.74787,12.47738,-29.70756,998.2461
1.796049595,-0.3534013,1.029708,-1.383002,0.007507456,0.04768226,0.9953018,30.74787,12.47738,-29.70756,998.2461
1.798527241,-0.04723396,1.150733,-1.566489,0.01046799,0.04332793,1.000573,30.74787,12.47738,-29.70756,998.2461
1.801004410,-0.1084674,1.271759,-1.566489,0.01093957,0.0433199,0.996226,30.74787,12.47738,-29.70756,998.2461
1.803481579,-0.2921678,1.150733,-1.566489,0.009964159,0.04233516,0.9938129,30.74787,12.47738,-29.70756,998.2461
1.808436394,-0.04723396,1.332271,-1.627652,0.01385805,0.040891,0.9923361,30.74787,12.47738,-29.70756,998.2461
1.808436394,-0.04723396,1.332271,-1.627652,0.01385805,0.040891,0.9923361,30.74787,12.47738,-29.70756,998.2461
1.810913563,0.1976999,1.332271,-1.383002,0.01484431,0.03699479,0.9898973,30.74787,12.47738,-29.70756,998.2461
1.813390732,0.1976999,1.392784,-1.444164,0.01481267,0.04088315,0.9870214,30.74787,12.47738,-29.70756,998.2461
1.818345547,0.6875677,1.75586,-1.627652,0.01430725,0.04282247,0.9846207,30.38308,12.1067,-29.69969,998.2444
1.818345547,0.6875677,1.75586,-1.627652,0.01430725,0.04282247,0.9846207,30.38308,12.1067,-29.69969,998.2444
1.820822716,0.8712681,1.75586,-1.444164,0.01675206,0.04577769,0.9933106,30.38308,12.1067,-29.69969,998.2444
1.823300362,1.116202,1.876886,-1.444164,0.02065736,0.03994184,0.9879499,30.38308,12.1067,-29.69969,998.2444
1.825777531,1.054968,1.876886,-1.383002,0.02116061,0.03897871,0.9913209,30.38308,12.1067,-29.69969,998.2444
1.830731869,0.9325016,1.75586,-1.199515,0.01871649,0.04531255,0.9981243,30.38308,12.1067,-29.69969,998.2444
1.830731869,0.9325016,1.75586,-1.199515,0.01871649,0.04531255,0.9981243,30.38308,12.1067,-29.69969,998.2444
1.833209515,0.993735,1.453297,-1.138352,0.01627993,0.04529645,0.9966896,30.38308,12.1067,-29.69969,998.2444
1.835686684,0.9325016,1.332271,-1.138352,0.01775259,0.04580265,1.001511,30.38308,12.1067,-29.69969,998.2444
1.838163853,0.7488011,1.211246,-0.8937021,0.01674771,0.04773008,0.9952515,30.38308,12.1067,-29.69969,998.2444
1.843118668,0.5651007,0.8481696,-0.5878899,0.0104549,0.04478518,0.9991322,30.38308,12.1067,-29.69969,998.2444
1.843118668,0.5651007,0.8481696,-0.5878899,0.0104549,0.04478518,0.9991322,30.38308,12.1067,-29.69969,998.2444
1.845595837,0.5651007,0.9086823,-0.8325397,0.01531059,0.04822703,1.002502,30.38308,12.1067,-29.69969,998.2444
1.848073483,0.4426338,0.8481696,-0.7713773,0.009941319,0.04965192,0.9991599,30.38308,12.1067,-29.69969,998.2444
1.850550652,0.2589334,0.7271442,-0.8325397,0.009973511,0.04625282,1.003004,30.38308,12.1067,-29.69969,998.2444
1.855504990,-0.2921678,0.5456061,-0.7102148,0.008952819,0.05012443,0.9953064,30.38308,12.1067,-29.69969,998.2444
1.855504990,-0.2921678,0.5456061,-0.7102148,0.008952819,0.05012443,0.9953064,30.38308,12.1067,-29.69969,998.2444
1.857982636,-0.2921678,0.4245807,-0.8325397,0.008957137,0.04670541,0.9909447,30.38308,12.1067,-29.69969,998.2467
1.860459805,-0.2921678,0.1220172,-0.9548646,0.00847679,0.04475168,0.9894893,30.38308,12.1067,-29.69969,998.2467
1.865414620,-0.04723396,0.0615045,-0.7102148,0.01189587,0.04624648,0.9962358,30.38308,12.1067,-29.69969,998.2467
1.865414620,-0.04723396,0.0615045,-0.7102148,0.01189587,0.04624648,0.9962358,30.38308,12.1067,-29.69969,998.2467
1.867891789,0.1976999,0.3035553,-0.7713773,0.01237511,0.04722167,0.9957554,30.74716,12.47016,-30.08757,998.2467
1.870368958,0.3201669,0.6666315,-0.7713773,0.01335484,0.0447874,0.9938069,30.74716,12.47016,-30.08757,998.2467
1.872846604,0.2589334,0.6666315,-0.8937021,0.01530237,0.04675454,0.9976678,30.74716,12.47016,-30.08757,998.2467
1.877800942,0.7488011,0.6061188,-0.7102148,0.01819684,0.04626397,0.9899265,30.74716,12.47016,-30.08757,998.2467
1.877800942,0.7488011,0.6061188,-0.7102148,0.01819684,0.04626397,0.9899265,30.74716,12.47016,-30.08757,998.2467
1.880278111,0.7488011,0.4245807,-0.7713773,0.01580233,0.04432243,0.9976526,30.74716,12.47016,-30.08757,998.2467
1.882755757,0.7488011,0.1220172,-0.6490523,0.0196668,0.04872372,0.9971713,30.74716,12.47016,-30.08757,998.2467
1.885232926,0.6263342,-0.05952091,-0.4044026,0.01869846,0.04529966,0.9928149,30.74716,12.47016,-30.08757,998.2467
1.902574063,0.5651007,0.4850934,-0.5267274,0.0138805,0.0433514,1.002967,30.74716,12.47016,-30.08757,998.245
1.902574063,0.5651007,0.4850934,-0.5267274,0.0138805,0.0433514,1.002967,30.74716,12.47016,-30.08757,998.245
1.905051232,0.8100346,0.7271442,-0.7713773,0.01432814,0.05114823,1.004453,30.74716,12.47016,-30.08757,998.245
1.907528877,0.8100346,1.029708,-0.7102148,0.01387352,0.05165724,1.014595,30.74716,12.47016,-30.08757,998.245
1.912483216,0.0139995,0.8481696,-0.8325397,0.01725277,0.05703455,1.016052,30.74716,12.47016,-30.08757,998.245
1.912483216,0.0139995,0.8481696,-0.8325397,0.01725277,0.05703455,1.016052,30.74716,12.47016,-30.08757,998.245
1.914960861,-0.2921678,0.9691951,-0.5878899,0.01871176,0.0570421,1.016044,30.74716,12.47016,-30.08757,998.245
1.919915199,-0.965736,1.150733,-0.5878899,0.02170493,0.04244478,1.014022,31.11841,12.48136,-29.70894,998.245
1.919915199,-0.965736,1.150733,-0.5878899,0.02170493,0.04244478,1.014022,31.11841,12.48136,-29.70894,998.245
1.924870014,-1.02697,1.513809,-0.2820776,0.01435974,0.0443266,1.002487,31.11841,12.48136,-29.70894,998.245
1.924870014,-1.02697,1.513809,-0.2820776,0.01435974,0.0443266,1.002487,31.11841,12.48136,-29.70894,998.245
1.927347183,-1.02697,1.513809,-0.1597527,0.01724765,0.04383134,0.9928153,31.11841,12.48136,-29.70894,998.245
1.929824352,-0.7820356,1.09022,-0.09859026,0.01484872,0.0394423,0.9952193,31.11841,12.48136,-29.70894,998.245
1.934779167,-0.4758682,0.8481696,0.02373465,0.005572507,0.04670186,0.9967554,31.11841,12.48136,-29.70894,998.245
1.937256336,-0.4146348,0.7271442,0.02373465,0.003616866,0.05059539,1.000165,31.11841,12.48136,-29.70894,998.2473
1.939733505,0.0139995,0.5456061,-0.09859026,0.002617997,0.05203824,0.9948682,31.11841,12.48136,-29.70894,998.2473
1.942211151,0.07523298,0.4850934,-0.1597527,0.005084029,0.04914216,1.000149,31.11841,12.48136,-29.70894,998.2473
1.944688320,-0.04723396,0.3035553,0.02373465,0.00705445,0.04672581,1.003505,31.11841,12.48136,-29.70894,998.2473
1.947165489,0.0139995,0.364068,-0.1597527,0.01001175,0.0453024,1.012652,31.11841,12.48136,-29.70894,998.2473
1.949643135,0.07523298,0.364068,-0.2209152,0.005120677,0.05112384,1.014157,31.11841,12.48136,-29.70894,998.2473
1.952120304,-0.1697009,0.2430426,-0.1597527,0.007032118,0.05159857,1.004978,31.11841,12.48136,-29.70894,998.2473
1.954597473,-0.4146348,0.0615045,-0.09859026,0.01385054,0.05017421,1.005416,31.11841,12.48136,-29.70894,998.2473
1.957075119,-0.7820356,-0.241059,-0.09859026,0.01239701,0.04919281,1.005419,31.11841,12.48136,-29.70894,998.2473
1.959552288,-1.149436,-0.4225971,0.08489711,0.01433142,0.05115057,1.005418,31.11841,12.48136,-29.70894,998.2473
1.962029457,-1.516837,-0.9066988,0.08489711,0.01481877,0.0462651,0.9976679,31.11841,12.48136,-29.70894,998.2473
1.964507580,-1.39437,-0.9672114,-0.03742781,0.01917666,0.04969622,0.9976617,31.11841,12.48136,-29.70894,998.2473
1.966984272,-1.455604,-0.9066988,0.1460596,0.01723303,0.05262059,1.002997,31.11841,12.48136,-29.70894,998.2473
1.969461441,-1.39437,-0.9672114,0.08489711,0.01530129,0.04724263,0.9981529,30.37733,12.47339,-29.70617,998.2473
1.971938610,-1.02697,-0.6646479,0.02373465,0.01724279,0.04822773,0.9986301,30.37733,12.47339,-29.70617,998.2473
1.974416256,-0.965736,-0.3015717,0.02373465,0.02114488,0.04678943,0.9995667,30.37733,12.47339,-29.70617,998.2473
1.976893425,-0.965736,0.2430426,0.02373465,0.01385322,0.04675402,1.000572,30.37733,12.47339,-29.70617,998.2498
1.979370594,-0.965736,0.4245807,0.207222,0.01871707,0.04726845,1.001513,30.37733,12.47339,-29.70617,998.2498
1.981848240,-1.02697,0.5456061,-0.03742781,0.021599,0.04872441,0.9932992,30.37733,12.47339,-29.70617,998.2498
1.984325409,-1.088203,0.6666315,0.08489711,0.01772148,0.04871365,0.9971819,30.37733,12.47339,-29.70617,998.2498
1.986802578,-1.088203,0.4850934,0.2683845,0.02212567,0.04240042,0.9947119,30.37733,12.47339,-29.70617,998.2498
1.989280701,-1.333137,0.0615045,0.4518718,0.01478048,0.04428225,0.9831775,30.37733,12.47339,-29.70617,998.2498
1.991757393,-1.333137,-0.3015717,0.6965217,0.01382309,0.04184376,0.983653,30.37733,12.47339,-29.70617,998.2498
1.994234562,-1.149436,-0.4225971,0.6353592,0.01236519,0.04134811,0.9831757,30.37733,12.47339,-29.70617,998.2498
1.996711731,-0.9045025,-0.9672114,0.6965217,0.01091333,0.04330115,0.9885031,30.37733,12.47339,-29.70617,998.2498
1.999189377,-0.9045025,-1.269775,0.8188466,0.006485655,0.05057534,0.9856687,30.37733,12.47339,-29.70617,998.2498
2.001666546,-0.4758682,-1.14875,0.7576842,0.0070042,0.04864539,0.9919308,30.37733,12.47339,-29.70617,998.2498
2.004143715,-0.3534013,-1.209262,0.8800091,0.008989353,0.04477295,0.9972094,30.37733,12.47339,-29.70617,998.2498
2.006620884,-0.1084674,-1.330288,0.7576842,0.009011131,0.03941092,0.9947684,30.37733,12.47339,-29.70617,998.2498
2.011575699,0.1364664,-1.088237,0.5741968,0.005621027,0.03891458,0.9981632,30.37733,12.47339,-29.70617,998.2498
2.011575699,0.1364664,-1.088237,0.5741968,0.005621027,0.03891458,0.9981632,30.37733,12.47339,-29.70617,998.2498
2.014052868,0.1976999,-1.027724,0.5130343,0.009474596,0.04526356,0.997692,30.37733,12.47339,-29.70617,998.2498
2.016530514,0.0139995,-1.14875,0.6353592,0.007537432,0.04232609,0.9952741,30.37733,12.47339,-29.70617,998.2498
2.019007683,-0.04723396,-1.088237,0.4518718,0.003690997,0.03793769,1.001065,30.74787,12.47738,-29.70756,998.2465
2.021484852,-0.04723396,-0.9672114,0.4518718,0.002204182,0.04084349,0.9977092,30.74787,12.47738,-29.70756,998.2465
2.023962498,-0.2309344,-0.9066988,0.3295469,-0.0002514601,0.04423586,0.9962919,30.74787,12.47738,-29.70756,998.2465
2.026439667,-0.4758682,-0.6646479,0.3907094,0.005126036,0.04428346,1.004468,30.74787,12.47738,-29.70756,998.2465
2.028916836,-0.5983351,-0.3620844,0.08489711,0.0002681699,0.04181781,1.002069,30.74787,12.47738,-29.70756,998.2465
2.033872128,-0.3534013,0.5456061,-0.09859026,0.004134788,0.04377627,0.9981962,30.74787,12.47738,-29.70756,998.2465
2.033872128,-0.3534013,0.5456061,-0.09859026,0.004134788,0.04377627,0.9981962,30.74787,12.47738,-29.70756,998.2465
2.036348820,-0.2309344,0.9086823,-0.2209152,0.002204159,0.03937686,0.9952882,30.74787,12.47738,-29.70756,998.2465
2.038825989,-0.1697009,1.211246,-0.3432401,0.0002610572,0.04132386,0.9991702,30.74787,12.47738,-29.70756,998.2465
2.041303635,0.1364664,1.574322,-0.3432401,0.004643472,0.04037266,0.9991413,30.74787,12.47738,-29.70756,998.2465
2.046257973,0.5651007,2.058424,-0.7102148,0.002657765,0.04375583,0.9928948,30.74787,12.47738,-29.70756,998.2465
2.046257973,0.5651007,2.058424,-0.7102148,0.002657765,0.04375583,0.9928948,30.74787,12.47738,-29.70756,998.2465
2.048736095,0.6263342,2.118936,-0.7713773,-0.0002662162,0.04422532,0.9919479,30.74787,12.47738,-29.70756,998.2465
2.051212788,0.5038673,2.179449,-0.8325397,0.002660512,0.04473554,0.9953132,30.74787,12.47738,-29.70756,998.2465
2.053690434,0.7488011,1.75586,-0.8325397,-0.002197909,0.04178062,0.9919459,30.74787,12.47738,-29.70756,998.2465
2.058645248,0.7488011,1.029708,-0.6490523,-0.001725204,0.04421777,0.9919559,30.74787,12.47738,-29.70756,998.2487
2.058645248,0.7488011,1.029708,-0.6490523,-0.001725204,0.04421777,0.9919559,30.74787,12.47738,-29.70756,998.2487
2.061122417,0.993735,0.7271442,-0.7102148,-0.0007574414,0.04568591,0.9929234,30.74787,12.47738,-29.70756,998.2487
2.063600063,0.6875677,0.4245807,-0.6490523,0.003609177,0.04814553,0.9938775,30.74787,12.47738,-29.70756,998.2487
2.066077232,0.8100346,0.1220172,-0.7102148,0.007517779,0.04377866,0.991903,30.74787,12.47738,-29.70756,998.2487
2.071032047,0.7488011,-0.3620844,-0.6490523,0.01238983,0.04429896,0.9952577,30.74716,12.47016,-30.08757,998.2487
2.071032047,0.7488011,-0.3620844,-0.6490523,0.01238983,0.04429896,0.9952577,30.74716,12.47016,-30.08757,998.2487
2.073509216,0.6875677,-0.4225971,-0.5878899,0.01675263,0.04773359,0.9966995,30.74716,12.47016,-30.08757,998.2487
2.075986385,0.7488011,-0.4831098,-0.465565,0.008985011,0.04672533,0.9991502,30.74716,12.47016,-30.08757,998.2487
2.080941200,0.5651007,-1.027724,-0.1597527,0.0163296,0.04142098,1.004875,30.74716,12.47016,-30.08757,998.2487
2.080941200,0.5651007,-1.027724,-0.1597527,0.0163296,0.04142098,1.004875,30.74716,12.47016,-30.08757,998.2487
2.083418369,0.4426338,-0.7856733,-0.2820776,0.008486741,0.05209188,1.00449,30.74716,12.47016,-30.08757,998.2487
2.095804691,-0.2309344,0.5456061,-0.4044026,0.01679145,0.04873908,1.009737,30.74716,12.47016,-30.08757,998.2487
2.095804691,-0.2309344,0.5456061,-0.4044026,0.01679145,0.04873908,1.009737,30.74716,12.47016,-30.08757,998.2487
2.100759506,-0.7208021,0.5456061,-0.2820776,0.01779076,0.04045234,1.003897,30.74716,12.47016,-30.08757,998.2511
2.100759506,-0.7208021,0.5456061,-0.2820776,0.01779076,0.04045234,1.003897,30.74716,12.47016,-30.08757,998.2511
2.103236675,-0.965736,0.6666315,-0.2820776,0.01290292,0.04334285,1.001525,30.74716,12.47016,-30.08757,998.2511
2.105714321,-1.088203,0.3035553,-0.465565,0.01435646,0.04432426,1.001522,30.74716,12.47016,-30.08757,998.2511
2.108191490,-1.149436,0.0615045,-0.4044026,0.01143349,0.03990574,0.992827,30.74716,12.47016,-30.08757,998.2511
2.113146305,-1.02697,0.0009917939,-0.4044026,0.0089991,0.03891345,0.9904219,30.74716,12.47016,-30.08757,998.2511
2.113146305,-1.02697,0.0009917939,-0.4044026,0.0089991,0.03891345,0.9904219,30.74716,12.47016,-30.08757,998.2511
2.115623474,-0.9045025,-0.05952091,-0.4044026,0.01286736,0.04087308,0.987032,30.74716,12.47016,-30.08757,998.2511
2.118100643,-0.4146348,0.0009917939,-0.4044026,0.01094278,0.03892235,0.9899285,30.74716,12.47016,-30.08757,998.2511
2.120577812,-0.1084674,-0.3015717,-0.5267274,0.008970208,0.04378152,0.9899643,30.01255,12.10271,-29.6983,998.2511
2.125532627,0.1976999,-0.3015717,-0.5878899,0.006512905,0.04570609,0.9856436,30.01255,12.10271,-29.6983,998.2511
2.125532627,0.1976999,-0.3015717,-0.5878899,0.006512905,0.04570609,0.9856436,30.01255,12.10271,-29.6983,998.2511
2.130487442,0.8100346,-0.3015717,-0.8325397,0.004611811,0.0427944,0.9938445,30.01255,12.10271,-29.6983,998.2511
2.130487442,0.8100346,-0.3015717,-0.8325397,0.004611811,0.0427944,0.9938445,30.01255,12.10271,-29.6983,998.2511
2.132964611,0.8712681,-0.3620844,-0.7713773,0.006599689,0.03843503,0.9991207,30.01255,12.10271,-29.6983,998.2511
2.137918949,1.116202,-0.05952091,-0.9548646,0.01096582,0.04480528,1.00637,30.01255,12.10271,-29.6983,998.2516
2.137918949,1.116202,-0.05952091,-0.9548646,0.01096582,0.04480528,1.00637,30.01255,12.10271,-29.6983,998.2516
2.140396595,1.177435,0.0615045,-0.9548646,0.01582586,0.04629474,1.007799,30.01255,12.10271,-29.6983,998.2516
2.142873764,0.9325016,0.1220172,-1.016027,0.01291659,0.0438415,1.006354,30.01255,12.10271,-29.6983,998.2516
2.147828579,0.3201669,-0.1805463,-1.07719,0.01487228,0.04288123,1.007786,30.01255,12.10271,-29.6983,998.2516
2.147828579,0.3201669,-0.1805463,-1.07719,0.01487228,0.04288123,1.007786,30.01255,12.10271,-29.6983,998.2516
2.150305748,-0.1084674,-0.4225971,-1.07719,0.01341546,0.04189749,1.006824,30.01255,12.10271,-29.6983,998.2516
2.152782917,-0.3534013,-0.3620844,-1.07719,0.0182564,0.04532878,1.00585,30.01255,12.10271,-29.6983,998.2516
2.155260563,-0.4758682,-0.241059,-0.7102148,0.02163671,0.04875136,1.004401,30.01255,12.10271,-29.6983,998.2516
2.160214901,-0.965736,-0.7251607,-0.5878899,0.02360431,0.0409554,0.9980752,30.01255,12.10271,-29.6983,998.2516
2.160214901,-0.965736,-0.7251607,-0.5878899,0.02360431,0.0409554,0.9980752,30.01255,12.10271,-29.6983,998.2516
2.162692070,-1.149436,-0.7251607,-0.5267274,0.02504908,0.03997504,0.9922701,30.01255,12.10271,-29.6983,998.2516
2.165169716,-1.088203,-0.7251607,-0.5267274,0.02456986,0.04046648,0.9951714,30.01255,12.10271,-29.6983,998.2516
2.170124054,-0.9045025,-0.6041352,-0.09859026,0.01820008,0.04333304,0.9860501,30.38308,12.1067,-29.69969,998.2516
2.170124054,-0.9045025,-0.6041352,-0.09859026,0.01820008,0.04333304,0.9860501,30.38308,12.1067,-29.69969,998.2516
2.172601700,-0.7208021,-0.3620844,0.02373465,0.02018359,0.03945944,0.990846,30.38308,12.1067,-29.69969,998.2516
2.175078869,-0.5983351,0.0009917939,-0.1597527,0.01872352,0.03993998,0.9913392,30.38308,12.1067,-29.69969,998.2516
2.177556038,-0.4758682,0.1220172,-0.03742781,0.01970657,0.04044131,0.9951978,30.38308,12.1067,-29.69969,998.2516
2.182510853,-0.1084674,0.4850934,0.08489711,0.01876395,0.03948001,1.002438,30.38308,12.1067,-29.69969,998.2516
2.182510853,-0.1084674,0.4850934,0.08489711,0.01876395,0.03948001,1.002438,30.38308,12.1067,-29.69969,998.2516
2.184988022,-0.1084674,0.6061188,0.02373465,0.01435754,0.04383616,1.001037,30.38308,12.1067,-29.69969,998.2516
2.187465191,-0.1697009,0.6666315,0.02373465,0.0109625,0.04186967,1.000562,30.38308,12.1067,-29.69969,998.2516
2.189942837,-0.7208021,0.6061188,-0.03742781,0.01239532,0.04625837,1.000095,30.38308,12.1067,-29.69969,998.2516
2.194897175,-0.9045025,0.6666315,-0.09859026,0.008052605,0.03452727,0.9908871,30.38308,12.1067,-29.69969,998.2516
2.194897175,-0.9045025,0.6666315,-0.09859026,0.008052605,0.03452727,0.9908871,30.38308,12.1067,-29.69969,998.2516
2.197374821,-0.7208021,0.5456061,-0.1597527,0.005130819,0.03548719,0.9913908,30.38308,12.1067,-29.69969,998.2516
2.199851990,-0.5983351,0.4245807,-0.09859026,0.005606847,0.04085993,0.9972078,30.38308,12.1067,-29.69969,998.2516
2.202329159,-0.4758682,0.4245807,-0.09859026,0.004641256,0.03841559,0.9952699,30.38308,12.1067,-29.69969,998.2516
2.207283974,-0.1084674,-0.3015717,-0.1597527,0.00411673,0.04229675,0.9904659,30.38308,12.1067,-29.69969,998.2516
2.209761143,0.07523298,-0.6646479,-0.2820776,0.006584911,0.03695785,0.9923557,30.38308,12.1067,-29.69969,998.2516
2.212238312,0.1976999,-0.5436226,-0.2820776,0.004627585,0.03791695,0.9904407,30.38308,12.1067,-29.69969,998.2516
2.214715958,0.3201669,-0.6041352,-0.2820776,0.007565168,0.03354622,0.9889541,30.38308,12.1067,-29.69969,998.2516
2.217193127,0.6875677,-0.846186,-0.3432401,0.007566322,0.03745801,0.9957316,30.38308,12.1067,-29.69969,998.2516
2.219670296,1.054968,-0.846186,-0.3432401,0.005104145,0.04231233,0.9948047,30.3758,12.45775,-30.52954,998.2521
2.222147942,1.299902,-0.846186,-0.5267274,0.007054958,0.04428182,0.9996309,30.3758,12.45775,-30.52954,998.2521
2.224625111,1.483603,-0.6646479,-0.465565,0.008540688,0.04186412,1.003472,30.3758,12.45775,-30.52954,998.2521
2.227102280,1.667303,-0.6041352,-0.465565,0.01000025,0.04382757,1.006853,30.3758,12.45775,-30.52954,998.2521
2.229579449,1.544836,-0.4225971,-0.5267274,0.008518379,0.04820351,1.007366,30.3758,12.45775,-30.52954,998.2521
2.232057095,1.361136,-0.241059,-0.5267274,0.01047245,0.04870871,1.010737,30.3758,12.45775,-30.52954,998.2521
2.234534264,1.116202,-0.1200336,-0.6490523,0.01242756,0.04579254,1.00878,30.3758,12.45775,-30.52954,998.2521
2.237011433,0.8712681,-0.1200336,-0.5878899,0.01629589,0.05215207,1.012653,30.3758,12.45775,-30.52954,998.2521
2.239489079,0.3814003,-0.3015717,-0.5267274,0.01438985,0.04777022,1.016985,30.3758,12.45775,-30.52954,998.2521
2.241966248,-0.04723396,-0.241059,-0.465565,0.01388989,0.05020233,1.017,30.3758,12.45775,-30.52954,998.2521
2.244443417,-0.2921678,0.1220172,-0.5878899,0.0192624,0.04584652,1.016466,30.3758,12.45775,-30.52954,998.2521
2.246920586,-0.4758682,0.2430426,-0.4044026,0.01972795,0.04485644,1.008735,30.3758,12.45775,-30.52954,998.2521
2.249398232,-0.5371017,0.1825299,-0.2820776,0.01630561,0.04482593,1.003445,30.3758,12.45775,-30.52954,998.2521
2.251875401,-0.7208021,0.1825299,-0.3432401,0.01629963,0.04677715,1.004903,30.3758,12.45775,-30.52954,998.2521
2.254352570,-0.7208021,0.0009917939,-0.2209152,0.01334071,0.04966602,0.9976935,30.3758,12.45775,-30.52954,998.2521
2.256830216,-0.8432691,-0.3620844,0.02373465,0.008485056,0.04915744,0.9991654,30.3758,12.45775,-30.52954,998.2521
2.259307385,-0.6595686,-0.3015717,0.02373465,0.007509581,0.0437728,0.9894896,30.3758,12.45775,-30.52954,998.2548
2.261784554,-0.4758682,-0.6041352,0.02373465,0.0138368,0.04527566,0.993324,30.3758,12.45775,-30.52954,998.2548
2.264262199,-0.5371017,-0.9066988,0.207222,0.009442936,0.04768529,0.9923952,30.3758,12.45775,-30.52954,998.2548
2.269216538,-0.3534013,-1.3908,0.207222,0.00894185,0.04767223,0.9880537,30.3758,12.45775,-30.52954,998.2548
2.269216538,-0.3534013,-1.3908,0.207222,0.00894185,0.04767223,0.9880537,30.3758,12.45775,-30.52954,998.2548
2.271693707,-0.1697009,-1.572338,0.207222,0.01191544,0.03892738,0.9899232,30.3758,12.45775,-30.52954,998.2548
2.274171352,-0.04723396,-1.572338,0.207222,0.0167924,0.03945119,0.994726,30.3758,12.45775,-30.52954,998.2548
2.291512489,-0.5983351,-0.6041352,-0.03742781,0.01434117,0.04529107,0.9986309,30.3758,12.45775,-30.52954,998.2548
2.291512489,-0.5983351,-0.6041352,-0.03742781,0.01434117,0.04529107,0.9986309,30.3758,12.45775,-30.52954,998.2548
2.293989658,-0.4146348,-0.3015717,0.02373465,0.01675755,0.04773711,0.9981475,30.3758,12.45775,-30.52954,998.2548
2.296466827,-0.3534013,-0.3620844,-0.09859026,0.01528545,0.04772018,0.9942941,30.3758,12.45775,-30.52954,998.2548
2.298944473,-0.3534013,-0.1805463,-0.2209152,0.01141225,0.0442904,0.993815,30.3758,12.45775,-30.52954,998.2514
2.303898811,-0.04723396,0.364068,-0.2209152,0.01532798,0.04188412,0.9971599,30.3758,12.45775,-30.52954,998.2514
2.303898811,-0.04723396,0.364068,-0.2209152,0.01532798,0.04188412,0.9971599,30.3758,12.45775,-30.52954,998.2514
2.306376457,0.07523298,0.2430426,-0.1597527,0.01530228,0.040888,0.9879841,30.3758,12.45775,-30.52954,998.2514
2.308853626,0.3201669,0.364068,-0.09859026,0.01624116,0.04722423,0.988494,30.3758,12.45775,-30.52954,998.2514
2.311331749,0.1364664,0.5456061,-0.1597527,0.01481108,0.04381524,0.9913805,30.3758,12.45775,-30.52954,998.2514
2.316285610,0.5038673,1.029708,-0.1597527,0.01335329,0.05065276,1.003008,30.3758,12.45775,-30.52954,998.2514
2.316285610,0.5038673,1.029708,-0.1597527,0.01335329,0.05065276,1.003008,30.3758,12.45775,-30.52954,998.2514
2.318763256,0.4426338,1.150733,-0.2209152,0.01337126,0.04626575,1.001055,30.3758,12.45775,-30.52954,998.2514
2.321240902,0.2589334,1.392784,-0.2209152,0.01578545,0.04822135,0.9991206,30.38308,12.1067,-29.69969,998.2514
2.323718071,0.1976999,1.574322,-0.2209152,0.01579963,0.04627599,1.000076,30.38308,12.1067,-29.69969,998.2514
2.328672886,0.07523298,2.179449,-0.2820776,0.01433731,0.04333283,0.9942768,30.38308,12.1067,-29.69969,998.2514
2.328672886,0.07523298,2.179449,-0.2820776,0.01433731,0.04333283,0.9942768,30.38308,12.1067,-29.69969,998.2514
2.331150055,-0.1697009,2.360987,-0.2820776,0.01386793,0.0438313,1.000074,30.38308,12.1067,-29.69969,998.2514
2.333627224,-0.2309344,2.360987,-0.3432401,0.01044562,0.04526742,0.997204,30.38308,12.1067,-29.69969,998.2514
2.336104870,-0.1084674,2.482013,-0.1597527,0.01045485,0.04185192,0.9942904,30.38308,12.1067,-29.69969,998.2514
2.341059208,0.07523298,2.784576,-0.2820776,0.006556066,0.04475919,0.99674,30.38308,12.1067,-29.69969,998.2537
2.341059208,0.07523298,2.784576,-0.2820776,0.006556066,0.04475919,0.99674,30.38308,12.1067,-29.69969,998.2537
2.343536377,0.3814003,2.784576,-0.3432401,0.002637004,0.04422987,0.9875879,30.38308,12.1067,-29.69969,998.2537
2.346014023,0.2589334,2.663551,-0.3432401,0.00310151,0.04666115,0.9851844,30.38308,12.1067,-29.69969,998.2537
2.350968361,0.1976999,1.876886,-0.09859026,-0.002668928,0.04227792,0.9972605,30.38308,12.1067,-29.69969,998.2537
2.350968361,0.1976999,1.876886,-0.09859026,-0.002668928,0.04227792,0.9972605,30.38308,12.1067,-29.69969,998.2537
2.353446007,0.07523298,1.513809,-0.09859026,0.003131531,0.04423825,0.9899986,30.38308,12.1067,-29.69969,998.2537
2.355923176,0.2589334,1.211246,-0.2209152,0.002668156,0.04425213,0.9967587,30.38308,12.1067,-29.69969,998.2537
2.358400345,0.2589334,1.211246,-0.4044026,-0.006053559,0.04227436,1.003071,30.38308,12.1067,-29.69969,998.2537
2.363355160,0.5038673,1.392784,-0.465565,-0.005072724,0.04081862,1.003058,30.38308,12.1067,-29.69969,998.2537
2.363355160,0.5038673,1.392784,-0.465565,-0.005072724,0.04081862,1.003058,30.38308,12.1067,-29.69969,998.2537
2.365832329,0.5038673,1.211246,-0.8937021,-0.00168694,0.04473398,1.004025,30.38308,12.1067,-29.69969,998.2537
2.368309498,0.5038673,1.271759,-0.8937021,0.0007408739,0.04425495,1.002079,30.38308,12.1067,-29.69969,998.2537
2.370787144,0.6263342,1.029708,-0.9548646,-0.002659644,0.04179568,0.9991885,30.74059,12.82843,-30.53741,998.2537
2.375741482,0.4426338,0.6061188,-1.07719,-0.003150315,0.04374555,1.001132,30.74059,12.82843,-30.53741,998.2537
2.375741482,0.4426338,0.6061188,-1.07719,-0.003150315,0.04374555,1.001132,30.74059,12.82843,-30.53741,998.2537
2.378219128,0.3814003,0.1825299,-1.260677,-0.003184147,0.04714347,0.9968055,30.74059,12.82843,-30.53741,998.2537
2.380696297,0.1364664,-0.1805463,-1.383002,-0.0002574413,0.04618707,0.99775,30.74059,12.82843,-30.53741,998.252
2.385650635,0.2589334,-0.3620844,-1.749977,-0.001699525,0.04374725,0.9987108,30.74059,12.82843,-30.53741,998.252
2.385650635,0.2589334,-0.3620844,-1.749977,-0.001699525,0.04374725,0.9987108,30.74059,12.82843,-30.53741,998.252
2.388128281,0.3814003,-0.6041352,-1.872301,0.002654508,0.04522012,0.9943504,30.74059,12.82843,-30.53741,998.252
2.390605450,0.3814003,-0.6646479,-1.627652,0.005571907,0.04327932,0.9909456,30.74059,12.82843,-30.53741,998.252
2.393082619,0.3814003,-0.7856733,-1.566489,0.008505748,0.04428351,0.9972095,30.74059,12.82843,-30.53741,998.252
2.398037434,0.2589334,-0.846186,-1.566489,0.01724986,0.04578841,0.9966868,30.74059,12.82843,-30.53741,998.252
2.398037434,0.2589334,-0.846186,-1.566489,0.01724986,0.04578841,0.9966868,30.74059,12.82843,-30.53741,998.252
2.400514603,0.3814003,-0.7251607,-1.505327,0.01728261,0.04287858,1.001498,30.74059,12.82843,-30.53741,998.252
2.402991772,0.5651007,-0.4831098,-1.566489,0.01724446,0.04969553,1.001534,30.74059,12.82843,-30.53741,998.252
2.405469418,0.8100346,-0.1805463,-1.505327,0.02211373,0.04776948,1.000049,30.74059,12.82843,-30.53741,998.252
2.410423756,0.8100346,0.3035553,-1.199515,0.02261537,0.04827182,1.005358,30.74059,12.82843,-30.53741,998.252
2.410423756,0.8100346,0.3035553,-1.199515,0.02261537,0.04827182,1.005358,30.74059,12.82843,-30.53741,998.252
2.412901402,0.7488011,0.1825299,-1.260677,0.02210775,0.0497207,1.001507,30.74059,12.82843,-30.53741,998.252
2.415378571,0.5038673,0.1825299,-0.9548646,0.02357817,0.04680318,1.000036,30.74059,12.82843,-30.53741,998.252
2.417855740,0.5651007,-0.3015717,-0.8325397,0.02453228,0.04923932,0.9985954,30.74059,12.82843,-30.53741,998.252
2.422810555,0.2589334,-0.5436226,-0.3432401,0.02698904,0.04682549,1.001948,30.74716,12.47016,-30.08757,998.2543
2.422810555,0.2589334,-0.5436226,-0.3432401,0.02698904,0.04682549,1.001948,30.74716,12.47016,-30.08757,998.2543
2.425287724,-0.04723396,-0.7251607,-0.2820776,0.02453065,0.04923815,0.9981127,30.74716,12.47016,-30.08757,998.2543
2.427764893,-0.2921678,-0.7251607,0.207222,0.02599949,0.05071937,1.003422,30.74716,12.47016,-30.08757,998.2543
2.430242539,-0.4758682,-0.6646479,0.1460596,0.02455032,0.04925222,1.003905,30.74716,12.47016,-30.08757,998.2543
2.435196877,-0.4146348,-0.3620844,0.3295469,0.02454374,0.04778089,0.9995531,30.74716,12.47016,-30.08757,998.2543
2.435196877,-0.4146348,-0.3620844,0.3295469,0.02454374,0.04778089,0.9995531,30.74716,12.47016,-30.08757,998.2543
2.437674523,-0.2921678,-0.3015717,0.4518718,0.02356944,0.04777469,0.9990757,30.74716,12.47016,-30.08757,998.2543
2.440151692,-0.2309344,-0.05952091,0.3295469,0.0206771,0.0443558,1.001005,30.74716,12.47016,-30.08757,998.2543
2.442628861,-0.3534013,-0.1805463,0.4518718,0.01824053,0.04433971,0.99957,30.74716,12.47016,-30.08757,998.2543
2.447583675,-0.2309344,-0.05952091,0.5130343,0.01821271,0.04725305,0.9962064,30.74716,12.47016,-30.08757,998.2543
2.447583675,-0.2309344,-0.05952091,0.5130343,0.01821271,0.04725305,0.9962064,30.74716,12.47016,-30.08757,998.2543
2.450060845,-0.2921678,-0.05952091,0.4518718,0.01432694,0.04430316,0.9928337,30.74716,12.47016,-30.08757,998.2543
2.452538967,-0.2921678,-0.3620844,0.4518718,0.01969999,0.03896999,0.9908462,30.74716,12.47016,-30.08757,998.2543
2.455015659,-0.2921678,-0.6041352,0.5130343,0.01433623,0.04382093,0.9947619,30.74716,12.47016,-30.08757,998.2543
2.459969998,-0.1697009,-0.5436226,0.207222,0.01091065,0.04672134,0.9933475,30.74716,12.47016,-30.08757,998.2526
2.459969998,-0.1697009,-0.5436226,0.207222,0.01091065,0.04672134,0.9933475,30.74716,12.47016,-30.08757,998.2526
2.462447643,-0.1084674,-0.241059,0.08489711,0.00997455,0.04283145,0.9976768,30.74716,12.47016,-30.08757,998.2526
2.464924812,0.0139995,0.1220172,0.1460596,0.00755161,0.04038073,0.9962294,30.74716,12.47016,-30.08757,998.2526
2.469879151,0.5651007,0.7876569,-0.2820776,0.008972979,0.04622786,0.9948036,30.74716,12.47016,-30.08757,998.2526
2.469879151,0.5651007,0.7876569,-0.2820776,0.008972979,0.04622786,0.9948036,30.74716,12.47016,-30.08757,998.2526
2.482265949,0.4426338,0.7876569,-0.4044026,0.004590588,0.0486457,0.9972534,30.72991,13.57024,-30.10701,998.2526
2.484743118,0.3201669,0.6666315,-0.5267274,0.01091996,0.04770573,0.9976966,30.72991,13.57024,-30.10701,998.2526
2.487220764,0.3814003,0.6061188,-0.465565,0.009480555,0.04184572,0.993813,30.72991,13.57024,-30.10701,998.2526
2.489697933,0.3814003,0.4850934,-0.4044026,0.01094776,0.04332576,0.9986394,30.72991,13.57024,-30.10701,998.2526
2.492175102,0.3201669,0.3035553,-0.2209152,0.01045873,0.04527679,1.001065,30.72991,13.57024,-30.10701,998.2526
2.494652271,0.07523298,0.1825299,-0.2209152,0.01193684,0.04480914,1.005882,30.72991,13.57024,-30.10701,998.2526
2.497129917,-0.1084674,0.0615045,-0.2209152,0.01386574,0.04334085,0.9986235,30.72991,13.57024,-30.10701,998.2526
2.499607086,-0.2309344,-0.1200336,-0.09859026,0.01385269,0.04773138,1.002025,30.72991,13.57024,-30.10701,998.2531
2.502084255,-0.1697009,0.1220172,-0.03742781,0.01333856,0.05210884,1.001085,30.72991,13.57024,-30.10701,998.2531
2.504561901,-0.2921678,0.364068,-0.03742781,0.01778208,0.04435711,1.007778,30.72991,13.57024,-30.10701,998.2531
2.507039070,-0.4758682,0.6061188,-0.1597527,0.01338927,0.04481201,1.003943,30.72991,13.57024,-30.10701,998.2531
2.509516239,-0.3534013,0.9691951,-0.2209152,0.01239539,0.05065827,1.007357,30.72991,13.57024,-30.10701,998.2531
2.511993408,-0.3534013,1.029708,0.1460596,0.01386031,0.04578134,1.001049,30.72991,13.57024,-30.10701,998.2531
2.514471054,-0.4758682,1.029708,0.207222,0.008527017,0.04136547,0.9986426,30.72991,13.57024,-30.10701,998.2531
2.516948223,-0.6595686,0.9691951,0.02373465,0.009986582,0.04332893,1.002023,30.72991,13.57024,-30.10701,998.2531
2.519425392,-0.4758682,0.7271442,0.02373465,0.007055489,0.04330445,0.9981778,30.72991,13.57024,-30.10701,998.2531
2.521903038,-0.3534013,0.5456061,0.1460596,0.005084538,0.04669817,0.9962754,30.37005,12.82445,-30.53602,998.2531
2.524380207,-0.2921678,0.1825299,-0.03742781,0.003638621,0.04376673,0.9953029,30.37005,12.82445,-30.53602,998.2531
2.526857376,-0.4146348,-0.05952091,-0.03742781,0.007579416,0.03600076,0.9971721,30.37005,12.82445,-30.53602,998.2531
2.529335022,-0.2309344,-0.05952091,-0.09859026,0.007582209,0.03991373,1.004432,30.37005,12.82445,-30.53602,998.2531
2.531812191,-0.2309344,-0.3620844,-0.09859026,0.001217943,0.04620634,1.002569,30.37005,12.82445,-30.53602,998.2531
2.534289360,-0.1697009,-0.4225971,-0.3432401,0.007580569,0.03991256,1.00395,30.37005,12.82445,-30.53602,998.2531
2.536766529,0.0139995,-0.4831098,-0.4044026,0.008038539,0.04380578,1.002037,30.37005,12.82445,-30.53602,998.2531
2.539244175,0.1976999,0.0009917939,-0.5267274,0.00707953,0.04283276,1.00445,30.37005,12.82445,-30.53602,998.2515
2.541721344,0.1364664,0.364068,-0.6490523,0.008530919,0.04625699,1.007838,30.37005,12.82445,-30.53602,998.2515
2.544199467,0.0139995,0.5456061,-0.8325397,0.01530953,0.05018176,1.005408,30.37005,12.82445,-30.53602,998.2515
2.546676636,-0.1697009,0.6061188,-0.7713773,0.01289973,0.04920704,1.010243,30.37005,12.82445,-30.53602,998.2515
2.549153805,-0.5371017,0.7876569,-0.7102148,0.01292862,0.04433897,1.010701,30.37005,12.82445,-30.53602,998.2515
2.551631451,-0.5983351,1.09022,-0.5878899,0.01826513,0.04435728,1.00681,30.37005,12.82445,-30.53602,998.2515
2.554108620,-0.5983351,0.9691951,-0.5878899,0.01678868,0.04629274,1.004897,30.37005,12.82445,-30.53602,998.2515
2.556585789,-1.088203,1.029708,-0.6490523,0.01487496,0.03946104,1.002942,30.37005,12.82445,-30.53602,998.2515
2.559062958,-1.271903,0.9691951,-0.465565,0.01628478,0.04090007,0.9908748,30.37005,12.82445,-30.53602,998.2515
2.561540604,-1.088203,0.7876569,-0.465565,0.02112676,0.04091001,0.9845735,30.37005,12.82445,-30.53602,998.2515
2.564017773,-0.7820356,0.6061188,-0.2820776,0.01920054,0.0389581,0.9869875,30.37005,12.82445,-30.53602,998.2515
2.566494942,-0.7208021,0.4850934,-0.1597527,0.01336787,0.03893024,0.9879846,30.37005,12.82445,-30.53602,998.2515
2.568972588,-0.4758682,0.1825299,-0.09859026,0.01191922,0.03648572,0.9870147,30.37005,12.82445,-30.53602,998.2515
2.571449757,-0.1697009,0.0009917939,0.2683845,0.01236904,0.04330636,0.9875298,30.37005,12.82445,-30.53602,998.2515
2.573926926,0.1976999,-0.3620844,0.3295469,0.007498704,0.04718713,0.9919206,30.74787,12.47738,-29.70756,998.2515
2.576404572,0.2589334,-0.6646479,0.2683845,0.005567011,0.04474244,0.9919186,30.74787,12.47738,-29.70756,998.2515
2.578881741,0.1976999,-0.9672114,0.207222,0.003609154,0.0466789,0.9914566,30.74787,12.47738,-29.70756,998.2515
2.581358910,0.3814003,-1.511826,0.2683845,0.006054403,0.04279023,0.9890098,30.74787,12.47738,-29.70756,998.2537
2.583836079,0.3201669,-1.753877,0.3295469,0.009485496,0.04331586,0.997682,30.74787,12.47738,-29.70756,998.2537
2.586313725,0.1976999,-2.177466,0.3907094,0.006108441,0.038429,0.9976754,30.74787,12.47738,-29.70756,998.2537
2.588790894,-0.04723396,-2.601054,0.5741968,0.008027063,0.04379758,0.9986578,30.74787,12.47738,-29.70756,998.2537
2.591268063,-0.1697009,-2.601054,0.3295469,0.00704676,0.04427596,0.9972175,30.74787,12.47738,-29.70756,998.2537
2.593745709,-0.4758682,-2.480029,0.1460596,0.008023806,0.04526187,1.000113,30.74787,12.47738,-29.70756,998.2537
2.596222878,-0.3534013,-2.359004,-0.09859026,0.009482794,0.04526942,1.000105,30.74787,12.47738,-29.70756,998.2537
2.598700047,-0.2921678,-2.298491,-0.03742781,0.009014455,0.04234653,1.000576,30.74787,12.47738,-29.70756,998.2537
2.601177216,-0.2309344,-1.874902,-0.09859026,0.009508474,0.0447989,1.00686,30.74787,12.47738,-29.70756,998.2537
2.603654862,-0.04723396,-1.330288,-0.1597527,0.008041864,0.04674139,1.007844,30.74787,12.47738,-29.70756,998.2537
2.606132031,-0.04723396,-0.7251607,-0.2209152,0.007524429,0.04964988,1.003517,30.74787,12.47738,-29.70756,998.2537
2.608609200,0.1364664,-0.1200336,-0.4044026,0.009492654,0.04674308,1.005422,30.74787,12.47738,-29.70756,998.2537
2.611086846,0.2589334,0.4245807,-0.465565,0.009482308,0.04918005,1.0064,30.74787,12.47738,-29.70756,998.2537
2.613564015,-0.04723396,0.7271442,-0.5878899,0.013368,0.04773004,1.00251,30.74787,12.47738,-29.70756,998.2537
2.616041184,-0.2309344,0.6061188,-0.5878899,0.01536951,0.04093605,1.007774,30.74787,12.47738,-29.70756,998.2537
2.620995999,-0.6595686,0.6061188,-0.465565,0.01386955,0.04236584,0.9981357,30.74787,12.47738,-29.70756,998.2543
2.620995999,-0.6595686,0.6061188,-0.465565,0.01386955,0.04236584,0.9981357,30.74787,12.47738,-29.70756,998.2543
2.623473168,-0.8432691,0.364068,-0.5267274,0.01243405,0.04139733,1.003448,30.75291,12.10346,-30.08109,998.2543
2.625950337,-0.8432691,0.3035553,-0.3432401,0.01239479,0.04723573,1.001547,30.75291,12.10346,-30.08109,998.2543
2.628427982,-0.965736,0.4245807,-0.3432401,0.01044019,0.0477079,0.99963,30.75291,12.10346,-30.08109,998.2543
2.633382321,-0.6595686,0.3035553,-0.2209152,0.01191931,0.04235226,0.9966983,30.75291,12.10346,-30.08109,998.2543
2.633382321,-0.6595686,0.3035553,-0.2209152,0.01191931,0.04235226,0.9966983,30.75291,12.10346,-30.08109,998.2543
2.635859966,-0.4758682,0.5456061,-0.1597527,0.01292798,0.03798317,1.000049,30.75291,12.10346,-30.08109,998.2543
2.638337135,-0.4146348,0.8481696,-0.1597527,0.01335537,0.04381003,0.9923539,30.75291,12.10346,-30.08109,998.2543
2.640814305,-0.4758682,0.8481696,-0.2820776,0.01873116,0.03945657,0.9927847,30.75291,12.10346,-30.08109,998.2543
2.645769119,-0.4146348,0.8481696,-0.03742781,0.01771813,0.0443114,0.9889538,30.75291,12.10346,-30.08109,998.2543
2.645769119,-0.4146348,0.8481696,-0.03742781,0.01771813,0.0443114,0.9889538,30.75291,12.10346,-30.08109,998.2543
2.648246288,-0.2309344,1.150733,0.02373465,0.01676185,0.04285146,0.9913649,30.75291,12.10346,-30.08109,998.2543
2.650723457,-0.2309344,1.09022,0.08489711,0.01775139,0.03895758,0.9898914,30.75291,12.10346,-30.08109,998.2543
2.653201103,-0.1084674,0.9691951,0.207222,0.01823716,0.03847083,0.9889209,30.75291,12.10346,-30.08109,998.2543
2.658155441,0.1976999,1.271759,0.08489711,0.01824206,0.03700771,0.9879481,30.75291,12.10346,-30.08109,998.2543
2.658155441,0.1976999,1.271759,0.08489711,0.01824206,0.03700771,0.9879481,30.75291,12.10346,-30.08109,998.2543
2.660633087,0.1976999,1.211246,0.1460596,0.01724104,0.04089339,0.9860429,30.75291,12.10346,-30.08109,998.2526
2.663110256,0.3814003,1.574322,0.207222,0.01577988,0.04186203,0.9870211,30.75291,12.10346,-30.08109,998.2526
2.665587425,0.3814003,1.634835,0.207222,0.01627002,0.04088953,0.9865307,30.75291,12.10346,-30.08109,998.2526
2.725042820,-0.1084674,-0.7251607,-0.3432401,0.00458784,0.04766598,0.994835,30.73637,13.21077,-29.72051,998.2551
2.729997635,-0.2921678,-1.14875,-0.2209152,0.005097609,0.04377428,0.9952949,30.73637,13.21077,-29.72051,998.2551
2.729997635,-0.2921678,-1.14875,-0.2209152,0.005097609,0.04377428,0.9952949,30.73637,13.21077,-29.72051,998.2551
2.732474804,-0.2921678,-1.209262,-0.3432401,0.006543018,0.04914971,1.000142,30.73637,13.21077,-29.72051,998.2551
2.737429619,-0.2309344,-1.511826,-0.03742781,0.01046629,0.03892686,0.9928272,30.73637,13.21077,-29.72051,998.2551
2.737429619,-0.2309344,-1.511826,-0.03742781,0.01046629,0.03892686,0.9928272,30.73637,13.21077,-29.72051,998.2551
2.739906788,0.07523298,-1.269775,-0.2820776,0.01436029,0.04481586,1.003455,30.73637,13.21077,-29.72051,998.2551
2.742384911,0.07523298,-1.269775,-0.09859026,0.01339527,0.04432743,1.004906,30.73637,13.21077,-29.72051,998.2575
2.744862080,-0.2309344,-1.3908,-0.1597527,0.01092709,0.04966632,1.003016,30.73637,13.21077,-29.72051,998.2575
2.749816895,-0.2309344,-1.027724,-0.2209152,0.01237571,0.05064421,1.001565,30.73637,13.21077,-29.72051,998.2575
2.752294064,-0.3534013,-1.14875,-0.03742781,0.0124177,0.04431888,1.003463,30.73637,13.21077,-29.72051,998.2575
2.754771233,-0.3534013,-1.088237,-0.2209152,0.01096411,0.04040421,0.9986243,30.73637,13.21077,-29.72051,998.2575
2.757248402,-0.2921678,-0.6646479,-0.1597527,0.0138641,0.04333968,0.9981408,30.73637,13.21077,-29.72051,998.2575
2.759726048,-0.04723396,-0.5436226,-0.2209152,0.01629358,0.04432847,0.9990978,30.73637,13.21077,-29.72051,998.2575
2.762203217,0.07523298,-0.4225971,-0.2209152,0.01436242,0.04090641,0.9976429,30.73637,13.21077,-29.72051,998.2575
2.764680386,0.1364664,-0.05952091,-0.3432401,0.01436519,0.04335275,1.002482,30.73637,13.21077,-29.72051,998.2575
2.767158032,0.1364664,0.0009917939,-0.4044026,0.01434383,0.04040425,0.9913656,30.73637,13.21077,-29.72051,998.2575
2.769635201,0.07523298,0.0009917939,-0.3432401,0.02406279,0.04240463,0.992288,30.73637,13.21077,-29.72051,998.2575
2.772112370,0.1976999,0.0615045,-0.4044026,0.0177312,0.04138751,0.9879734,30.73637,13.21077,-29.72051,998.2575
2.774590016,0.2589334,0.0615045,-0.1597527,0.01431651,0.0408736,0.9841279,30.36583,13.20678,-29.71913,998.2575
2.777067185,0.2589334,0.0009917939,-0.03742781,0.01432039,0.04429848,0.990903,30.36583,13.20678,-29.71913,998.2575
2.779544354,0.2589334,0.0615045,0.02373465,0.01188493,0.04526091,0.991404,30.36583,13.20678,-29.71913,998.2575
2.782021523,0.5651007,0.1220172,0.08489711,0.01286957,0.04283015,0.9909034,30.36583,13.20678,-29.71913,998.254
2.784499169,0.6875677,0.4245807,-0.09859026,0.01242583,0.03992484,0.9986138,30.36583,13.20678,-29.71913,998.254
2.786976338,0.6263342,0.9086823,-0.4044026,0.01678755,0.04384757,1.000541,30.36583,13.20678,-29.71913,998.254
2.789453507,0.8712681,1.09022,-0.3432401,0.01290675,0.04383447,1.003458,30.36583,13.20678,-29.71913,998.254
2.791931153,1.177435,1.513809,-0.4044026,0.01488258,0.037511,1.001967,30.36583,13.20678,-29.71913,998.254
2.794408322,0.993735,1.937398,-0.5267274,0.01583944,0.04092685,1.002944,30.36583,13.20678,-29.71913,998.254
2.796885491,0.993735,2.239962,-0.2820776,0.00952263,0.04138691,1.005395,30.36583,13.20678,-29.71913,998.254
2.799363136,1.116202,2.4215,-0.4044026,0.008055467,0.04284013,1.00541,30.36583,13.20678,-29.71913,998.254
2.801840306,0.9325016,2.239962,-0.465565,0.007040338,0.05307106,1.009812,30.36583,13.20678,-29.71913,998.254
2.804317475,0.5651007,2.360987,-0.465565,0.008984016,0.05307996,1.009319,30.36583,13.20678,-29.71913,998.254
2.806794644,0.5038673,1.937398,-0.5267274,0.007019601,0.05501173,1.006926,30.36583,13.20678,-29.71913,998.254
2.809272289,0.1976999,1.75586,-0.465565,0.008034289,0.0516247,1.013661,30.36583,13.20678,-29.71913,998.254
2.811749459,-0.2309344,1.453297,-0.5267274,0.005640262,0.04577253,1.015092,30.36583,13.20678,-29.71913,998.254
2.814226628,-0.4758682,1.392784,-0.5878899,0.009970832,0.04967301,1.007848,30.36583,13.20678,-29.71913,998.254
2.816704273,-0.7820356,1.332271,-0.465565,0.006567012,0.04574476,1.001572,30.36583,13.20678,-29.71913,998.254
2.819181442,-0.965736,1.09022,-0.5267274,0.01188389,0.04868228,0.996731,30.36583,13.20678,-29.71913,998.254
2.821658611,-1.333137,0.6061188,-0.5267274,0.01191059,0.04332376,0.995738,30.36583,13.20678,-29.71913,998.2529
2.824135781,-1.271903,0.2430426,-0.5267274,0.0148329,0.04138648,0.9937813,30.7379,13.2264,-28.89714,998.2529
2.826613426,-1.21067,0.0009917939,-0.465565,0.01337006,0.03942068,0.9894352,30.7379,13.2264,-28.89714,998.2529
2.829090595,-0.965736,-0.3015717,-0.2820776,0.01578212,0.04528573,0.9933134,30.7379,13.2264,-28.89714,998.2529
2.831567764,-0.5983351,-0.5436226,-0.09859026,0.01482697,0.04627096,1.000081,30.7379,13.2264,-28.89714,998.2529
2.834045410,-0.4146348,-0.6041352,-0.03742781,0.0182198,0.04628037,0.996684,30.7379,13.2264,-28.89714,998.2529
2.836522579,-0.1697009,-0.3015717,0.02373465,0.01529635,0.04577249,0.9942841,30.7379,13.2264,-28.89714,998.2529
2.838999748,-0.3534013,-0.1805463,-0.03742781,0.01822797,0.04481959,0.9966764,30.7379,13.2264,-28.89714,998.2529
2.841477394,-0.4758682,-0.1200336,0.1460596,0.01728533,0.04239166,1.001496,30.7379,13.2264,-28.89714,998.2529
2.843954563,-0.7208021,0.0009917939,0.3907094,0.02114812,0.04385851,0.9956901,30.7379,13.2264,-28.89714,998.2529
2.846431732,-0.6595686,0.364068,0.4518718,0.02261854,0.040941,0.9942192,30.7379,13.2264,-28.89714,998.2529
2.848908901,-0.6595686,0.4245807,0.5130343,0.02312618,0.04095874,1.000491,30.7379,13.2264,-28.89714,998.2529
2.851386547,-0.4758682,0.8481696,0.7576842,0.01820994,0.0448067,0.991367,30.7379,13.2264,-28.89714,998.2529
2.853863716,-0.2309344,0.6666315,0.7576842,0.01287066,0.04234206,0.9904183,30.7379,13.2264,-28.89714,998.2529
2.856340885,-0.1697009,0.6666315,0.9411715,0.00703422,0.04622248,0.9967449,30.7379,13.2264,-28.89714,998.2529
2.858818531,0.07523298,0.9691951,1.063496,0.008034661,0.04038091,0.9952614,30.7379,13.2264,-28.89714,998.2529
2.861295700,0.0139995,0.8481696,0.8188466,0.002184043,0.04620669,1.000633,30.7379,13.2264,-28.89714,998.2495
2.866250038,0.1976999,0.5456061,0.6965217,-0.001727352,0.04666059,0.9953471,30.7379,13.2264,-28.89714,998.2495
2.866250038,0.1976999,0.5456061,0.6965217,-0.001727352,0.04666059,0.9953471,30.7379,13.2264,-28.89714,998.2495
2.868727684,0.3201669,0.0615045,0.5741968,0.001226626,0.04230157,0.9986873,30.7379,13.2264,-28.89714,998.2495
2.871204853,0.3201669,-0.05952091,0.3907094,-0.002660176,0.04277305,1.000642,30.7379,13.2264,-28.89714,998.2495
2.873682022,0.4426338,-0.3015717,0.207222,-0.008071436,0.05052327,0.9954017,30.7379,13.2264,-28.89714,998.2495
2.876159668,0.6263342,-0.3620844,0.08489711,-0.001704975,0.04472109,0.9987158,30.74141,12.83685,-30.09405,998.2495
2.878636837,0.6263342,-0.6041352,0.207222,-0.0007360585,0.05010105,1.006461,30.74141,12.83685,-30.09405,998.2495
2.881114006,0.5038673,-0.7251607,-0.1597527,-0.00172128,0.05057591,1.003573,30.74141,12.83685,-30.09405,998.2495
2.883591652,0.3814003,-0.3015717,-0.465565,0.005069873,0.05255415,1.001615,30.74141,12.83685,-30.09405,998.2495
2.886068821,0.2589334,-0.3015717,-0.6490523,0.006061075,0.05012808,1.003045,30.74141,12.83685,-30.09405,998.2495
2.888545990,0.5038673,-0.1805463,-0.7102148,0.005593821,0.04671709,1.00303,30.74141,12.83685,-30.09405,998.2495
2.891023159,0.4426338,0.0009917939,-0.8937021,0.00998769,0.04430747,1.003959,30.74141,12.83685,-30.09405,998.2495
2.893500805,0.5038673,0.4850934,-0.6490523,0.01580014,0.04383199,0.996202,30.74141,12.83685,-30.09405,998.2495
2.895977974,0.6875677,0.4850934,-0.6490523,0.01774709,0.04384323,0.9966741,30.74141,12.83685,-30.09405,998.2495
2.900932789,0.6263342,0.9086823,-0.6490523,0.02799114,0.04245172,1.003368,30.74141,12.83685,-30.09405,998.2518
2.900932789,0.6263342,0.9086823,-0.6490523,0.02799114,0.04245172,1.003368,30.74141,12.83685,-30.09405,998.2518
2.903409958,0.3814003,1.09022,-0.4044026,0.02651522,0.04340981,1.000003,30.74141,12.83685,-30.09405,998.2518
2.905887127,0.3201669,1.09022,-0.2820776,0.029419,0.04390363,0.9966105,30.74141,12.83685,-30.09405,998.2518
2.908364296,0.1364664,1.150733,-0.1597527,0.02895671,0.04342943,1.002885,30.74141,12.83685,-30.09405,998.2518
2.913319111,-0.2309344,0.7876569,0.3295469,0.02654739,0.03854408,1.001425,30.74141,12.83685,-30.09405,998.2518
2.913319111,-0.2309344,0.7876569,0.3295469,0.02654739,0.03854408,1.001425,30.74141,12.83685,-30.09405,998.2518
2.915796280,-0.4146348,0.6061188,0.4518718,0.0231066,0.04681121,1.004383,30.74141,12.83685,-30.09405,998.2518
2.918273926,-0.4146348,0.4850934,0.7576842,0.02262408,0.04583368,1.003898,30.74141,12.83685,-30.09405,998.2518
2.920751095,-0.3534013,0.5456061,0.6965217,0.01825305,0.04092654,0.9976217,30.74141,12.83685,-30.09405,998.2518
