Time (s),Gyroscope X (deg/s),Gyroscope Y (deg/s),Gyroscope Z (deg/s),Accelerometer X (g),Accelerometer Y (g),Accelerometer Z (g),Magnetometer X (uT),Magnetometer Y (uT),Magnetometer Z (uT),Barometer (hPa)
0.000000000,-0.4758682,0.0009917939,-0.1597527,0.006086301,-0.9904039,0.01062352,24.65399,26.53684,-3.894984,998.6368
0.012384892,-6.966616,-0.1200336,-0.09859026,0.006046791,-1.000698,-0.01790716,24.65399,26.53684,-3.894984,998.6384
0.032201290,6.443513,0.0615045,-0.4044026,0.005159573,-0.9889094,0.02656465,24.65399,26.53684,-3.894984,998.6384
0.052018166,-3.660008,0.0009917939,-0.2209152,0.005805657,-1.008204,-0.1009651,24.65399,26.53684,-3.894984,998.6396
0.071833611,-0.1084674,0.0615045,-0.2209152,-0.001581261,-0.9884074,0.0473593,24.65399,26.53684,-3.894984,998.6396
0.091650486,4.361576,0.1220172,-0.1597527,-0.004350914,-1.004794,-0.07868875,24.65399,26.53684,-3.894984,998.6368
0.111466885,-5.80318,0.0615045,-0.03742781,-0.001721271,-0.9948627,-0.004319672,24.28779,26.15173,-4.64715,998.6368
0.131282330,5.708712,0.0009917939,-0.3432401,0.004138835,-0.9879711,0.01402542,24.28779,26.15173,-4.64715,998.6401
0.151099205,-2.80274,0.1825299,-0.1597527,0.004368561,-1.00624,-0.09129354,24.28779,26.15173,-4.64715,998.6401
0.170915604,-0.7820356,0.0615045,-0.2209152,0.006656294,-0.9874083,0.04007916,24.65328,26.52963,-4.275001,998.6357
0.190731525,4.484043,0.1825299,-0.09859026,-0.0003903306,-1.005213,-0.05892277,24.65328,26.52963,-4.275001,998.6357
0.210547924,-5.068378,0.0615045,-0.03742781,0.006958345,-0.9938929,-0.02463469,24.27795,26.83122,-4.279013,998.6312
0.230364323,3.994175,0.0009917939,-0.2820776,0.007568797,-0.9898906,0.01834089,24.27795,26.83122,-4.279013,998.6312
0.252657414,1.973471,0.2430426,-0.09859026,-0.003879296,-1.001869,-0.07819363,24.27795,26.83122,-4.279013,998.6285
0.272473812,-3.904943,0.0615045,-0.1597527,0.004095652,-0.9884908,0.0005079964,24.6492,26.84242,-3.900383,998.6285
0.292289734,4.60651,0.0615045,-0.1597527,0.000245869,-0.9972814,-0.001929472,24.6492,26.84242,-3.900383,998.6281
0.312106133,-2.374106,-0.05952091,-0.1597527,0.0005424463,-1.004259,-0.06905922,24.65399,26.53684,-3.894984,998.6281
0.331922531,-0.5371017,0.0615045,-0.1597527,0.0007716401,-0.9913844,0.01933578,24.65399,26.53684,-3.894984,998.6273
0.351738930,3.136906,0.1220172,-0.3432401,0.002520047,-1.001781,-0.05554233,24.65399,26.53684,-3.894984,998.6273
0.371554852,-3.660008,0.1220172,-0.09859026,0.003536534,-0.9949007,-0.03137863,24.64274,27.2019,-4.28688,998.6245
0.391371250,2.463338,0.0615045,-0.09859026,0.004158973,-0.9933342,0.01110169,24.64274,27.2019,-4.28688,998.6245
0.411188126,0.1976999,0.1825299,-0.1597527,0.002986679,-1.003259,-0.063758,24.64274,27.2019,-4.28688,998.6218
0.431004524,-2.251639,0.0615045,-0.2209152,0.001202733,-0.9938657,-0.0009518089,24.28345,26.53286,-3.893595,998.6218
0.450819969,3.504307,0.1220172,-0.1597527,0.001646341,-0.9997601,-0.02318771,24.28345,26.53286,-3.893595,998.619
0.470636845,-2.067938,0.1220172,-0.1597527,0.004504115,-1.005166,-0.04977843,24.65399,26.53684,-3.894984,998.619
0.490453243,0.3201669,0.2430426,-0.1597527,0.004635511,-0.9904056,0.01304484,24.65399,26.53684,-3.894984,998.6179
0.512746334,3.19814,0.1220172,-0.2820776,-0.00280653,-0.9959261,-0.03907203,24.6492,26.84242,-3.900383,998.6179
0.532562733,-2.129172,0.0615045,-0.03742781,0.0006255801,-1.000288,-0.03814787,24.6492,26.84242,-3.900383,998.6155
0.552378655,1.299902,0.1825299,-0.3432401,0.004148604,-0.9923639,0.009658702,24.6492,26.84242,-3.900383,998.6155
0.572195053,1.422369,0.1220172,-0.2209152,0.008362005,-1.002236,-0.05461128,25.02453,26.54083,-3.896372,998.6144
0.592011452,-2.067938,0.1220172,-0.2209152,0.003579695,-0.9958476,-0.02028213,25.02453,26.54083,-3.896372,998.6144
0.611827374,2.463338,0.0615045,-0.2209152,0.00408406,-0.9958322,-0.01497535,25.02453,26.54083,-3.896372,998.6134
0.631643772,-0.5983351,0.1220172,-0.03742781,0.00202007,-1.000816,-0.05794802,24.2722,27.19792,-4.285492,998.6134
0.651460171,-0.5371017,0.1220172,-0.09859026,0.002698808,-0.9987203,0.001911137,24.2722,27.19792,-4.285492,998.614
0.671276570,2.463338,0.1220172,-0.4044026,0.003052885,-0.9983234,-0.03622035,24.64274,27.2019,-4.28688,998.614
0.691092491,-1.945472,0.0615045,-0.1597527,0.004044642,-1.00026,-0.03382233,24.64274,27.2019,-4.28688,998.613
0.710908890,0.9325016,0.0615045,-0.2820776,0.002644838,-0.9899592,0.0005083964,24.64274,27.2019,-4.28688,998.613
0.730725765,1.116202,0.1220172,-0.1597527,0.003015705,-0.9993278,-0.04877494,25.01974,26.84641,-3.901772,998.6139
0.750542164,-1.884238,0.0615045,-0.2209152,-0.0002972917,-0.9968357,-0.01785259,25.01974,26.84641,-3.901772,998.6139
0.772835255,1.483603,0.1220172,-0.2820776,0.007031086,-0.9904188,0.002412739,25.01974,26.84641,-3.901772,998.6145
0.792651653,0.5038673,0.1825299,-0.03742781,0.002044663,-1.000798,-0.05070789,25.01974,26.84641,-3.901772,998.6145
0.812467575,-1.761771,0.0615045,-0.2820776,0.002640937,-0.9948506,-0.008687593,25.01974,26.84641,-3.901772,998.6151
0.832283974,2.279638,0.0615045,-0.2209152,0.0001650206,-0.9948949,-0.02170658,24.65903,26.16293,-4.268521,998.6151
0.852100373,-0.8432691,0.0615045,-0.03742781,0.0005617724,-0.9915344,-0.04244666,24.65903,26.16293,-4.268521,998.614
0.871916771,-0.1084674,0.0615045,-0.09859026,-0.0002917052,-0.9890097,-0.003332079,24.64345,27.20912,-3.906864,998.614
0.891732693,1.361136,0.0615045,-0.1597527,0.001589001,-0.9968678,-0.0352395,24.64345,27.20912,-3.906864,998.6147
0.911549092,-1.271903,0.0615045,-0.1597527,0.004017391,-0.995391,-0.03379717,24.64345,27.20912,-3.906864,998.6147
0.931365490,0.993735,0.1825299,-0.2820776,-0.0002885168,-0.9948739,-0.01205043,25.02382,26.53361,-4.276389,998.6156
0.951181889,0.1976999,0.1220172,-0.1597527,0.004010742,-1.001262,-0.04541157,25.02382,26.53361,-4.276389,998.6156
0.970997811,-0.9045025,0.1825299,0.02373465,0.005538107,-0.9972948,-0.01885225,25.01974,26.84641,-3.901772,998.6162
0.990814209,1.422369,0.0615045,-0.1597527,-0.0007934812,-0.9983119,-0.02316692,25.01974,26.84641,-3.901772,998.6162
1.010631084,-0.6595686,0.1220172,-0.1597527,0.0001458316,-0.9988196,-0.03379359,25.01974,26.84641,-3.901772,998.6169
1.030447483,-0.04723396,0.1220172,-0.3432401,0.001168832,-0.9948676,-0.01254105,24.29496,25.79947,-3.880635,998.6169
1.052740574,1.299902,0.0615045,-0.1597527,0.004553971,-0.997308,-0.02222568,24.29496,25.79947,-3.880635,998.6135
1.072556973,-0.7208021,0.1825299,-0.03742781,-0.001309323,-0.9983355,-0.03185242,25.02535,26.54925,-3.453018,998.6135
1.092373371,0.1976999,0.1825299,-0.1597527,-0.0002890477,-0.9938967,-0.01059737,25.02535,26.54925,-3.453018,998.6124
1.112189293,0.9325016,0.0615045,-0.2820776,0.003102581,-1.000732,-0.02561407,25.02535,26.54925,-3.453018,998.6124
1.132005692,-0.4758682,0.1220172,-0.2820776,0.00256884,-0.991969,-0.02508346,24.27795,26.83122,-4.279013,998.613
1.151822090,0.8100346,0.0009917939,-0.1597527,0.00457039,-0.9958297,-0.014978,24.27795,26.83122,-4.279013,998.613
1.171638489,0.2589334,0.1825299,-0.1597527,0.004068682,-1.000732,-0.02755007,24.28345,26.53286,-3.893595,998.614
1.191454411,-0.04723396,0.1825299,-0.1597527,0.003607546,-0.9972943,-0.01449757,24.28345,26.53286,-3.893595,998.614
1.211270809,0.9325016,0.1220172,-0.2820776,0.003062768,-0.9953831,-0.02848245,24.28345,26.53286,-3.893595,998.613
1.231087685,-0.4146348,0.1220172,-0.2209152,-0.0008409154,-0.9910128,-0.02505988,25.03028,26.17413,-3.889892,998.613
1.250904083,0.5651007,0.0009917939,-0.2209152,0.0002065417,-0.9958429,-0.01109276,25.03028,26.17413,-3.889892,998.6136
1.270719528,0.5651007,0.1825299,-0.2820776,0.00551513,-0.9987779,-0.02803063,24.28921,26.16617,-3.887115,998.6136
1.290536404,-0.3534013,0.0009917939,-0.1597527,0.005043557,-0.9987699,-0.0236839,24.28921,26.16617,-3.887115,998.6142
1.312829971,0.5038673,0.0615045,-0.2820776,0.003108122,-0.9958396,-0.01593541,24.28921,26.16617,-3.887115,998.6142
1.332645893,0.3814003,0.0615045,-0.1597527,0.005024436,-0.9982946,-0.02850814,24.64849,26.83521,-4.280401,998.6165
1.352462292,-0.2921678,0.1220172,-0.2209152,0.003081358,-0.994881,-0.02220515,24.64849,26.83521,-4.280401,998.6165
1.372278690,0.7488011,0.0009917939,-0.09859026,0.001618536,-0.9953802,-0.02413042,24.27725,26.82401,-4.65903,998.617
1.392095089,0.0139995,0.1220172,-0.3432401,-0.001316367,-0.9944296,-0.02748822,24.27725,26.82401,-4.65903,998.617
1.411911965,0.07523298,0.1220172,-0.1597527,0.002148535,-0.9987685,-0.01691055,24.27725,26.82401,-4.65903,998.618
1.431727409,0.6263342,0.0009917939,-0.1597527,0.003066579,-0.9963582,-0.02897016,25.01903,26.83919,-4.281789,998.618
1.451543808,-0.1697009,-0.05952091,-0.1597527,0.001591794,-0.992955,-0.02797924,25.01903,26.83919,-4.281789,998.6164
1.471360684,0.3201669,0.1220172,-0.2209152,0.005057759,-0.9992486,-0.02030769,24.28275,26.52564,-4.273612,998.6164
1.491177082,0.5651007,0.2430426,-0.1597527,0.004523904,-0.9978184,-0.0318817,24.28275,26.52564,-4.273612,998.6169
1.510993481,-0.04723396,0.1220172,0.02373465,0.001601032,-0.9963704,-0.03089291,24.28275,26.52564,-4.273612,998.6169
1.530809403,0.4426338,0.1220172,-0.1597527,0.001612001,-0.9939183,-0.0236402,23.91291,26.52888,-3.892207,998.6176
1.550625801,0.1976999,0.0615045,-0.09859026,0.001609761,-0.9973419,-0.02993259,23.91291,26.52888,-3.892207,998.6176
1.570442200,0.0139995,0.1825299,-0.2209152,0.003083551,-0.9943905,-0.02075461,23.91291,26.52888,-3.892207,998.6199
1.592735291,0.2589334,0.1220172,-0.1597527,-0.0003131563,-0.9978248,-0.0241324,24.28275,26.52564,-4.273612,998.6199
1.612551689,0.0139995,0.1220172,-0.1597527,-0.0008240337,-0.9949117,-0.02652804,24.28275,26.52564,-4.273612,998.6222
1.632368088,0.1364664,-0.05952091,-0.2209152,0.0001448365,-0.992465,-0.0236247,25.02056,26.85483,-3.458417,998.6222
1.652184963,0.2589334,0.1825299,-0.09859026,0.004050183,-0.9953675,-0.02414367,25.02056,26.85483,-3.458417,998.6188
1.672000408,-0.1084674,0.1220172,-0.03742781,0.003084614,-0.9963453,-0.02366073,25.02056,26.85483,-3.458417,998.6188
1.691817284,0.1976999,0.1220172,-0.3432401,0.00307593,-0.9924405,-0.0197792,25.00753,27.57258,-4.294749,998.6214
1.711633682,0.4426338,0.0009917939,-0.2820776,0.0001753666,-0.9973318,-0.02268451,25.00753,27.57258,-4.294749,998.6214
1.731450081,0.0139995,-0.05952091,-0.1597527,0.0001715333,-0.9978235,-0.02461773,24.28921,26.16617,-3.887115,998.622
1.751266480,0.3814003,0.2430426,-0.1597527,0.002090709,-0.9919656,-0.02266743,24.28921,26.16617,-3.887115,998.622
1.771082878,0.2589334,0.0009917939,-0.2209152,0.0035742,-0.9978071,-0.02511895,24.28921,26.16617,-3.887115,998.6226
1.790898800,0.1364664,0.1220172,-0.1597527,0.001611469,-0.9929409,-0.02218714,24.65399,26.53684,-3.894984,998.6226
1.810715199,0.3201669,-0.05952091,-0.1597527,0.005531549,-0.9972995,-0.02078295,24.65399,26.53684,-3.894984,998.6216
1.830531597,0.1976999,-0.05952091,-0.2820776,0.005010856,-0.9929268,-0.02365371,24.64836,26.90474,-3.838127,998.6216
1.850347996,0.2589334,0.1220172,-0.03742781,0.005035427,-0.9943758,-0.01883451,24.64836,26.90474,-3.838127,998.6239
1.872641564,0.1976999,0.0615045,-0.03742781,0.00211468,-0.9968372,-0.02365794,24.64836,26.90474,-3.838127,998.6239
1.892457962,0.2589334,0.0009917939,-0.1597527,0.001151791,-1.001235,-0.02801936,24.28345,26.53286,-3.893595,998.6205
1.912274361,0.0139995,0.1220172,-0.1597527,0.004049675,-0.9929236,-0.02026968,24.28345,26.53286,-3.893595,998.6205
1.932090759,0.2589334,0.0615045,-0.2820776,0.005988965,-0.9938956,-0.02366404,23.90249,27.20236,-3.840751,998.6231
1.951906681,0.1364664,0.0009917939,-0.2209152,0.002598262,-0.9978144,-0.026079,23.90249,27.20236,-3.840751,998.6231
1.971723080,0.1364664,0.1220172,-0.03742781,0.0001818798,-1.00026,-0.02559566,23.90249,27.20236,-3.840751,998.6181
1.991539478,0.4426338,0.0009917939,-0.2209152,-0.001283598,-0.9958728,-0.02025564,24.65411,26.53805,-3.831647,998.6181
2.011355877,0.1364664,0.0615045,-0.1597527,0.005990027,-0.9958503,-0.02657016,24.65411,26.53805,-3.831647,998.617
2.031172276,0.2589334,0.1220172,-0.1597527,0.000161719,-0.9963639,-0.02509286,24.64274,27.2019,-4.28688,998.617
2.050989151,0.3201669,-0.05952091,-0.3432401,0.005026121,-0.9953602,-0.02318361,24.64274,27.2019,-4.28688,998.6176
2.070804596,0.1976999,0.1825299,-0.1597527,0.003090595,-0.9982965,-0.02511882,24.64274,27.2019,-4.28688,998.6176
2.090621471,0.3201669,0.1825299,-0.2820776,0.003579695,-0.9958476,-0.02028213,24.2722,27.19792,-4.285492,998.6183
2.110437870,0.1364664,0.0009917939,-0.1597527,0.00209556,-0.996362,-0.02848218,24.2722,27.19792,-4.285492,998.6183
2.132731438,0.0139995,0.0009917939,-0.1597527,0.0001633354,-0.9978293,-0.02703111,24.64682,26.8891,-4.661499,998.6206
2.152547360,0.3201669,0.1220172,-0.1597527,0.004060575,-0.9948712,-0.02027975,24.64682,26.8891,-4.661499,998.6206
2.172363758,0.1364664,0.0009917939,-0.2209152,0.005996586,-0.9958456,-0.02463945,24.64682,26.8891,-4.661499,998.6215
2.192180157,0.2589334,0.0615045,-0.2209152,0.0001617642,-0.9934306,-0.02025101,24.64906,26.91196,-3.458109,998.6215
2.211997032,0.2589334,0.1825299,-0.2820776,0.006028778,-0.9992447,-0.02079566,24.64906,26.91196,-3.458109,998.6165
2.231813431,-0.04723396,0.2430426,-0.2820776,0.003073091,-0.9992868,-0.0318813,24.28275,26.52564,-4.273612,998.6165
2.251629829,0.07523298,0.0615045,-0.2209152,0.00313699,-1.002174,-0.01789881,24.28275,26.52564,-4.273612,998.617
2.271445751,0.2589334,0.1825299,-0.03742781,0.004044157,-0.9963496,-0.02752743,24.28275,26.52564,-4.273612,998.617
2.291262150,-0.1084674,0.0615045,-0.2820776,0.002115788,-0.9958587,-0.02172221,24.64836,26.90474,-3.838127,998.6161
2.311078549,0.3814003,0.1825299,-0.03742781,0.00359332,-0.9982823,-0.02029471,24.64836,26.90474,-3.838127,998.6161
2.330894947,-0.04723396,0.0009917939,-0.2209152,0.002119599,-0.9968337,-0.02220992,23.90728,26.89678,-3.835351,998.615
2.350711346,0.07523298,0.1220172,-0.09859026,0.004052908,-0.9958544,-0.02414618,23.90728,26.89678,-3.835351,998.615
2.370527744,0.1976999,0.1220172,-0.09859026,0.005521134,-0.9992625,-0.02706779,23.90728,26.89678,-3.835351,998.6139
2.390344620,-0.1697009,0.1220172,-0.2820776,0.005544088,-0.9992461,-0.02031034,24.64753,26.89632,-4.281481,998.6139
2.412637711,0.1976999,0.0615045,-0.03742781,0.002102694,-0.9944014,-0.02316269,24.64753,26.89632,-4.281481,998.6148
2.432454109,0.2589334,0.1220172,-0.4044026,0.004538152,-0.9953639,-0.02366364,25.0141,27.2143,-3.844915,998.6148
2.452270508,-0.04723396,0.1220172,-0.2209152,0.002584059,-0.9973356,-0.02945521,25.0141,27.2143,-3.844915,998.6114
2.472086907,0.3814003,0.2430426,-0.2820776,0.002122347,-0.995854,-0.01979151,25.0141,27.2143,-3.844915,998.6114
2.491902828,0.1976999,0.0615045,-0.03742781,0.004063254,-0.9982914,-0.02512411,24.64682,26.8891,-4.661499,998.6104
2.511719227,-0.1084674,-0.05952091,-0.09859026,0.003071543,-0.9934213,-0.02268028,24.64682,26.8891,-4.661499,998.6104
2.531535626,0.3201669,0.0615045,-0.2820776,0.0006638444,-0.9997721,-0.02607847,24.64836,26.90474,-3.838127,998.611
2.551352024,0.0139995,0.0009917939,-0.2209152,0.0001497101,-0.9953947,-0.02701853,24.64836,26.90474,-3.838127,998.611
2.571168900,0.0139995,0.0009917939,-0.09859026,0.004079696,-0.9953464,-0.01545551,24.64836,26.90474,-3.838127,998.6116
2.590985298,0.3201669,0.1220172,-0.2209152,0.001605443,-0.9939229,-0.0255709,24.27782,26.90076,-3.836739,998.6116
2.610801697,0.07523298,0.0615045,-0.03742781,0.0001791543,-0.9997734,-0.02559314,24.27782,26.90076,-3.836739,998.6122
2.630617619,0.07523298,0.1825299,-0.2209152,0.0020787,-0.9909964,-0.0245931,24.2722,27.19792,-4.285492,998.6122
2.650434017,0.5038673,0.0615045,-0.09859026,0.005496586,-0.9963468,-0.02946608,24.2722,27.19792,-4.285492,998.6089
2.672727585,-0.04723396,0.0615045,-0.09859026,0.001628882,-0.9978172,-0.02510835,24.2722,27.19792,-4.285492,998.6089
2.692544460,0.1976999,0.1220172,-0.2209152,0.001147495,-0.9963495,-0.02123675,24.64836,26.90474,-3.838127,998.6078
2.712360859,0.3814003,0.0009917939,-0.1597527,0.001136526,-0.9988017,-0.02848946,24.64836,26.90474,-3.838127,998.6078
2.732176304,0.07523298,0.0009917939,-0.1597527,0.001617914,-1.000269,-0.03236106,23.90166,27.19394,-4.284104,998.6105
2.751993179,0.3201669,0.0615045,-0.2209152,-0.0003202232,-0.9953855,-0.02218913,23.90166,27.19394,-4.284104,998.6105
2.771809578,0.3201669,0.1825299,-0.1597527,0.00212722,-0.9987838,-0.02318533,23.90166,27.19394,-4.284104,998.6111
2.791625977,0.1364664,0.1220172,-0.1597527,0.008906919,-0.9953471,-0.02610086,24.64906,26.91196,-3.458109,998.6111
2.811442375,0.3814003,-0.05952091,-0.09859026,0.003551868,-0.9929343,-0.02364576,24.64906,26.91196,-3.458109,998.6059
2.831258774,0.07523298,0.0615045,-0.2209152,-0.001297246,-0.9949048,-0.02266398,24.64906,26.91196,-3.458109,998.6059
2.851075173,0.2589334,0.1220172,-0.2820776,-0.003245334,-0.9973612,-0.02749272,24.27303,27.20634,-3.842139,998.6066
2.870892048,0.1364664,0.0009917939,-0.2820776,0.002112464,-0.9987943,-0.02752941,24.27303,27.20634,-3.842139,998.6066
2.890707493,0.1976999,0.1220172,-0.2209152,0.002105974,-0.9943991,-0.02219734,25.0196,26.91594,-3.459497,998.6055
2.910524368,0.2589334,0.0009917939,-0.1597527,0.002104311,-0.9958669,-0.02510094,25.0196,26.91594,-3.459497,998.6055
2.930340767,0.07523298,0.0615045,-0.09859026,-0.0003229706,-0.9963652,-0.02460753,25.0196,26.91594,-3.459497,998.6044
2.952634335,0.3201669,0.2430426,-0.2209152,0.005013028,-0.993903,-0.02462409,25.02465,26.54203,-3.833035,998.6044
2.972450733,0.2589334,0.0615045,-0.1597527,-0.00276554,-0.9958968,-0.02700515,25.02465,26.54203,-3.833035,998.6011
2.992267609,0.07523298,0.364068,-0.1597527,0.00310646,-0.9973074,-0.018839,24.27853,26.90798,-3.456721,998.6011
3.012083054,0.3814003,0.1825299,-0.1597527,0.0001721331,-0.9944009,-0.01880801,24.27853,26.90798,-3.456721,998.6003
3.031899452,0.0139995,0.0615045,-0.09859026,0.002604266,-0.998299,-0.02511617,24.27853,26.90798,-3.456721,998.6003
3.051716328,0.3814003,0.0615045,-0.3432401,0.001152945,-0.9973233,-0.02124178,23.90728,26.89678,-3.835351,998.6027
3.071532726,0.4426338,0.0615045,-0.2209152,-0.000318652,-0.9997842,-0.02896922,23.90728,26.89678,-3.835351,998.6027
3.091349125,-0.1084674,0.1220172,-0.2209152,0.002623918,-0.9997515,-0.02174499,25.01328,27.20588,-4.288269,998.6033
3.111165524,0.1364664,-0.05952091,-0.09859026,-0.0002711262,-1.001217,-0.01739256,25.01328,27.20588,-4.288269,998.6033
3.130981922,0.1976999,0.2430426,-0.2209152,0.006446844,-0.9958688,-0.03526096,25.01328,27.20588,-4.288269,998.6039
3.150798321,-0.1697009,0.0615045,-0.1597527,0.003086785,-0.9973214,-0.02463111,24.26645,27.56462,-4.291973,998.6039
3.170615196,0.4426338,0.1825299,-0.09859026,-0.0002940353,-0.9983,-0.01930817,24.26645,27.56462,-4.291973,998.6045
3.190430641,0.3201669,0.0009917939,-0.2209152,0.005032634,-0.9982888,-0.02609476,24.27699,26.89234,-4.280092,998.6045
3.212724686,-0.2309344,0.1220172,-0.1597527,0.001659944,-1.003662,-0.02562122,24.27699,26.89234,-4.280092,998.6011
3.232541084,0.2589334,0.0615045,-0.03742781,0.00260482,-0.9978097,-0.0241483,24.27699,26.89234,-4.280092,998.6011
3.252357483,0.4426338,0.1220172,-0.2209152,0.001632161,-0.9978148,-0.024143,24.64753,26.89632,-4.281481,998.6003
3.272173882,-0.2921678,0.0009917939,-0.1597527,0.005003144,-0.9968432,-0.032362,24.64753,26.89632,-4.281481,998.6003
3.291990757,0.4426338,0.0615045,-0.09859026,0.001150243,-0.9953698,-0.01881834,25.0141,27.2143,-3.844915,998.601
3.311807156,0.4426338,0.1825299,-0.09859026,0.003082929,-0.9992797,-0.02898525,25.0141,27.2143,-3.844915,998.601
3.331622601,-0.1084674,0.1220172,-0.1597527,-0.0003333166,-0.9939283,-0.0236296,25.0141,27.2143,-3.844915,998.6016
3.351439476,0.5651007,0.1825299,-0.2820776,0.005513004,-0.9948684,-0.0222184,24.27853,26.90798,-3.456721,998.6016
3.371255875,0.1364664,0.3035553,-0.2209152,0.00453485,-0.9968328,-0.02704992,24.27853,26.90798,-3.456721,998.6022
3.391072273,0.1976999,0.1825299,-0.2209152,0.003627684,-1.002658,-0.0174213,24.27303,27.20634,-3.842139,998.6022
3.410888672,0.5651007,0.1825299,-0.1597527,0.003093897,-0.9968275,-0.02173254,24.27303,27.20634,-3.842139,998.6011
3.430705071,0.3814003,0.0009917939,-0.09859026,0.002567709,-0.9944141,-0.02944012,24.27303,27.20634,-3.842139,998.6011
3.450521469,0.3201669,0.1220172,-0.09859026,0.002121239,-0.9968325,-0.02172724,24.27303,27.20634,-3.842139,998.6055
3.470338345,0.1364664,0.0615045,-0.2209152,-0.0008087461,-0.9958785,-0.02363702,24.27303,27.20634,-3.842139,998.6055
3.492631436,0.1976999,0.1220172,-0.1597527,0.002101032,-0.9958692,-0.02606629,24.27374,27.21356,-3.462121,998.6078
3.512447834,0.3814003,0.0615045,-0.3432401,0.004496699,-0.9900159,-0.0270147,24.27374,27.21356,-3.462121,998.6078
3.532264233,0.07523298,0.1825299,-0.1597527,0.004073092,-0.9982844,-0.02222806,24.27374,27.21356,-3.462121,998.6084
3.552080631,0.3814003,0.1220172,-0.2209152,0.003058935,-0.9958748,-0.03041567,24.28428,26.54128,-3.450241,998.6084
3.571897030,0.07523298,0.1825299,-0.3432401,0.002600455,-0.9973239,-0.02462846,24.28428,26.54128,-3.450241,998.6091
3.591713905,0.3201669,0.1825299,-0.2820776,0.004053439,-0.9968318,-0.02559924,24.65328,26.52963,-4.275001,998.6091
3.611530304,0.1364664,0.0615045,-0.09859026,0.003554593,-0.9934212,-0.02364828,24.65328,26.52963,-4.275001,998.6097
3.631346703,0.1364664,-0.1200336,-0.4044026,0.003589996,-1.001218,-0.02610191,24.65328,26.52963,-4.275001,998.6097
3.651163101,0.1976999,0.0615045,-0.1597527,0.004083438,-1.000721,-0.02320599,24.27303,27.20634,-3.842139,998.6106
3.670979500,0.3814003,0.3035553,-0.09859026,-0.0008120253,-0.9958808,-0.02460237,24.27303,27.20634,-3.842139,998.6106
3.690795899,-0.1084674,0.1825299,-0.09859026,0.007441904,-0.9963367,-0.02947667,24.65411,26.53805,-3.831647,998.6112
3.710612774,0.3814003,0.1220172,-0.2209152,0.003051336,-0.992458,-0.02701933,24.65411,26.53805,-3.831647,998.6112
3.730428219,0.4426338,0.1825299,-0.1597527,0.006964834,-0.998288,-0.02996676,24.65411,26.53805,-3.831647,998.6095
3.752722264,-0.2921678,0.1825299,-0.09859026,0.002618977,-1.001222,-0.02561394,23.90728,26.89678,-3.835351,998.6095
3.772538662,0.3814003,0.1220172,-0.09859026,0.002628306,-0.9987707,-0.0188439,23.90728,26.89678,-3.835351,998.6101
3.792355061,0.3201669,0.0009917939,-0.1597527,-0.002322881,-0.9925033,-0.03423032,24.28933,26.16737,-3.823779,998.6101
3.812171459,-0.2921678,-0.05952091,-0.1597527,0.0006398731,-0.9949006,-0.02508796,24.28933,26.16737,-3.823779,998.6108
3.831987858,0.5038673,0.0009917939,-0.2209152,0.003116275,-0.998767,-0.01836388,24.28933,26.16737,-3.823779,998.6108
3.851804733,0.0139995,0.1825299,-0.2209152,0.001602672,-0.9963693,-0.03041023,24.64357,27.21032,-3.843527,998.6097
3.871621132,-0.1084674,0.0009917939,-0.3432401,0.004540346,-0.9948734,-0.0222131,24.64357,27.21032,-3.843527,998.6097
3.891437531,0.6875677,0.0009917939,-0.09859026,0.002564453,-0.9929499,-0.02798454,24.27853,26.90798,-3.456721,998.6103
3.911253929,-0.1084674,0.0615045,-0.2209152,0.002584546,-1.001246,-0.03575012,24.27853,26.90798,-3.456721,998.6103
3.931070328,0.3201669,-0.1200336,-0.1597527,-0.00324418,-0.9934494,-0.02071514,24.27853,26.90798,-3.456721,998.6112
3.950886250,0.4426338,0.0009917939,-0.3432401,0.007927125,-0.9973127,-0.03141506,24.64274,27.2019,-4.28688,998.6112
3.970702648,-0.1697009,0.0009917939,-0.03742781,0.0006354856,-0.9958815,-0.02798904,24.64274,27.2019,-4.28688,998.6136
3.990519047,0.5038673,0.1825299,-0.2209152,-0.001278125,-0.99538,-0.01783975,24.64274,27.2019,-4.28688,998.6136
4.010335922,0.1364664,0.0009917939,-0.09859026,-0.0003044265,-0.9987963,-0.02317208,24.27699,26.89234,-4.280092,998.6101
4.032629490,-0.2309344,0.1825299,-0.1597527,0.002114126,-0.9973264,-0.02462581,24.27699,26.89234,-4.280092,998.6101
4.052445889,0.3814003,0.0009917939,0.08489711,0.004546927,-0.9934021,-0.01786147,23.89674,27.56905,-3.84723,998.6108
4.072262287,0.2589334,0.1220172,-0.09859026,0.0001568003,-0.9963675,-0.02654088,23.89674,27.56905,-3.84723,998.6108
4.092079163,0.1364664,0.2430426,-0.09859026,0.001605465,-0.9924563,-0.02314997,23.89674,27.56905,-3.84723,998.6114
4.111895561,0.3201669,0.0009917939,-0.1597527,-0.001763369,-0.9958706,-0.01832229,25.01889,26.90872,-3.839515,998.6114
4.131711960,-0.04723396,0.0615045,-0.09859026,0.006512914,-0.9997326,-0.02224885,25.01889,26.90872,-3.839515,998.6137
4.151528358,0.1976999,0.1220172,-0.2820776,0.006039124,-1.001682,-0.02177359,24.27782,26.90076,-3.836739,998.6137
4.171344757,0.1976999,0.0615045,-0.1597527,0.001643039,-1.001229,-0.02657399,24.27782,26.90076,-3.836739,998.6147
4.191161156,0.0139995,0.0615045,-0.09859026,0.004073069,-0.999751,-0.02464898,24.27782,26.90076,-3.836739,998.6147
4.210977078,0.1976999,0.0615045,-0.2209152,0.004057318,-0.9934069,-0.01882418,24.64836,26.90474,-3.838127,998.6169
4.230793476,0.3814003,0.0615045,-0.09859026,0.005976379,-0.9948822,-0.0289785,24.64836,26.90474,-3.838127,998.6169
4.250609875,0.1364664,0.1220172,-0.2209152,0.006497627,-0.9987658,-0.02513988,23.90249,27.20236,-3.840751,998.6176
4.270426750,0.1364664,0.0615045,-0.2209152,0.002109253,-0.9943967,-0.02123199,23.90249,27.20236,-3.840751,998.6176
4.292720318,0.1364664,0.1825299,-0.2820776,0.002137035,-1.000243,-0.0227102,23.90249,27.20236,-3.840751,998.6199
4.312536717,0.4426338,0.0615045,-0.2209152,0.00405785,-0.9943843,-0.02027723,24.64836,26.90474,-3.838127,998.6199
4.332353115,0.3201669,0.2430426,-0.1597527,0.006991645,-0.9963135,-0.01885517,24.64836,26.90474,-3.838127,998.6222
4.352169991,0.2589334,-0.1200336,-0.2209152,0.0006753216,-0.9997639,-0.02269974,24.64836,26.90474,-3.838127,998.6222
4.371986389,0.1976999,0.0009917939,-0.1597527,0.001138765,-0.995378,-0.02219707,24.64836,26.90474,-3.838127,998.6248
4.391802788,0.1976999,0.0615045,-0.3432401,0.004044179,-0.9948829,-0.0251065,24.64836,26.90474,-3.838127,998.6248
4.411619186,0.3201669,0.0615045,-0.09859026,-0.00229771,-0.9905299,-0.0236014,24.27699,26.89234,-4.280092,998.6271
4.431435585,0.07523298,0.1220172,-0.3432401,0.002126666,-0.999273,-0.0241532,24.27699,26.89234,-4.280092,998.6271
4.451251984,0.1364664,0.0615045,0.02373465,0.005536467,-0.997296,-0.01933493,24.27303,27.20634,-3.842139,998.6278
4.471068859,0.1976999,0.0009917939,-0.09859026,0.001136526,-0.9988017,-0.02848946,24.27303,27.20634,-3.842139,998.6278
4.490885258,0.07523298,0.1825299,-0.09859026,0.001618028,-0.9929362,-0.02025644,24.27303,27.20634,-3.842139,998.6284
4.510701656,0.4426338,0.0615045,-0.2209152,0.003100941,-1.000733,-0.02609675,24.63699,27.5686,-4.293361,998.6284
4.530518055,0.07523298,0.2430426,-0.1597527,0.00407039,-0.9963309,-0.01980462,24.63699,27.5686,-4.293361,998.6267
4.550334454,0.0139995,0.0615045,-0.2209152,0.004067111,-0.9963332,-0.02076997,24.26728,27.57303,-3.848619,998.6267
4.572627545,0.1976999,0.0615045,-0.2820776,0.004072538,-0.9987737,-0.02319593,24.26728,27.57303,-3.848619,998.6273
4.592443943,0.1364664,0.1220172,-0.03742781,0.002585745,-0.9944012,-0.02413069,24.26728,27.57303,-3.848619,998.6273
4.612260819,0.3814003,0.2430426,-0.1597527,-0.0003006165,-0.9997713,-0.02365979,25.01328,27.20588,-4.288269,998.63
4.632077217,-0.04723396,-0.1200336,-0.1597527,-0.004681368,-0.9973523,-0.02072732,25.01328,27.20588,-4.288269,998.63
4.651893616,0.0139995,0.0615045,-0.1597527,-0.0007770626,-0.9968336,-0.01591924,24.64836,26.90474,-3.838127,998.6306
4.671710014,0.1976999,0.1220172,-0.1597527,-0.000343686,-0.9929579,-0.0250726,24.64836,26.90474,-3.838127,998.6306
4.691526413,-0.1084674,0.1220172,-0.1597527,0.0001502642,-0.9949054,-0.02605066,24.64836,26.90474,-3.838127,998.6312
4.711343289,0.1976999,0.0615045,-0.09859026,0.002599393,-0.9953693,-0.02172234,24.27782,26.90076,-3.836739,998.6312
4.731159687,0.4426338,0.1220172,-0.2209152,0.005474808,-0.9909847,-0.02702503,24.27782,26.90076,-3.836739,998.6318
4.750976086,0.1364664,0.1825299,-0.09859026,0.0006682323,-0.9987913,-0.02317738,24.65903,26.16293,-4.268521,998.6318
4.770792484,0.4426338,0.1220172,-0.1597527,0.00550864,-0.9943826,-0.02269856,24.65903,26.16293,-4.268521,998.6267
4.790608883,0.1976999,-0.05952091,-0.2209152,0.002131631,-0.9963363,-0.01786332,24.65903,26.16293,-4.268521,998.6267
4.810425282,0.1364664,0.3035553,-0.2209152,0.002576462,-0.9939191,-0.02605888,24.64753,26.89632,-4.281481,998.6273
4.832719326,0.2589334,0.0615045,-0.03742781,-0.0008158358,-0.9949058,-0.02411466,24.64753,26.89632,-4.281481,998.6273
4.852535725,0.3201669,0.0615045,-0.2209152,-0.0008016792,-0.9983178,-0.0255803,24.64836,26.90474,-3.838127,998.6279
4.872352123,0.2589334,-0.05952091,-0.2209152,0.001132161,-0.9983159,-0.02896962,24.64836,26.90474,-3.838127,998.6279
4.892168522,0.1364664,0.1825299,-0.3432401,0.002104865,-0.9953776,-0.02413307,24.64836,26.90474,-3.838127,998.6289
4.911984921,0.4426338,0.0615045,-0.03742781,-0.0003278893,-0.9963688,-0.02605556,24.64357,27.21032,-3.843527,998.6289
4.931801796,0.2589334,0.0009917939,-0.09859026,0.0006606336,-0.9953746,-0.01978105,24.64357,27.21032,-3.843527,998.6295
4.951618195,0.1364664,0.1220172,-0.2820776,0.002097753,-0.9958715,-0.02703164,23.89591,27.56063,-4.290585,998.6295
4.971434593,0.3201669,0.0615045,-0.1597527,0.0006164559,-0.9895397,-0.02312958,23.89591,27.56063,-4.290585,998.6284
4.991250992,0.07523298,0.3035553,0.02373465,0.0006174957,-0.9929611,-0.02845662,23.89591,27.56063,-4.290585,998.6284
5.011067390,0.07523298,0.1825299,-0.03742781,0.005053395,-0.9987628,-0.02078785,24.64357,27.21032,-3.843527,998.629
5.030883789,0.4426338,-0.05952091,-0.1597527,0.005530994,-0.9977888,-0.02175082,24.64357,27.21032,-3.843527,998.629
5.050700665,0.1364664,0.1220172,-0.3432401,0.0001748125,-0.9978212,-0.02365238,24.65411,26.53805,-3.831647,998.6274
5.070517063,0.2589334,0.0615045,-0.2209152,-0.0003235252,-0.9968544,-0.0255754,24.65411,26.53805,-3.831647,998.6274
5.090333462,0.2589334,0.2430426,-0.2820776,-0.005200445,-0.994445,-0.02553633,24.65411,26.53805,-3.831647,998.6279
5.112626553,0.3201669,0.0615045,-0.09859026,0.0006447919,-0.9948971,-0.02363993,25.0141,27.2143,-3.844915,998.6279
5.132442951,0.1976999,0.1220172,-0.09859026,0.003587271,-1.000731,-0.0260994,25.0141,27.2143,-3.844915,998.6289
5.152259350,0.1976999,0.0009917939,-0.1597527,0.001158372,-0.9997638,-0.02366774,24.27782,26.90076,-3.836739,998.6289
5.172076225,0.1976999,0.0009917939,-0.2209152,0.001592371,-0.990999,-0.02459045,24.27782,26.90076,-3.836739,998.6295
5.191892624,0.07523298,0.0009917939,-0.03742781,0.002095536,-0.9978286,-0.0309031,24.27782,26.90076,-3.836739,998.6295
5.211709023,0.4426338,-0.05952091,-0.09859026,-0.0008316548,-0.9929616,-0.02555262,24.64274,27.2019,-4.28688,998.6245
5.231525898,0.1976999,0.0615045,-0.2209152,0.0001393868,-0.9914912,-0.02361967,24.64274,27.2019,-4.28688,998.6245
5.251342773,0.07523298,0.1220172,-0.09859026,0.007478528,-0.9958217,-0.01788995,24.64274,27.2019,-4.28688,998.6228
5.271159172,0.4426338,0.1220172,-0.2209152,0.0006551608,-0.9958674,-0.02219694,25.0141,27.2143,-3.844915,998.6228
5.290975571,0.07523298,0.1825299,-0.3432401,0.00503104,-0.9953567,-0.02173559,25.0141,27.2143,-3.844915,998.6217
5.310791969,0.07523298,0.0009917939,-0.09859026,0.00212177,-0.9978099,-0.0231803,24.64753,26.89632,-4.281481,998.6217
5.330608368,0.4426338,0.0615045,-0.09859026,-0.001753023,-0.9983076,-0.01930022,24.64753,26.89632,-4.281481,998.6223
5.350424767,0.0139995,0.2430426,-0.03742781,0.005498226,-0.9963456,-0.0289834,24.64753,26.89632,-4.281481,998.6223
5.372718334,0.1364664,0.1220172,-0.09859026,0.004072538,-0.9987737,-0.02319593,25.02382,26.53361,-4.276389,998.6229
5.392534733,0.5038673,0.0009917939,-0.1597527,0.003064431,-0.9939154,-0.02557885,25.02382,26.53361,-4.276389,998.6229
5.412351132,-0.2309344,0.0615045,-0.2820776,-0.0003164355,-0.9978272,-0.02509776,24.64274,27.2019,-4.28688,998.6296
5.432167530,0.0139995,0.0615045,-0.2820776,0.004061106,-0.9958486,-0.02173281,24.64274,27.2019,-4.28688,998.6296
5.451983929,0.3814003,-0.05952091,-0.09859026,0.004541963,-0.9963389,-0.02415135,24.64274,27.2019,-4.28688,998.6318
5.471800327,-0.1697009,0.0615045,-0.09859026,0.0006327839,-0.993928,-0.0255656,25.01736,26.89309,-4.662887,998.6318
5.491617203,0.2583598,0.1824895,-0.2815806,0.00260101,-0.9968347,-0.02366059,25.01736,26.89309,-4.662887,998.6307
5.511434078,0.3192907,0.1217275,-0.03655032,0.002128837,-1.000249,-0.02512358,24.26728,27.57303,-3.848619,998.6307
5.531250477,-0.1714554,0.1818966,-0.1585914,0.004525589,-0.994884,-0.02655718,24.26728,27.57303,-3.848619,998.6315
5.551066876,0.3793458,0.1814588,0.08645659,0.0006933798,-0.9982845,-0.01496939,24.26728,27.57303,-3.848619,998.6315
5.570883751,0.1954043,-0.06076255,-0.09678725,0.001623409,-0.9983099,-0.02752424,24.27303,27.20634,-3.842139,998.6324
5.590700150,0.07221621,0.06018747,-0.09648665,0.003587293,-0.9992644,-0.02367847,24.27303,27.20634,-3.842139,998.6324
5.610516548,0.4392434,0.1810617,-0.2183006,0.002646319,-1.000224,-0.0159554,24.27303,27.20634,-3.842139,998.6329
5.630332947,0.0100831,-0.0006460315,0.02664771,0.001620684,-0.997823,-0.02752173,24.27303,27.20634,-3.842139,998.6329
5.652626038,0.07073067,-0.06123278,-0.2786065,0.0040524,-0.9934104,-0.0202722,24.27303,27.20634,-3.842139,998.6353
5.672442436,0.2539267,0.0596994,-0.2170902,0.005542472,-0.9977806,-0.01837209,24.64203,27.19468,-4.666899,998.6353
5.692258835,0.06970413,0.05934061,-0.09433544,0.006991068,-0.9982693,-0.02224396,24.64203,27.19468,-4.666899,998.6359
5.712076187,0.1915156,0.1195334,-0.0939642,0.003061128,-0.9953843,-0.02896512,24.65411,26.53805,-3.831647,998.6359
5.731892586,0.2523835,0.05879659,-0.1547563,0.004062192,-0.9963368,-0.022218,24.65411,26.53805,-3.831647,998.6426
5.751708985,0.1906125,-0.06243341,-0.2156838,0.005503721,-0.9943861,-0.02414658,24.65411,26.53805,-3.831647,998.6426
5.771525860,0.1901532,0.1795652,-0.2766119,0.005035913,-0.9982864,-0.02512941,24.64357,27.21032,-3.843527,998.6432
5.791342259,0.3120852,-0.002233806,-0.03151728,0.005025036,-0.994872,-0.02269842,24.64357,27.21032,-3.843527,998.6432
5.811158657,0.2503757,0.2397846,-0.2758768,-0.0003218628,-0.9953867,-0.0226718,24.64357,27.21032,-3.843527,998.6438
5.830975056,0.127607,0.1791069,-0.3366346,0.008436962,-0.9968045,-0.02369238,24.64357,27.21032,-3.843527,998.6438
5.850791455,0.06568814,-0.002614977,-0.2749535,0.004054571,-0.9943866,-0.02124259,24.64357,27.21032,-3.843527,998.6443
5.870607853,0.3101879,-0.1237669,-0.02999722,0.0001442828,-0.9929543,-0.02459257,24.64357,27.21032,-3.843527,998.6443
5.890424729,0.1259587,0.05762614,-0.213083,0.001644193,-0.9973173,-0.01979641,24.64357,27.21032,-3.843527,998.6467
5.912718296,0.002694051,0.1784507,-0.02918575,0.002598239,-0.999281,-0.02849992,24.64357,27.21032,-3.843527,998.6467
5.932534695,0.3084701,0.2387434,-0.02886294,0.004076394,-0.9968154,-0.01884179,24.64357,27.21032,-3.843527,998.6473
5.952351094,0.0631464,0.1173846,-0.2120284,0.0001399177,-0.9924685,-0.02507273,24.64357,27.21032,-3.843527,998.6473
5.972167969,0.1849359,-0.06433429,-0.08928637,0.004531617,-0.993902,-0.02317342,24.64836,26.90474,-3.838127,998.6483
5.991984367,0.307073,-0.06443868,-0.150148,0.003568195,-0.9973224,-0.02608178,24.64836,26.90474,-3.838127,998.6483
6.011800766,0.1842197,0.1169383,-0.1498286,0.004050737,-0.9948782,-0.0231758,24.27303,27.20634,-3.842139,998.6489
6.031617165,-0.0002122568,-0.00417184,-0.1494333,0.005523351,-0.9973053,-0.02319633,24.27303,27.20634,-3.842139,998.6489
6.051433563,0.5508316,0.05618043,-0.08779979,-0.00374365,-0.9949279,-0.02699482,24.27303,27.20634,-3.842139,998.6535
6.071249962,-0.06196303,0.116647,-0.2099235,0.001584682,-0.9934488,-0.03087781,23.90799,26.90399,-3.455333,998.6535
6.091066837,0.1822615,0.176962,-0.02602437,0.003092281,-0.995362,-0.01979429,23.90799,26.90399,-3.455333,998.6525
6.110883236,0.2434409,-0.1257229,-0.08677602,0.003575308,-0.9968285,-0.02318322,24.64178,27.26302,-4.287961,998.6525
6.130699635,-0.1856888,0.0558079,-0.2699111,0.006464857,-0.9973225,-0.03237246,24.64178,27.26302,-4.287961,998.649
6.150516033,0.2423736,0.05570568,-0.1471965,0.00311355,-0.99828,-0.01836136,24.64178,27.26302,-4.287961,998.649
6.170332432,0.1812428,0.05547089,-0.1468078,0.002097222,-0.9948941,-0.02557858,25.0141,27.2143,-3.844915,998.6541
6.192626476,-0.1868616,0.1156561,-0.08509639,0.002075952,-0.9919761,-0.02701151,25.0141,27.2143,-3.844915,998.6541
6.212442875,0.5474094,0.1760494,-0.1459109,0.001144747,-0.9973292,-0.02365516,24.64753,26.89632,-4.281481,998.6563
6.232259274,0.3021776,-0.0056077,-0.08442055,0.006508526,-1.000713,-0.02514994,24.64753,26.89632,-4.281481,998.6563
6.252075672,-0.065924,-0.005669653,-0.2064952,-0.00128309,-0.9983168,-0.02412962,24.64753,26.89632,-4.281481,998.6586
6.271892071,0.4236669,0.1151801,-0.1449488,0.001597245,-0.9939288,-0.02798428,24.28357,26.53406,-3.830259,998.6586
6.291709423,0.1173201,-0.005963501,-0.1447192,-0.00224374,-0.999291,-0.02219865,24.28357,26.53406,-3.830259,998.6553
6.311525822,0.0551772,-0.1270309,-0.02218453,-0.00225792,-0.9973456,-0.02315394,24.64836,26.90474,-3.838127,998.6553
6.331342220,0.4834421,-0.06654111,-0.0830994,0.004061106,-0.9958486,-0.02173281,24.64836,26.90474,-3.838127,998.6558
6.351158619,-0.006793555,0.2357716,-0.2050046,0.001607059,-0.9953884,-0.02750915,24.64836,26.90474,-3.838127,998.6558
6.370975494,0.05374578,0.2355027,-0.2047011,-0.0008278671,-0.9954033,-0.02846125,24.2722,27.19792,-4.285492,998.6568
6.390791893,0.3597011,0.1745888,-0.08199675,-0.001298354,-0.9958833,-0.02459972,24.2722,27.19792,-4.285492,998.6568
6.410608292,-0.1917648,0.05344794,-0.08177166,-0.002776995,-0.9944384,-0.02796295,24.2722,27.19792,-4.285492,998.6575
6.430424690,0.1751372,0.05327584,-0.08133608,0.00406598,-0.9987784,-0.02512663,24.27303,27.20634,-3.842139,998.6575
6.452718735,0.4197877,-0.1284885,0.04150639,-0.001273275,-0.9997764,-0.02365449,24.27303,27.20634,-3.842139,998.658
6.472535133,0.05200586,0.05310614,-0.1418356,0.002593343,-0.9978179,-0.02752703,24.65411,26.53805,-3.831647,998.658
6.492351532,0.173804,-0.06793863,-0.2026612,0.002566138,-0.9900154,-0.02266002,24.65411,26.53805,-3.831647,998.657
6.512167931,0.2960843,0.05295345,-0.2022294,0.002095028,-0.9953846,-0.02702912,24.64274,27.2019,-4.28688,998.657
6.531984329,0.05069551,0.05280162,-0.1406744,0.0001666378,-0.9963604,-0.02364483,24.64274,27.2019,-4.28688,998.6577
6.551800728,0.1726699,0.05265012,-0.2626269,0.003069903,-0.9934225,-0.02316296,24.64274,27.2019,-4.28688,998.6577
6.571617603,0.3561674,0.1735622,-0.3234564,0.001134932,-0.9958696,-0.02413029,24.27699,26.89234,-4.280092,998.6585
6.591434002,-0.01185831,0.1128226,-0.1396177,0.005497208,-0.9914576,-0.02123544,24.27699,26.89234,-4.280092,998.6585
6.611250401,0.1101387,-0.008277017,-0.2616498,0.0001841415,-0.9953701,-0.01688235,24.27699,26.89234,-4.280092,998.6591
6.631067276,0.2322522,0.05216144,-0.1388599,0.002590087,-0.9963537,-0.02607146,23.90645,26.88836,-4.278704,998.6591
6.650884152,-0.01318784,-0.1295456,-0.1385882,0.002100524,-0.9934252,-0.02219231,23.90645,26.88836,-4.278704,998.6597
6.670700550,0.04775194,0.1124315,-0.138317,0.001621793,-0.9968444,-0.02558599,24.64753,26.89632,-4.281481,998.6597
6.690516949,0.04749763,0.0517886,-0.3214763,0.001118536,-0.9958813,-0.02895704,24.64753,26.89632,-4.281481,998.6597
6.710333347,0.1082468,-0.008987026,-0.07646102,-0.002273716,-0.9939349,-0.02217098,24.64753,26.89632,-4.281481,998.6603
6.732627392,0.2302927,0.1120636,-0.1983972,-0.0008327626,-0.9939402,-0.02748836,24.28204,26.51843,-4.65363,998.661
6.752443791,0.04624474,0.1724089,-0.136775,0.005480258,-0.9919586,-0.02703006,24.28204,26.51843,-4.65363,998.661
6.772260189,-0.01543137,-0.009163139,-0.2587757,0.004026697,-0.9944065,-0.02944807,25.38943,26.91271,-3.840904,998.6586
6.792076588,0.2291184,0.1116573,-0.07500351,0.003091149,-0.9978072,-0.02415095,25.38943,26.91271,-3.840904,998.6586
6.811892986,0.1676364,-0.00945845,-0.1357666,0.003567133,-0.9953678,-0.02317567,25.38943,26.91271,-3.840904,998.6575
6.831709385,-0.07758357,0.05094496,-0.1965497,0.004517437,-0.9919565,-0.02412871,24.64836,26.90474,-3.838127,998.6575
6.851526261,0.1668722,0.1718044,-0.07384656,0.005046305,-0.9977901,-0.02126549,24.64836,26.90474,-3.838127,998.6524
6.871342659,0.1665686,0.1111453,-0.1346317,0.002605352,-0.9987871,-0.02560136,24.64178,27.26302,-4.287961,998.6524
6.891159535,0.04362583,0.171417,-0.2566378,0.00115403,-0.9978114,-0.02172697,24.64178,27.26302,-4.287961,998.6514
6.910975933,0.2269092,0.05030313,-0.133899,0.0006895009,-1.001709,-0.02174445,24.64178,27.26302,-4.287961,998.6514
6.930792809,0.04286989,0.0501769,-0.3780399,0.0001573539,-0.9958781,-0.02557302,25.01257,27.19867,-4.668287,998.6514
6.950609207,0.0424163,0.1105825,-0.07175843,0.002123409,-0.9978087,-0.02269762,25.01257,27.19867,-4.668287,998.6519
6.970425606,0.3485155,0.2314252,-0.1325295,-0.001787963,-0.9958882,-0.02556242,24.28204,26.51843,-4.65363,998.6519
6.992719173,0.1644459,0.0495753,-0.315662,0.0001911628,-1.000743,-0.02366747,24.28204,26.51843,-4.65363,998.6509
7.012536049,0.2250935,0.1704383,-0.13167,-0.002268266,-0.9949086,-0.02217601,24.28204,26.51843,-4.65363,998.6458
7.032352448,0.4085554,0.1096876,-0.1924059,0.001147981,-1.00026,-0.02753166,24.64753,26.89632,-4.281481,998.6458
7.052168846,0.04066724,0.0489946,-0.1921149,-0.002739952,-1.002234,-0.0299339,24.64753,26.89632,-4.281481,998.6464
7.071985245,0.04025745,0.1697071,-0.1918053,0.003599279,-1.0017,-0.02417373,25.02957,26.16691,-4.269909,998.6464
7.091801643,0.1626809,0.1692429,-0.007990059,0.002119622,-0.9953671,-0.01978899,25.02957,26.16691,-4.269909,998.6473
7.111618042,0.1009622,0.04817253,-0.1301221,0.003568173,-0.9987891,-0.02850271,25.02957,26.16691,-4.269909,998.6473
7.131434917,0.2841591,0.168849,-0.1297954,0.005056651,-1.000227,-0.02224342,25.01232,27.267,-4.289349,998.6479
7.151251793,0.1002835,0.04781756,-0.007144706,0.006953426,-0.9938964,-0.02608272,25.01232,27.267,-4.289349,998.6479
7.171068192,0.03866366,0.1082482,-0.1292214,0.001613063,-0.995873,-0.02654631,24.65411,26.53805,-3.831647,998.6479
7.190884590,0.0996463,0.2290018,-0.06788802,0.004056741,-0.9953629,-0.02221297,24.65411,26.53805,-3.831647,998.6469
7.210701466,0.2218247,0.2288827,-0.1899657,0.0006513046,-0.9978257,-0.02655108,24.65411,26.53805,-3.831647,998.6469
7.230517864,0.1600727,-0.01357179,0.05485387,0.002128351,-0.9963386,-0.01882867,25.02465,26.54203,-3.833035,998.6418
7.250334263,0.03733854,0.04689903,-0.250789,0.004565957,-0.9997438,-0.02272093,25.02465,26.54203,-3.833035,998.6418
7.272627831,0.2207607,0.04676657,-0.2503686,0.004049075,-0.9963461,-0.0260794,25.01807,26.9003,-4.282869,998.6425
7.292444706,0.22036,0.04666821,-0.1889423,0.001621238,-0.9973337,-0.02655386,25.01807,26.9003,-4.282869,998.6414
7.312261105,0.2202105,0.2279182,-0.1275358,0.003093875,-0.9982941,-0.02415346,25.01807,26.9003,-4.282869,998.6414
7.332077503,0.1584049,-0.07487565,-0.1273117,0.005545151,-1.001201,-0.02321645,25.01807,26.9003,-4.282869,998.6423
7.351893902,0.2194713,0.1670972,-0.2491442,0.00308242,-0.9968357,-0.02511127,25.01807,26.9003,-4.282869,998.6423
7.371711254,0.0966458,0.1062791,-0.06531934,0.0006638444,-0.9997721,-0.02607847,24.64753,26.89632,-4.281481,998.6373
7.391527653,0.2186779,0.04555645,-0.003877692,-0.0008011018,-0.996362,-0.02219151,24.64753,26.89632,-4.281481,998.6373
7.411344051,0.1574336,0.1665244,-0.06481922,-0.00369617,-0.9992939,-0.02026,24.64753,26.89632,-4.281481,998.6373
7.431160450,-0.0881452,0.1057077,-0.2479903,0.003610225,-1.000714,-0.01934194,25.02382,26.53361,-4.276389,998.6379
7.450976849,0.4013864,0.1660878,-0.186474,0.005030463,-0.9973125,-0.02512438,25.02382,26.53361,-4.276389,998.6379
7.470793724,-0.1498575,0.1658608,-0.002652805,0.001102718,-0.9939372,-0.030395,25.01232,27.267,-4.289349,998.6384
7.490610123,0.1558211,-0.07634042,-0.1247023,0.002596645,-0.996349,-0.02414075,25.01232,27.267,-4.289349,998.6384
7.510426998,0.2167401,-0.1368895,-0.1243509,0.003080803,-0.9953703,-0.02317302,25.01232,27.267,-4.289349,998.6375
7.532720089,0.1552407,0.1656618,-0.1852966,0.005036467,-0.9977971,-0.02416155,24.64261,27.27144,-3.844607,998.638
7.552537441,-0.09027498,0.2259866,-0.06250644,0.00306607,-0.9939142,-0.02509617,24.64261,27.27144,-3.844607,998.638
7.572353840,0.2768335,0.1653244,-0.1233393,0.003081889,-0.9958584,-0.02365821,24.65411,26.53805,-3.831647,998.639
7.592170239,0.2152895,0.04407381,-0.123068,-0.002288495,-0.995412,-0.02893598,24.65411,26.53805,-3.831647,998.639
7.611986637,0.03099099,-0.01647351,-0.183864,0.001146432,-0.9943947,-0.01833064,24.65411,26.53805,-3.831647,998.6412
7.631803513,0.1532454,0.1044794,-0.2446608,0.004555656,-0.9943736,-0.01690116,25.01736,26.89309,-4.662887,998.6412
7.651619911,0.153053,-0.01688428,-0.0607896,0.001616342,-0.9958706,-0.02558096,25.01736,26.89309,-4.662887,998.6412
7.671436310,0.09130069,0.1643922,-0.1828083,0.004053994,-0.9963426,-0.02463137,25.01736,26.89309,-4.662887,998.6418
7.691252709,0.2136728,0.04316302,-0.1214556,0.003115743,-0.9977896,-0.01691082,24.27699,26.89234,-4.280092,998.6418
7.711070061,0.02980115,0.2850106,-0.2435139,0.001169296,-1.000245,-0.02125688,24.27699,26.89234,-4.280092,998.6425
7.730886460,-0.03193004,0.1636685,-0.1819129,0.002105465,-0.991955,-0.01832336,24.64836,26.90474,-3.838127,998.6425
7.750702858,0.2129686,0.2239601,-0.2428107,0.0001737047,-0.9987997,-0.02558811,24.64836,26.90474,-3.838127,998.6391
7.770519257,-0.2160465,0.344803,-0.1201834,0.004053439,-0.9968318,-0.02559924,24.64836,26.90474,-3.838127,998.6391
7.790335655,0.2734986,0.04215244,-0.1198241,0.0006709797,-0.9978116,-0.02075898,24.65328,26.52963,-4.275001,998.6398
7.812629700,0.2730531,0.04205243,-0.1805139,0.004538638,-0.9992745,-0.02995855,24.65328,26.52963,-4.275001,998.6407
7.832446099,0.150016,0.04194686,-0.1190135,0.002088493,-0.9939228,-0.0265389,23.9007,27.25505,-4.285184,998.6407
7.852262497,0.2720677,-0.01872805,-0.05760983,0.002089069,-0.9919668,-0.02315011,23.9007,27.25505,-4.285184,998.6413
7.872078896,0.1494366,0.1022873,-0.1184741,0.001121262,-0.9963683,-0.02895956,23.9007,27.25505,-4.285184,998.6413
7.891896248,0.08773202,-0.01901387,-0.05711022,0.003565493,-0.995369,-0.02365834,24.64261,27.27144,-3.844607,998.6413
7.911712647,0.2710391,0.1019263,0.004445158,0.002640314,-0.9997398,-0.01691823,24.64261,27.27144,-3.844607,998.6418
7.931529045,0.3931715,-0.01918406,-0.05644049,0.004557228,-0.9987724,-0.02368125,25.03532,25.80022,-4.263429,998.6418
7.951345444,-0.03600776,0.1017186,-0.05604932,0.008935323,-0.9963046,-0.01934844,25.03532,25.80022,-4.263429,998.6408
7.971162319,0.2699231,0.0410266,-0.1171095,0.002115788,-0.9958587,-0.02172221,25.03532,25.80022,-4.263429,998.6408
7.990978718,-0.0363261,0.161854,0.005605392,0.002581357,-0.9953821,-0.02703177,25.0196,26.91594,-3.459497,998.6431
8.010795593,-0.036773,0.1616376,-0.1163305,0.0006644446,-0.9963497,-0.02026875,25.0196,26.91594,-3.459497,998.6431
8.030611992,0.3917997,0.1614598,0.06746813,0.002131562,-1.000736,-0.0251261,24.64836,26.90474,-3.838127,998.6424
8.050428867,-0.09837865,0.1008267,-0.1158047,0.001611978,-0.9953849,-0.02606113,24.64836,26.90474,-3.838127,998.6424
8.072722435,0.02363592,0.03993431,-0.1155353,0.002148535,-0.9987685,-0.01691055,24.64836,26.90474,-3.838127,998.639
8.092538834,0.2073152,0.1003469,-0.0541596,-0.0008027647,-0.9978297,-0.02509511,24.27782,26.90076,-3.836739,998.6379
8.112355232,-0.03777365,0.1002278,-0.1151285,0.001579763,-0.9934523,-0.03232584,24.27782,26.90076,-3.836739,998.6379
8.132172108,0.2064862,0.1606218,-0.05363859,0.005504252,-0.9953635,-0.02559964,24.27124,27.25904,-4.286572,998.6379
8.151988506,0.5126925,-0.08152842,-0.1758097,0.002587893,-0.9968441,-0.027522,24.27124,27.25904,-4.286572,998.6385
8.171805382,-0.1614131,-0.08160863,0.008080557,0.004026121,-0.9963625,-0.03283686,24.27124,27.25904,-4.286572,998.6385
8.191621780,0.328014,0.2813306,-0.113996,0.002604335,-0.9938992,-0.01785339,24.28275,26.52564,-4.273612,998.6392
8.211438656,0.08296789,0.03910545,-0.1746995,-0.000811494,-0.9968582,-0.02605543,24.28275,26.52564,-4.273612,998.6392
8.231255055,-0.2236958,-0.02154347,-0.1744528,0.00114149,-0.9958649,-0.02219959,24.64906,26.91196,-3.458109,998.6398
8.251071453,0.5109753,-0.02166028,-0.17413,0.0006502648,-0.9944043,-0.02122404,24.64906,26.91196,-3.458109,998.6398
8.270887852,-0.1628184,-0.2637327,-0.05146393,0.004044687,-0.9973269,-0.02898049,24.64906,26.91196,-3.458109,998.6404
8.290705204,-0.1021563,0.09924592,-0.05108509,0.002630499,-0.9982802,-0.01739336,24.27853,26.90798,-3.456721,998.6404
8.310521603,0.2652508,0.03854105,-0.1120042,-0.002269928,-0.9963765,-0.02507961,24.27853,26.90798,-3.456721,998.6414
8.330338001,-0.2248022,-0.1430559,-0.1728086,0.0006518364,-0.9988031,-0.02800414,24.64261,27.27144,-3.844607,998.6414
8.352631569,0.08100069,0.2199305,-0.2337326,0.0006398731,-0.9949006,-0.02508796,24.64261,27.27144,-3.844607,998.6437
8.372448444,0.203341,-0.08293822,-0.05004233,0.006004207,-0.9977956,-0.02561487,24.64261,27.27144,-3.844607,998.6426
8.392264843,0.01934176,-0.02242618,0.07261936,0.005033188,-0.9977995,-0.0251269,24.65411,26.53805,-3.831647,998.6426
8.412081242,0.1413372,0.03797188,-0.04942711,-0.0003437316,-0.9958912,-0.02991444,24.65411,26.53805,-3.831647,998.6426
8.431898594,0.2638721,0.03789554,-0.2327328,0.004554502,-0.9982854,-0.02367874,24.27782,26.90076,-3.836739,998.6449
8.451714993,-0.1040373,0.09835105,-0.11015,0.005019517,-0.9982981,-0.02995617,24.27782,26.90076,-3.836739,998.6449
8.471531391,0.3240316,0.03757259,-0.04873013,0.006012428,-0.9963232,-0.02078057,24.27782,26.90076,-3.836739,998.6432
8.491347790,-0.04358686,-0.02307245,0.07377473,0.002088469,-0.9953893,-0.02895983,24.64331,27.27865,-3.46459,998.6432
8.511164189,0.2008413,0.03742221,-0.1093604,0.001121861,-0.9929457,-0.02314984,24.64331,27.27865,-3.46459,998.6422
8.530980587,0.4455593,0.1583347,-0.3535628,0.001125094,-0.9958766,-0.02702634,25.01315,27.27542,-3.845995,998.6422
8.550797939,0.01657528,0.03715877,-0.1086589,0.005011365,-0.9953707,-0.02752769,25.01315,27.27542,-3.845995,998.6447
8.570614338,0.2611022,0.1580338,0.07508215,0.000143175,-0.9939328,-0.0265283,25.01315,27.27542,-3.845995,998.6447
8.590430737,0.2609657,0.09735236,-0.1082482,0.003079118,-0.9983047,-0.02849754,24.29003,26.17459,-3.443761,998.6454
8.612724781,-0.2292929,-0.023758,-0.1691049,0.0006628502,-0.9934175,-0.01590958,24.29003,26.17459,-3.443761,998.6476
8.632541180,0.3215381,0.2787703,0.0145575,-0.001318007,-0.9944308,-0.0279709,25.01315,27.27542,-3.845995,998.6476
8.652357578,0.1990329,-0.02399929,-0.2298793,0.0001491332,-0.9973506,-0.03040732,25.01315,27.27542,-3.845995,998.6476
8.672173977,-0.1687905,0.09702931,-0.1683893,0.0006546294,-0.99489,-0.02074388,25.01315,27.27542,-3.845995,998.6426
8.691991329,0.3210394,0.09684269,-0.1683314,0.0006115371,-0.9895433,-0.02457761,25.01315,27.27542,-3.845995,998.6426
8.711807728,-0.2300794,0.09669457,-0.1679472,-0.0008578431,-0.9900471,-0.02843358,25.01315,27.27542,-3.845995,998.6432
8.731624127,-0.169114,0.09669871,-0.1065167,0.000681303,-1.001715,-0.02415783,24.66632,25.81187,-3.438669,998.6432
8.751440525,0.6877907,-0.02441755,-0.1061341,0.001596159,-0.9934406,-0.02749909,24.66632,25.81187,-3.438669,998.6455
8.771256924,0.01363011,0.1569161,-0.1059445,0.005015752,-0.9943898,-0.02462661,24.66632,25.81187,-3.438669,998.6455
8.791074276,0.07434884,-0.206364,-0.1056594,0.006497118,-0.9963218,-0.02126589,24.28275,26.52564,-4.273612,998.6465
8.810890675,0.2581893,0.1565656,-0.166595,0.0006218376,-0.9949135,-0.03039739,24.28275,26.52564,-4.273612,998.6465
8.830707073,-0.2321535,0.09590677,-0.04402454,0.003575839,-0.9978059,-0.02463627,24.28275,26.52564,-4.273612,998.6471
8.850523949,0.3797836,-0.02516953,-0.1662773,0.003572029,-0.9968308,-0.02414857,24.65328,26.52963,-4.275001,998.6471
8.870340347,0.196014,0.03500737,-0.04363092,0.004515175,-0.9968469,-0.03284202,24.65328,26.52963,-4.275001,998.6477
8.892633915,-0.1106297,0.0346806,-0.165775,-0.0003301064,-0.9983258,-0.02992702,24.28275,26.52564,-4.273612,998.6477
8.912450314,0.5624855,0.2766824,-0.2266173,0.00355621,-0.9948866,-0.02558653,24.28275,26.52564,-4.273612,998.65
8.932267666,0.01129852,-0.02611996,-0.103973,0.003100342,-1.004156,-0.03190646,23.90728,26.89678,-3.835351,998.65
8.952084065,0.07148507,0.1553319,-0.226133,0.002087938,-0.9944119,-0.02750677,23.90728,26.89678,-3.835351,998.6523
8.971900463,0.3776458,0.09471404,0.01862376,0.002645764,-1.000714,-0.01692326,23.90728,26.89678,-3.835351,998.6523
8.991716862,0.01000821,0.03390662,0.01857699,0.002095582,-0.9948953,-0.02606126,24.65328,26.52963,-4.275001,998.655
9.011534214,0.1319887,-0.02678622,-0.1034299,0.0006459006,-0.9939186,-0.0217042,24.65328,26.52963,-4.275001,998.655
9.031350613,0.315473,0.09424938,-0.1643327,0.002147958,-1.000724,-0.02029934,24.65328,26.52963,-4.275001,998.6556
9.051167011,0.008917376,0.09408874,0.08046087,0.003091704,-0.9973179,-0.02318308,24.27782,26.90076,-3.836739,998.6556
9.070983410,0.1309776,0.1545552,-0.04166298,-0.0003240793,-0.9973437,-0.02654327,24.27782,26.90076,-3.836739,998.6505
9.090800285,0.1918246,0.03316072,0.01950815,0.001649112,-0.9973137,-0.01834838,24.28357,26.53406,-3.830259,998.6505
9.110617161,0.1303785,0.1540079,-0.1026545,0.004513072,-0.9914709,-0.02460887,24.28357,26.53406,-3.830259,998.6494
9.130433559,-0.1762505,0.1537922,-0.1024736,-0.005669847,-0.9954132,-0.02215998,24.28357,26.53406,-3.830259,998.6494
9.152727604,0.2519972,0.09303519,-0.04104098,0.00261572,-0.9997573,-0.02415836,24.28357,26.53406,-3.830259,998.6501
9.172544003,-0.1156711,0.03232693,-0.04078433,0.0001611872,-0.9953865,-0.0236398,24.28357,26.53406,-3.830259,998.6501
9.192360401,0.1290535,-0.08879873,-0.1629493,0.003076947,-0.9973285,-0.02752716,24.65328,26.52963,-4.275001,998.6506
9.212176800,0.1286142,-0.02842405,-0.04033038,0.001162205,-0.9992722,-0.02173452,24.65328,26.52963,-4.275001,998.6506
9.231994152,0.2509502,0.03200806,-0.1013532,0.0006480487,-0.9963614,-0.02509551,24.65328,26.52963,-4.275001,998.653
9.251810551,-0.05542423,0.03181373,-0.1011371,-0.002270528,-0.9997989,-0.03088932,25.01807,26.9003,-4.282869,998.653
9.271626949,0.2504594,0.03186681,-0.2233041,0.0006890152,-0.9977987,-0.01544955,25.01807,26.9003,-4.282869,998.6522
9.291443348,0.3728549,0.03180575,-0.1619266,0.003068264,-0.9934237,-0.02364563,24.28357,26.53406,-3.830259,998.6522
9.311260223,-0.3013225,0.09214362,0.144273,0.0006120001,-0.9949205,-0.03329344,24.28357,26.53406,-3.830259,998.6528
9.331077099,0.004524767,0.0314566,-0.22268,0.002163359,-0.9943581,-0.005303701,24.28357,26.53406,-3.830259,998.6528
9.350893498,-5.076934,0.03136995,-0.8953725,0.006988434,-0.9919158,-0.01255774,24.64906,26.91196,-3.458109,998.6552
9.370709896,22.66183,-44.80854,-1.812809,-0.07328035,-0.9820822,-0.002414291,24.64906,26.91196,-3.458109,998.6552
9.390526772,-12.79235,-48.49982,-1.690484,0.01583986,-1.012822,-0.01850571,24.65328,26.52963,-4.275001,998.6558
9.410343647,20.51866,8.079559,0.3890391,0.05007071,-1.021657,-0.1210663,24.65328,26.52963,-4.275001,998.6558
9.432636738,37.84773,6.687767,0.5725265,-0.01278539,-0.9814905,-0.08914181,24.65328,26.52963,-4.275001,998.6547
9.452454090,37.11293,-7.290668,-0.161423,0.05536292,-0.9929704,0.05185094,24.27054,27.25182,-4.66659,998.6547
9.472270489,-5.566802,-5.414773,0.1443893,-0.07212966,-0.9610723,0.2269595,24.27054,27.25182,-4.66659,998.6573
9.492086887,-37.59191,0.3339334,-0.161423,-0.00472005,-0.989558,-0.01923904,24.65104,26.50677,-5.47839,998.6573
9.511903286,-30.55006,5.477513,0.02206437,-0.0002862319,-0.988517,-0.0009161867,24.65104,26.50677,-5.47839,998.658
9.531720638,-32.14213,7.292894,0.02206437,0.006872509,-0.9959097,-0.0531226,24.65104,26.50677,-5.47839,998.658
9.551537037,4.72042,1.120599,-0.161423,0.04909456,-1.000154,-0.08668032,24.65762,26.1485,-5.028556,998.6586
9.571353436,2.271082,0.09188265,-0.1002605,-0.004751871,-0.9974027,-0.04148236,24.65762,26.1485,-5.028556,998.6586
9.591169834,5.822623,-0.02914276,0.02206437,0.006459316,-1.002215,-0.04205113,24.28779,26.15173,-4.64715,998.6608
9.610987187,7.292226,0.1523953,-0.03909808,0.002163337,-0.9958247,-0.007724625,24.28779,26.15173,-4.64715,998.6608
9.630803585,0.06667726,0.2129081,-0.1002605,-0.00168901,-0.993862,0.006786891,24.28779,26.15173,-4.64715,998.6631
9.650619984,-23.20204,-3.054778,0.08322683,-0.08801966,-0.9622208,-0.0133332,24.64611,26.88189,-5.041516,998.6631
9.670436382,-0.7293578,-1.360422,0.1443893,-0.004910289,-0.9926272,-0.08007123,24.64611,26.88189,-5.041516,998.6658
9.690253735,1.16888,-4.567595,-0.7730476,0.007845668,-0.9636387,0.000132435,25.02311,26.52639,-4.656407,998.6658
9.712547302,-3.546097,4.569822,0.4502016,0.006042335,-1.006079,-0.02807101,25.02311,26.52639,-4.656407,998.6641
9.732364178,-10.95535,-9.227074,3.324837,0.001087801,-1.004214,-0.05168555,25.02311,26.52639,-4.656407,998.6641
9.752180576,1.35258,0.8785478,-1.751647,0.05279115,-1.006772,-0.01191941,24.65411,26.53805,-3.831647,998.6664
9.771996975,1.107646,4.50931,1.428801,-0.03550147,-0.9912851,-0.06348582,24.65411,26.53805,-3.831647,998.6664
9.791813374,-2.443895,-0.9368333,0.08322683,-0.02021897,-1.010126,-0.03422287,25.01807,26.9003,-4.282869,998.6687
9.811630726,-3.729798,2.149315,2.16275,-0.03223786,-1.011556,0.004449842,25.01807,26.9003,-4.282869,998.6687
9.831447125,-9.118343,7.232381,2.774375,0.01619105,-0.9874951,-0.01644684,25.01807,26.9003,-4.282869,998.6694
9.851263523,4.904121,2.149315,-1.07886,-0.004306235,-0.9783633,-0.02207988,24.28275,26.52564,-4.273612,998.6694
9.871080876,6.557425,4.327772,-1.690484,0.02105494,-0.9840473,-0.01066361,24.28275,26.52564,-4.273612,998.6716
9.890897274,5.332755,3.662132,-1.201185,-0.01976516,-0.992547,-0.01482793,25.01736,26.89309,-4.662887,998.6716
9.910713673,-0.1170231,5.235462,-0.03909808,-0.007054552,-0.9631021,0.05282868,25.01736,26.89309,-4.662887,998.6725
9.930530071,0.3728446,4.75136,-0.161423,-0.003356644,-0.9857079,-0.04094725,25.01736,26.89309,-4.662887,998.6725
9.950346470,2.271082,-0.2106809,-1.140022,0.0006295047,-0.9939303,-0.02653095,24.28204,26.51843,-4.65363,998.6732
9.972640515,-10.64918,0.03136995,2.285075,0.007998644,-1.00215,-0.01840798,24.28204,26.51843,-4.65363,998.6732
9.992457390,-7.281339,3.662132,3.080187,-0.002844059,-0.9842198,-0.03080617,24.65411,26.53805,-3.831647,998.6755
10.012273788,2.148615,8.079559,-0.03909808,-0.005922898,-0.9960829,-0.09745985,24.65411,26.53805,-3.831647,998.6755
10.032090664,10.3539,4.388284,-2.913734,-0.006651029,-0.981247,-0.001326686,24.65411,26.53805,-3.831647,998.6744
10.051907063,9.006763,1.120599,-2.424434,0.007139208,-0.996208,0.02458562,24.66478,25.79624,-4.262041,998.6744
10.071723938,-4.4646,3.541107,1.061826,0.01499198,-1.002472,0.03512938,24.66478,25.79624,-4.262041,998.675
10.091540813,-1.586626,3.17803,0.8783388,-0.01283896,-0.9825066,-0.1065232,24.66057,26.17857,-3.445149,998.675
10.111357212,4.965354,-0.5737571,-2.302109,0.0001414665,-0.9983338,-0.03427375,24.66057,26.17857,-3.445149,998.6759
10.131174088,3.618218,-0.2711936,-0.8953725,0.002072097,-0.9939345,-0.03136566,24.66057,26.17857,-3.445149,998.6759
10.150990486,2.638483,0.2734208,-0.1002605,0.002558866,-1.000776,-0.04250506,25.02957,26.16691,-4.269909,998.6783
10.170807362,3.863152,0.09188265,-0.161423,-0.001830615,-0.9973853,-0.04053291,25.02957,26.16691,-4.269909,998.6783
10.190623760,4.230553,0.5759842,-0.2837479,-0.002304337,-0.9949344,-0.03279487,25.02957,26.16691,-4.269909,998.6772
10.210440636,0.6177785,0.5759842,0.02206437,-0.0007978459,-0.9978262,-0.02364708,24.65411,26.53805,-3.831647,998.6772
10.230257511,-2.137727,0.03136995,0.02206437,0.001140337,-0.9997767,-0.02897717,24.65411,26.53805,-3.831647,998.6739
10.252551079,-2.994996,-0.1501682,0.02206437,-0.0008131107,-0.9953927,-0.02411718,24.27782,26.90076,-3.836739,998.6739
10.272367477,-0.8518248,0.2734208,-0.03909808,0.001105419,-0.9958907,-0.03281844,24.27782,26.90076,-3.836739,998.6761
10.292183876,-2.260195,1.060086,0.511364,-0.000820823,-0.9993092,-0.03282546,24.27782,26.90076,-3.836739,998.6761
10.312001228,-2.015261,-0.1501682,0.3278767,0.004004851,-0.9934444,-0.03426979,24.29507,25.80067,-3.817299,998.6767
10.331817627,-5.628036,-0.5132444,0.3890391,0.00159228,-0.9968655,-0.03427415,24.29507,25.80067,-3.817299,998.6767
10.351634026,-4.4646,-6.201439,1.122989,-0.006617775,-0.9866008,-0.0003890092,25.0196,26.91594,-3.459497,998.6773
10.371450424,0.3116111,-1.723498,-0.3449104,-0.002870406,-0.991572,-0.05063359,25.0196,26.91594,-3.459497,998.6773
10.391267777,2.883417,-1.723498,-0.83421,0.001627266,-0.9963517,-0.0231701,25.0196,26.91594,-3.459497,998.6783
10.411084175,1.413813,0.2734208,-0.3449104,0.003093875,-0.9982941,-0.02415346,25.02465,26.54203,-3.833035,998.6783
10.430900574,0.7402455,1.060086,-0.161423,0.004528891,-0.9934149,-0.0231709,25.02465,26.54203,-3.833035,998.6789
10.450717926,-0.1782566,0.4549589,0.08322683,-0.005298221,-0.9910928,-0.04868713,24.65411,26.53805,-3.831647,998.6789
10.470534325,1.536281,-0.2711936,-0.5283977,0.0005792082,-0.9949439,-0.04294694,24.65411,26.53805,-3.831647,998.6778
10.490350723,0.7402455,-0.1501682,-0.4672353,0.007479591,-0.9977764,-0.02079606,24.65411,26.53805,-3.831647,998.6778
10.512644768,-2.137727,0.1523953,0.7560139,-0.004286834,-0.9959488,-0.04533886,24.27782,26.90076,-3.836739,998.6751
10.532461167,0.06667726,-0.08965546,-0.3449104,-0.003293945,-0.9954405,-0.03858419,24.27782,26.90076,-3.836739,998.6751
10.552278042,1.719981,0.09188265,-0.4672353,0.004491135,-0.9963753,-0.03911429,24.65482,26.54526,-3.451629,998.6757
10.572094917,-0.6681243,-0.02914276,0.02206437,-0.002723442,-0.9948889,-0.01300253,24.65482,26.54526,-3.451629,998.6757
10.591911316,-5.321868,-0.02914276,0.8783388,0.004545728,-1.000247,-0.0294809,24.65482,26.54526,-3.451629,998.6706
10.611728192,-5.934203,1.725726,1.612288,-0.001821886,-0.9983568,-0.03957259,24.28204,26.51843,-4.65363,998.6706
10.631544590,-3.362397,3.541107,0.9395012,-0.006738065,-0.9901089,-0.04143402,24.28204,26.51843,-4.65363,998.6701
10.651361466,-0.7905913,2.451878,-0.03909808,9.177027E-05,-0.995925,-0.04488003,24.27782,26.90076,-3.836739,998.6701
10.671177864,0.6177785,-0.02914276,-0.5283977,-0.000867194,-0.9939649,-0.03762454,24.27782,26.90076,-3.836739,998.6708
10.690994740,-0.7293578,-0.2106809,-0.3449104,-0.001342623,-0.995915,-0.03763195,24.27782,26.90076,-3.836739,998.6708
10.710811615,-0.8518248,-0.08965546,-0.1002605,-0.001343664,-0.9924936,-0.03230491,24.28357,26.53406,-3.830259,998.6697
10.730628014,-2.443895,0.09188265,0.02206437,0.001564938,-0.9978628,-0.04393269,24.28357,26.53406,-3.830259,998.6697
10.750444889,-1.219226,-0.2106809,-0.4672353,-0.001836043,-0.9949448,-0.03810695,25.02535,26.54925,-3.453018,998.6686
10.770261288,-3.974732,0.2129081,0.08322683,0.002081312,-0.9988165,-0.03670024,25.02535,26.54925,-3.453018,998.6686
10.792555332,-7.036406,0.8180351,0.5725265,-0.0003497586,-0.9968732,-0.0332982,25.02535,26.54925,-3.453018,998.6692
10.812371731,-7.281339,4.872386,0.2055517,0.00401185,-1.000284,-0.04347584,24.65482,26.54526,-3.451629,998.6692
10.832188130,-2.505128,2.754441,0.2055517,-0.007335954,-0.9945911,-0.08151607,24.65482,26.54526,-3.451629,998.6701
10.852005482,-0.2394901,-0.08965546,-0.4672353,0.001563853,-0.9973747,-0.0434475,24.65553,26.55248,-3.071612,998.6701
10.871821881,0.4953116,-0.08965546,-0.161423,-0.0004311613,-0.9949759,-0.05404318,24.65553,26.55248,-3.071612,998.6708
10.891638279,-0.2394901,-0.1501682,-0.161423,0.002016282,-0.9983741,-0.05503939,24.65553,26.55248,-3.071612,998.6708
10.911455631,0.6790119,0.2734208,0.3278767,-0.0009360568,-0.994014,-0.05789691,24.65553,26.55248,-3.071612,998.6658
10.931272030,3.312051,-0.1501682,-0.4060728,5.678521E-05,-0.9964389,-0.05598408,24.65553,26.55248,-3.071612,998.6658
10.951088429,3.679452,-0.3317063,-0.6507226,0.001065447,-1.000808,-0.0526333,24.65482,26.54526,-3.451629,998.6664
10.970904827,3.679452,0.03136995,-0.2837479,-0.00282616,-0.9930069,-0.04002229,24.65482,26.54526,-3.451629,998.6664
10.990722179,0.1279107,0.09188265,-0.2837479,0.0006174502,-0.9958944,-0.03329847,24.65482,26.54526,-3.451629,998.667
11.010538578,0.1891442,-0.1501682,0.2055517,-0.0009213466,-0.9969367,-0.05839467,25.02465,26.54203,-3.833035,998.667
