Time (s),Gyroscope X (deg/s),Gyroscope Y (deg/s),Gyroscope Z (deg/s),Accelerometer X (g),Accelerometer Y (g),Accelerometer Z (g),Magnetometer X (uT),Magnetometer Y (uT),Magnetometer Z (uT),Barometer (hPa)
0.000000000,0.5038673,0.0009917939,-0.2209152,0.1465567,0.05277269,0.9897401,-36.69097,5.061347,-21.16309,1011.525
0.007430553,0.3201669,0.0009917939,-0.465565,0.1508994,0.05717063,0.9868428,-36.30822,4.339157,-20.77151,1011.527
0.027246475,0.5038673,0.1825299,-0.3432401,0.1537611,0.06545641,0.9839736,-36.30822,4.339157,-20.77151,1011.527
0.047062397,0.1364664,0.0009917939,-0.1597527,0.1542333,0.06887092,0.9854367,-36.30822,4.339157,-20.77151,1011.524
0.066877365,-0.04723396,0.3035553,-0.09859026,0.1513557,0.06106268,0.9844468,-37.05576,4.69067,-21.15523,1011.524
0.086693287,-0.04723396,0.2430426,-0.09859026,0.1532808,0.06350268,0.9825181,-37.05576,4.69067,-21.15523,1011.527
0.106509209,0.0139995,0.2430426,-0.09859026,0.1499251,0.06156432,0.9936283,-37.05576,4.69067,-21.15523,1011.527
0.126324177,0.2589334,0.1825299,-0.2209152,0.1504419,0.05230004,0.987303,-36.68522,4.694652,-21.15661,1011.528
0.146140099,0.3814003,0.0615045,-0.2820776,0.1499059,0.05910626,0.9839621,-36.68522,4.694652,-21.15661,1011.528
0.165956020,0.5038673,0.0615045,-0.465565,0.1572069,0.06012607,0.9873061,-37.05505,4.697887,-20.77521,1011.529
0.185771942,0.2589334,0.0009917939,-0.2209152,0.1538108,0.06011431,0.989738,-37.05505,4.697887,-20.77521,1011.529
0.205586910,-0.04723396,0.1825299,0.02373465,0.153778,0.06155751,0.9825054,-37.05505,4.697887,-20.77521,1011.527
0.225402832,0.1364664,0.364068,-0.1597527,0.1523229,0.06204157,0.9844466,-37.05576,4.69067,-21.15523,1011.527
0.245218277,0.0139995,0.4245807,-0.03742781,0.1538064,0.0576668,0.9844159,-37.05576,4.69067,-21.15523,1011.53
0.267510891,0.07523298,0.1220172,-0.2820776,0.1523611,0.05815789,0.9892532,-36.31468,4.698635,-21.158,1011.53
0.287326813,0.3814003,0.0009917939,-0.1597527,0.1528305,0.05765942,0.9834559,-36.31468,4.698635,-21.158,1011.529
0.307141781,0.8100346,0.364068,-0.6490523,0.1504331,0.04887165,0.9790799,-36.31468,4.698635,-21.158,1011.529
0.326957703,1.116202,0.3035553,-0.7713773,0.1509096,0.0518004,0.981023,-36.67947,4.327957,-21.15014,1011.526
0.346773625,1.116202,0.3035553,-0.7713773,0.1484355,0.06349041,0.987854,-36.67947,4.327957,-21.15014,1011.526
0.366588593,0.993735,0.1220172,-0.8937021,0.1571845,0.0635322,0.9863584,-37.36525,4.680133,-21.53409,1011.525
0.386404514,0.8100346,0.4850934,-0.6490523,0.1522989,0.06691316,0.9854372,-37.36525,4.680133,-21.53409,1011.525
0.406220436,0.8712681,0.364068,-0.5267274,0.1513437,0.06349847,0.9849421,-37.36525,4.680133,-21.53409,1011.526
0.426035881,0.5038673,0.364068,-0.4044026,0.1479312,0.06640827,0.9873892,-37.0493,4.331192,-20.76873,1011.526
0.445851326,0.2589334,0.1825299,-0.4044026,0.1533163,0.06010593,0.9873273,-37.0493,4.331192,-20.76873,1011.527
0.465667248,0.2589334,0.0615045,-0.1597527,0.1488924,0.0664051,0.9840052,-37.05001,4.323974,-21.14875,1011.527
0.485482693,-0.04723396,0.1220172,-0.1597527,0.1532923,0.06351089,0.9858968,-37.05001,4.323974,-21.14875,1011.53
0.505298615,0.0139995,0.1825299,-0.09859026,0.1532836,0.06594903,0.9873575,-37.05001,4.323974,-21.14875,1011.53
0.527591229,0.0139995,0.1825299,0.02373465,0.1537917,0.06205615,0.9873347,-37.34729,3.587265,-21.13463,1011.529
0.547406197,0.1976999,-0.1200336,-0.3432401,0.1542507,0.06399465,0.9825154,-37.34729,3.587265,-21.13463,1011.529
0.567222119,0.2589334,0.0009917939,-0.2209152,0.1513573,0.06253049,0.9873505,-37.05001,4.323974,-21.14875,1011.528
0.587038040,0.1364664,0.1220172,-0.2820776,0.1547436,0.06400185,0.9844434,-37.05001,4.323974,-21.14875,1011.528
0.606853485,0.1364664,0.1220172,-0.09859026,0.1523043,0.06300604,0.9805903,-37.05001,4.323974,-21.14875,1011.531
0.626668930,0.4426338,0.1220172,-0.1597527,0.1533174,0.06108447,0.989263,-36.68593,4.687436,-21.53663,1011.531
0.646484852,0.3201669,0.2430426,-0.1597527,0.1518393,0.06448539,0.9892886,-36.68593,4.687436,-21.53663,1011.532
0.666300297,0.3814003,0.3035553,-0.4044026,0.1518393,0.06155213,0.9844467,-36.68451,4.701869,-20.7766,1011.532
0.686116219,0.2589334,0.0009917939,-0.3432401,0.148888,0.06542422,0.981104,-36.68451,4.701869,-20.7766,1011.532
0.705931664,0.1976999,0.0009917939,-0.2209152,0.1513426,0.06398658,0.9854274,-36.68451,4.701869,-20.7766,1011.532
0.725747109,0.1976999,0.2430426,0.02373465,0.1513317,0.06593427,0.9854375,-36.31468,4.698635,-21.158,1011.533
0.745563030,0.07523298,0.0615045,-0.09859026,0.1528098,0.06399999,0.9878327,-36.31468,4.698635,-21.158,1011.533
0.765378952,0.1364664,0.2430426,-0.09859026,0.1556934,0.06839038,0.9849434,-37.05576,4.69067,-21.15523,1011.534
0.785193920,-0.04723396,0.1825299,-0.09859026,0.1518115,0.06446547,0.9810831,-37.05576,4.69067,-21.15523,1011.534
0.807487011,-0.04723396,0.2430426,-0.03742781,0.1552283,0.06253656,0.9815372,-37.05576,4.69067,-21.15523,1011.534
0.827302456,0.0139995,0.1825299,-0.1597527,0.1518241,0.06691884,0.9888185,-37.35879,4.320654,-21.14759,1011.534
0.847117901,-0.04723396,0.2430426,-0.1597527,0.1513578,0.05861986,0.9810556,-37.35879,4.320654,-21.14759,1011.535
0.866933823,-0.04723396,0.1220172,0.02373465,0.1547753,0.06158011,0.9897403,-36.68451,4.701869,-20.7766,1011.535
0.886749745,0.0139995,0.364068,-0.03742781,0.1498984,0.06252293,0.9873585,-36.68451,4.701869,-20.7766,1011.538
0.906564713,0.1976999,0.2430426,-0.2209152,0.1493962,0.0644646,0.9859231,-36.68451,4.701869,-20.7766,1011.538
0.926380635,0.2589334,0.1220172,-0.2209152,0.1513573,0.06106386,0.9849296,-37.05154,4.308338,-21.97212,1011.537
0.946196556,0.2589334,0.1825299,-0.2820776,0.1484612,0.06008662,0.9897672,-37.05154,4.308338,-21.97212,1011.537
0.966012478,0.1364664,0.0615045,-0.1597527,0.1518169,0.06495825,0.9834989,-37.05154,4.308338,-21.97212,1011.533
0.985827446,-0.04723396,0.1220172,-0.09859026,0.148924,0.06251673,0.986881,-37.05154,4.308338,-21.97212,1011.533
1.005643368,-0.04723396,0.2430426,-0.09859026,0.1498787,0.06250887,0.9815663,-37.05154,4.308338,-21.97212,1011.534
1.025459290,0.3201669,0.0009917939,-0.3432401,0.1498934,0.06251942,0.9859104,-35.93559,3.939157,-22.72984,1011.534
1.045274735,0.2589334,0.0615045,-0.2820776,0.1528256,0.0620558,0.9892707,-35.93559,3.939157,-22.72984,1011.535
1.065090179,0.07523298,0.0615045,-0.465565,0.1508557,0.06202815,0.9820411,-35.93559,3.939157,-22.72984,1011.535
1.087383270,0.3814003,0.1220172,-0.4044026,0.1561917,0.06449046,0.9820246,-35.19605,3.931486,-23.55598,1011.536
1.107199192,0.1976999,0.3035553,-0.2820776,0.1532923,0.06204426,0.9834759,-35.19605,3.931486,-23.55598,1011.536
1.127014160,0.07523298,0.1825299,-0.2209152,0.1542742,0.06156705,0.9853989,-35.19101,3.557573,-23.92952,1011.538
1.146830082,0.1364664,0.1825299,-0.2820776,0.1484399,0.06153802,0.9859133,-35.19101,3.557573,-23.92952,1011.538
1.166645527,0.5038673,0.1220172,-0.2820776,0.1522901,0.06348476,0.977214,-35.19101,3.557573,-23.92952,1011.537
1.186461449,0.6263342,0.2430426,-0.465565,0.1508671,0.05910309,0.9805781,-34.50185,2.885385,-24.3002,1011.537
1.206276894,0.6263342,0.2430426,-0.4044026,0.1503966,0.05862303,0.9844396,-34.50185,2.885385,-24.3002,1011.539
1.226092339,0.6875677,0.364068,-0.4044026,0.1528071,0.06595355,0.9902561,-34.50114,2.892601,-23.92019,1011.539
1.245908260,0.4426338,0.0615045,-0.5267274,0.1537666,0.06448256,0.9839686,-34.50114,2.892601,-23.92019,1011.536
1.265724182,0.6263342,0.3035553,-0.2820776,0.1508911,0.05569814,0.9820084,-34.50114,2.892601,-23.92019,1011.536
1.285540104,0.9325016,0.0615045,-0.5267274,0.1493706,0.06933503,0.9864309,-34.49117,2.143575,-24.7306,1011.537
1.305355072,0.6875677,0.1220172,-0.465565,0.1547164,0.0688711,0.9844685,-34.49117,2.143575,-24.7306,1011.537
1.367279053,0.4426338,0.364068,-0.3432401,0.1474286,0.07079393,0.9898279,-34.80417,2.522587,-23.91255,1011.536
1.387094975,0.5038673,-0.05952091,-0.2820776,0.1489207,0.05958112,0.9810739,-34.49035,2.151994,-24.28724,1011.536
1.406910896,0.2589334,0.3035553,-0.3432401,0.1528021,0.06448339,0.9863873,-34.49035,2.151994,-24.28724,1011.538
1.426726818,0.0139995,0.0615045,-0.5267274,0.1508279,0.06640814,0.9810985,-34.11406,1.789282,-24.28215,1011.538
1.446541786,0.9325016,-0.241059,-0.7102148,0.1134821,0.1040739,0.9308151,-34.11406,1.789282,-24.28215,1011.539
1.466357708,0.7488011,0.2430426,-0.3432401,0.1662099,0.08933663,0.9656863,-34.11406,1.789282,-24.28215,1011.539
1.486173153,0.1364664,0.1220172,-0.09859026,0.1444086,0.08634987,0.9855802,-34.12064,2.147558,-24.73199,1011.536
1.505989075,-0.1084674,0.0615045,-0.1597527,0.1478168,0.08832574,0.9899158,-34.12064,2.147558,-24.73199,1011.536
1.525804997,-0.6595686,0.1825299,-0.2820776,0.1510069,0.0479589,1.003206,-34.11981,2.155977,-24.28863,1011.536
1.545619965,-0.1697009,0.3035553,0.08489711,0.1567423,0.05182826,0.9800258,-34.11981,2.155977,-24.28863,1011.536
1.565435887,0.2589334,0.1825299,-0.1597527,0.1552266,0.06253539,0.9810545,-34.11981,2.155977,-24.28863,1011.537
1.585251808,0.3201669,0.1220172,-0.2820776,0.147452,0.06543306,0.9878694,-34.47321,1.050705,-24.33114,1011.537
1.607544422,0.3814003,0.3035553,-0.2209152,0.1528076,0.06350955,0.9863822,-34.47321,1.050705,-24.33114,1011.539
1.627359867,0.1364664,0.1220172,-0.2209152,0.1533141,0.06108212,0.9882976,-33.73859,1.418149,-24.72042,1011.539
1.647175789,0.1364664,0.1220172,-0.09859026,0.1542485,0.0635042,0.9810648,-33.73859,1.418149,-24.72042,1011.539
1.666991711,-0.1084674,0.1825299,-0.09859026,0.1537781,0.06449077,0.9873473,-33.73859,1.418149,-24.72042,1011.539
1.686806679,0.1976999,0.3035553,-0.2820776,0.1523169,0.06399278,0.9859046,-34.48893,2.166428,-23.52721,1011.535
1.706622601,-0.04723396,0.0615045,0.02373465,0.1518453,0.06253418,0.9878304,-34.48893,2.166428,-23.52721,1011.535
1.726438523,0.0139995,0.1220172,-0.1597527,0.1513616,0.05764484,0.9805679,-33.74281,1.800481,-23.90352,1011.536
1.746254444,0.1364664,0.1220172,-0.03742781,0.151824,0.06545221,0.9863976,-33.74281,1.800481,-23.90352,1011.536
1.766069889,0.1364664,0.1220172,-0.09859026,0.1532612,0.06788852,0.9839888,-33.74281,1.800481,-23.90352,1011.538
1.785885811,0.07523298,0.364068,0.02373465,0.1533185,0.062063,0.9911988,-33.74856,2.167177,-23.91001,1011.538
1.805700779,-0.04723396,0.1825299,-0.2209152,0.1552267,0.06546865,0.9858963,-33.74856,2.167177,-23.91001,1011.535
1.825516701,0.0139995,0.364068,-0.09859026,0.1508694,0.06252679,0.9868704,-34.11406,1.789282,-24.28215,1011.535
1.845332623,0.3814003,0.1220172,-0.09859026,0.1537584,0.06154344,0.9767134,-34.11406,1.789282,-24.28215,1011.536
1.865148545,0.0139995,0.3035553,-0.09859026,0.1532901,0.06302045,0.9844463,-34.11406,1.789282,-24.28215,1011.536
1.887440682,0.1976999,0.2430426,-0.2209152,0.1513273,0.06495339,0.9825363,-34.49046,2.150792,-24.35058,1011.538
1.907256603,0.0139995,0.1220172,-0.09859026,0.1537721,0.06497536,0.9863845,-34.49046,2.150792,-24.35058,1011.538
1.927072525,-0.04723396,0.2430426,-0.2209152,0.153314,0.0552156,0.978614,-33.73706,1.433786,-23.89705,1011.535
1.946888447,0.3814003,0.1825299,-0.09859026,0.1537808,0.06547048,0.9897658,-33.73706,1.433786,-23.89705,1011.535
1.966703415,0.2589334,0.0615045,-0.2820776,0.1503334,0.07079966,0.9859505,-33.73706,1.433786,-23.89705,1011.534
1.986519337,0.2589334,0.2430426,-0.03742781,0.1503159,0.06980941,0.9791881,-34.12486,2.529889,-23.9151,1011.534
2.006335258,-0.1084674,0.1825299,0.02373465,0.1523316,0.05960343,0.9829861,-34.12486,2.529889,-23.9151,1011.532
2.026150703,0.1976999,0.1220172,-0.1597527,0.1498923,0.06154089,0.9839747,-34.7935,1.780777,-24.34295,1011.532
2.045966625,0.1364664,-0.1200336,-0.1597527,0.1566999,0.06353085,0.9868436,-34.7935,1.780777,-24.34295,1011.533
2.065782547,0.0139995,0.0615045,-0.2820776,0.150902,0.05081718,0.9771566,-34.7935,1.780777,-24.34295,1011.533
2.085597515,0.6263342,0.0009917939,-0.3432401,0.1552714,0.05718977,0.985371,-34.47896,1.417401,-24.33762,1011.534
2.105413437,0.9325016,0.364068,-0.5878899,0.1498918,0.06105161,0.9830068,-34.47896,1.417401,-24.33762,1011.534
2.125229359,1.177435,0.1825299,-1.138352,0.1450252,0.06395737,0.9869097,-34.47896,1.417401,-24.33762,1011.53
2.147521973,1.912237,0.364068,-1.749977,0.1552812,0.0571968,0.9882669,-34.11335,1.796499,-23.90214,1011.53
2.167337418,4.300342,0.364068,-2.116951,0.1455409,0.05518118,0.9810697,-34.11335,1.796499,-23.90214,1011.533
2.187153339,2.708272,0.3035553,-2.912063,0.1416378,0.05710758,0.9806184,-34.48471,1.784096,-24.3441,1011.533
2.206969261,2.708272,0.0009917939,-3.401363,0.1479078,0.06883586,0.9845057,-34.48471,1.784096,-24.3441,1011.533
2.226785183,2.524572,0.4245807,-3.462525,0.1542595,0.06742304,0.9907385,-34.11418,1.788079,-24.34549,1011.533
2.246600628,2.340871,0.0615045,-3.768338,0.1508739,0.07084084,1.001876,-34.11418,1.788079,-24.34549,1011.536
2.266416073,3.626774,0.2430426,-3.707175,0.1391561,0.07368089,0.9932667,-34.11418,1.788079,-24.34549,1011.536
2.286231995,6.627214,1.271759,-3.279038,0.1572656,0.07287868,1.025503,-34.49046,2.150792,-24.35058,1011.533
2.306047440,9.443954,2.724063,-1.933464,0.1645052,0.06749933,1.000336,-34.49046,2.150792,-24.35058,1011.533
2.325863361,9.627654,2.360987,-1.383002,0.1521015,0.09659329,0.9764197,-34.49046,2.150792,-24.35058,1011.532
2.345679283,6.259813,1.271759,-1.749977,0.1486896,0.09852571,0.9774137,-34.47896,1.417401,-24.33762,1011.532
2.365495205,5.218844,1.271759,-1.321839,0.1493067,0.07222259,0.9724485,-34.47896,1.417401,-24.33762,1011.528
2.385310650,4.851443,1.513809,-0.9548646,0.1496628,0.09608675,0.9735344,-33.73789,1.425366,-24.3404,1011.528
2.405126095,2.463338,0.7876569,-0.6490523,0.1525682,0.09951501,0.9754668,-33.73789,1.425366,-24.3404,1011.527
2.427419186,0.5651007,0.2430426,-0.3432401,0.1535905,0.09271131,0.978805,-33.73789,1.425366,-24.3404,1011.527
2.447235108,-0.965736,0.0009917939,-0.03742781,0.1481339,0.1038513,0.9658598,-34.47896,1.417401,-24.33762,1011.53
2.467050552,-2.741507,-0.1805463,0.3295469,0.1520497,0.09997832,0.9667839,-34.47896,1.417401,-24.33762,1011.53
2.486865997,-4.578511,-0.4831098,0.5741968,0.1413548,0.1023705,0.9721642,-34.47463,1.036272,-25.09118,1011.53
2.506681442,-6.354281,-0.9672114,0.8188466,0.1443138,0.1009482,0.9817942,-34.47463,1.036272,-25.09118,1011.53
2.526497364,-7.578951,-1.330288,0.7576842,0.1492823,0.0854047,0.9869966,-34.47463,1.036272,-25.09118,1011.529
2.546313286,-8.068818,-1.572338,1.002334,0.1463495,0.08537905,0.9826685,-34.10338,1.047472,-24.71255,1011.529
2.566129208,-8.681153,-1.814389,1.002334,0.1537617,0.06447905,0.9825205,-34.10338,1.047472,-24.71255,1011.531
2.585945130,-8.130052,-1.995928,1.063496,0.1498896,0.06202781,0.9839772,-33.73859,1.418149,-24.72042,1011.531
2.605760574,-0.9045025,0.1220172,1.858608,0.1404328,0.08920207,0.9653441,-33.73859,1.418149,-24.72042,1011.532
2.625576019,-2.496573,0.3035553,1.124659,0.1527295,0.06980909,0.9738653,-33.73859,1.418149,-24.72042,1011.532
2.645391464,-2.863973,0.0009917939,0.6965217,0.1625161,0.06354699,0.9810198,-34.48318,1.799733,-23.52073,1011.529
2.665207386,-1.761771,0.0009917939,0.8800091,0.1596778,0.05576688,0.9916143,-34.48318,1.799733,-23.52073,1011.529
2.687500477,-0.8432691,0.3035553,0.8800091,0.1542098,0.06836525,0.9777113,-34.47967,1.410184,-24.71764,1011.528
2.707315922,-1.21067,0.2430426,0.6353592,0.154205,0.0756949,0.9883679,-34.47967,1.410184,-24.71764,1011.528
2.727131367,-1.700538,-0.05952091,0.5130343,0.1527804,0.0683788,0.9864074,-34.47967,1.410184,-24.71764,1011.53
2.746947289,-1.088203,0.3035553,1.063496,0.150823,0.07080452,0.9869132,-33.74281,1.800481,-23.90352,1011.53
2.766763210,-1.149436,0.1220172,0.7576842,0.1512749,0.07078242,0.9767744,-33.74281,1.800481,-23.90352,1011.529
2.786579132,-1.639304,0.1220172,0.4518718,0.1607133,0.05337245,1.006077,-34.12568,2.52147,-24.35845,1011.529
2.806395054,-1.149436,0.4245807,0.6965217,0.152862,0.04790452,0.9766482,-34.12568,2.52147,-24.35845,1011.526
2.826210499,-1.21067,0.3035553,0.6353592,0.1527787,0.06691099,0.9835037,-34.12568,2.52147,-24.35845,1011.526
2.846026421,-1.39437,0.1825299,0.6965217,0.1489224,0.06104893,0.9839774,-34.10843,1.421384,-24.33901,1011.525
2.865841389,-1.516837,0.0615045,0.6353592,0.1469203,0.06588701,0.975325,-34.10843,1.421384,-24.33901,1011.525
2.885657311,-2.496573,-0.4225971,0.08489711,0.1327247,0.08432536,0.9788762,-33.74364,1.792062,-24.34688,1011.526
2.905473232,-1.149436,0.6061188,0.7576842,0.1618062,0.01630911,0.9802985,-33.74364,1.792062,-24.34688,1011.526
2.925289154,-1.823005,0.1220172,0.5130343,0.1690457,0.03977314,1.002583,-33.74364,1.792062,-24.34688,1011.521
2.945104599,-1.149436,0.3035553,0.6353592,0.1582345,0.04208209,0.9736928,-34.48471,1.784096,-24.3441,1011.521
2.967397213,-1.02697,0.3035553,0.6353592,0.1567091,0.06158198,0.986351,-34.48471,1.784096,-24.3441,1011.521
2.987213135,0.07523298,0.1825299,0.6353592,0.1513469,0.05910093,0.9786447,-34.11993,2.154775,-24.35197,1011.521
3.007029057,-0.9045025,0.2430426,0.4518718,0.1537846,0.06449545,0.989278,-34.11993,2.154775,-24.35197,1011.52
3.026844502,-0.8432691,0.2430426,0.5130343,0.1503994,0.05960274,0.986858,-34.11993,2.154775,-24.35197,1011.52
3.046660423,-0.9045025,0.4850934,0.7576842,0.155706,0.06791048,0.9878369,-34.48471,1.784096,-24.3441,1011.52
3.066476345,-1.02697,0.5456061,0.9411715,0.1503858,0.06350399,0.9892915,-34.48471,1.784096,-24.3441,1011.52
3.086292267,-1.333137,0.6061188,1.063496,0.1499244,0.05374189,0.9805557,-34.10913,1.414167,-24.71903,1011.519
3.106108189,-0.8432691,0.4850934,1.002334,0.1538473,0.0532962,0.9892201,-34.10913,1.414167,-24.71903,1011.519
3.125923157,-0.965736,0.3035553,0.9411715,0.1548243,0.05134884,0.9872741,-34.10913,1.414167,-24.71903,1011.52
3.145739079,-0.3534013,0.1825299,0.5130343,0.1489873,0.05327337,0.9902119,-34.12134,2.140341,-25.112,1011.52
3.165554524,-0.1697009,0.1220172,0.1460596,0.1519096,0.05133609,0.9882553,-34.12134,2.140341,-25.112,1011.517
3.185370445,-0.1697009,0.1825299,0.2683845,0.1518595,0.05912219,0.9863649,-34.49046,2.150792,-24.35058,1011.517
3.205186367,-0.2309344,0.2430426,0.6353592,0.1557265,0.05570339,0.9737765,-34.49046,2.150792,-24.35058,1011.517
3.227478981,-0.6595686,0.2430426,0.8188466,0.1538032,0.06206435,0.9907134,-34.49046,2.150792,-24.35058,1011.518
3.247294426,-0.8432691,0.4850934,1.002334,0.1489676,0.05472594,0.9868408,-34.49046,2.150792,-24.35058,1011.519
3.267110348,-0.5371017,0.7271442,1.002334,0.1518584,0.06107692,0.989271,-34.49046,2.150792,-24.35058,1011.519
3.286926270,-1.02697,0.3035553,0.8188466,0.1509702,0.04597722,0.9891983,-34.49693,2.51027,-24.73708,1011.515
3.306742191,-0.4146348,0.4245807,0.6965217,0.1480424,0.04595509,0.9863182,-34.49693,2.51027,-24.73708,1011.515
3.326558113,-0.1697009,0.1220172,0.3295469,0.1489971,0.05034713,0.9882662,-34.49693,2.51027,-24.73708,1011.516
3.346373558,0.1976999,0.0615045,0.08489711,0.1509375,0.05328695,0.9916494,-34.13214,2.880948,-24.74495,1011.516
3.366189480,0.1976999,0.0009917939,-0.2209152,0.1489976,0.04936977,0.9868131,-34.13214,2.880948,-24.74495,1011.518
3.386005402,0.6875677,-0.3015717,-0.4044026,0.1484944,0.0547328,0.9907048,-34.13214,2.880948,-24.74495,1011.518
3.405821323,0.9325016,-0.1805463,-0.6490523,0.1538217,0.05963324,0.9921489,-34.11418,1.788079,-24.34549,1011.515
3.425636292,0.8100346,-0.3620844,-0.5878899,0.1537949,0.05912523,0.9834582,-34.11418,1.788079,-24.34549,1011.515
3.445452213,0.3814003,-0.1805463,-0.3432401,0.1562004,0.06058569,0.9781431,-34.49622,2.517487,-24.35706,1011.515
3.465267658,-0.1084674,0.0009917939,-0.09859026,0.1581724,0.05817051,0.9819813,-34.49622,2.517487,-24.35706,1011.516
3.487561226,-0.4146348,0.1220172,0.207222,0.1537999,0.06059537,0.9873272,-33.38461,2.529435,-24.36123,1011.517
3.507376671,-0.9045025,0.364068,0.3907094,0.1557539,0.05670067,0.983435,-33.38461,2.529435,-24.36123,1011.517
3.527192593,-1.088203,0.3035553,0.9411715,0.1552311,0.06644954,0.9887975,-33.38461,2.529435,-24.36123,1011.513
3.547007561,-1.39437,0.0615045,1.185821,0.1513966,0.05962535,0.9940928,-34.49622,2.517487,-24.35706,1011.513
3.566823483,-2.067938,0.1220172,1.369309,0.1518656,0.06597077,0.9994324,-34.49622,2.517487,-24.35706,1011.516
3.586639404,-4.333577,0.7876569,1.124659,0.1465351,0.06546788,1.004286,-34.49622,2.517487,-24.35706,1011.516
3.606455326,-6.048114,1.695347,0.6965217,0.151408,0.04936713,0.9805251,-35.16896,2.151909,-23.90468,1011.516
3.626271248,-5.374546,1.695347,0.5130343,0.1509712,0.03668934,0.9741876,-35.16896,2.151909,-23.90468,1011.516
3.646086693,-3.904943,1.150733,0.4518718,0.1466243,0.03717704,0.9838674,-34.51251,3.556456,-24.37542,1011.517
3.665902615,-3.292608,1.09022,0.3295469,0.1456598,0.03571124,0.9838652,-34.51251,3.556456,-24.37542,1011.517
3.685718537,-2.496573,0.8481696,0.3295469,0.1500542,0.03232424,0.983341,-34.51251,3.556456,-24.37542,1011.517
3.705534458,-1.761771,0.6666315,0.207222,0.143197,0.03714302,0.9771285,-34.13636,3.26328,-23.92806,1011.515
3.725349903,-1.516837,0.6666315,0.02373465,0.1485717,0.03327765,0.9780446,-34.13636,3.26328,-23.92806,1011.515
3.745165825,-0.7208021,0.364068,-0.03742781,0.1476301,0.02742835,0.977537,-34.50197,2.884182,-24.36354,1011.516
3.767458439,0.5038673,-0.05952091,0.1460596,0.1564065,0.03140069,0.9905417,-34.50197,2.884182,-24.36354,1011.517
3.787274361,1.116202,-0.241059,0.2683845,0.1437494,0.03181515,0.987717,-34.50197,2.884182,-24.36354,1011.517
3.807089806,0.3814003,-0.241059,-0.09859026,0.1393666,0.01223349,0.9538529,-34.13718,3.25486,-24.37141,1011.518
3.826905728,4.912677,-1.572338,1.308146,0.1389754,0.007899038,0.9745881,-34.13718,3.25486,-24.37141,1011.518
3.846721649,6.688447,-1.451313,1.246984,0.1674238,0.07240359,1.008551,-34.13718,3.25486,-24.37141,1011.518
3.866537571,1.60607,-0.3620844,-0.3432401,0.1611441,0.06653482,1.011451,-34.13718,3.25486,-24.37141,1011.518
3.886353016,0.2589334,0.4850934,-0.8937021,0.1489583,0.05374154,0.9824917,-34.13718,3.25486,-24.37141,1011.515
3.906168938,-1.088203,1.211246,-1.260677,0.1573706,0.08189724,0.9285302,-34.50114,2.892601,-23.92019,1011.515
3.925984860,-3.047674,1.816373,-1.505327,0.1730879,0.1202204,1.036761,-34.50114,2.892601,-23.92019,1011.515
3.945800781,-5.497013,2.966114,-2.667413,0.2436977,0.07176396,0.983031,-34.12639,2.514253,-24.73847,1011.514
3.965615750,-3.660008,2.845089,-4.379962,0.3335831,0.08781234,0.9831041,-34.12639,2.514253,-24.73847,1011.514
3.985431671,-6.599215,3.208165,-5.664374,0.3698933,0.04667445,1.009241,-34.12639,2.514253,-24.73847,1011.515
4.005247593,-10.51816,0.4245807,-4.441124,0.3668576,0.02946466,0.9464214,-34.50772,3.250877,-24.37002,1011.515
4.027540684,-0.1697009,-1.269775,-2.300439,0.3502017,-0.0006721311,1.004279,-34.50772,3.250877,-24.37002,1011.516
4.047356129,-5.558246,-1.572338,-0.6490523,0.3215654,-0.01544594,0.9971198,-33.75936,2.907784,-23.54295,1011.512
4.067172050,-2.61904,-0.9672114,1.736283,0.269083,-0.006888673,1.023998,-33.75936,2.907784,-23.54295,1011.512
4.086987972,-2.925207,2.360987,2.89837,0.2709131,0.03312654,1.056051,-33.75936,2.907784,-23.54295,1011.516
4.106803894,-3.660008,6.778414,1.858608,0.2615302,0.06475343,1.066401,-34.82047,3.561557,-23.93091,1011.516
4.126619816,-2.61904,9.561998,0.8188466,0.2483724,0.02800091,0.9982263,-34.82047,3.561557,-23.93091,1011.519
4.146434784,-1.271903,8.593796,2.164421,0.1032469,-0.04343303,0.9667971,-33.39457,3.278462,-23.55082,1011.519
4.166250706,-0.7820356,8.896359,4.366269,0.1066766,-0.02237571,1.008879,-33.39457,3.278462,-23.55082,1011.519
4.186066151,-1.088203,9.198922,4.916731,0.1692007,-0.009981042,0.9661252,-33.39457,3.278462,-23.55082,1011.519
4.205882072,1.973471,8.109694,4.733244,0.1296632,0.02099935,0.9751889,-33.7699,3.580059,-23.55483,1011.519
4.225697994,-1.333137,5.507648,4.427432,0.1379841,0.005925214,0.9658951,-33.7699,3.580059,-23.55483,1011.518
4.245513916,3.688008,4.720983,4.427432,0.1425261,0.08100707,0.9952165,-33.03962,4.328632,-23.19055,1011.518
4.265329838,3.38184,6.415338,4.366269,0.172911,0.09858359,0.9492861,-33.03962,4.328632,-23.19055,1011.519
4.285145283,1.177435,5.870724,4.610919,0.1348515,-0.02469717,0.9951984,-33.03962,4.328632,-23.19055,1011.519
4.307438374,-0.8432691,4.176368,3.571157,0.158933,0.1285653,0.8930432,-32.66908,4.332615,-23.19193,1011.518
4.327254295,4.239109,6.173287,4.672081,0.1059732,0.113028,1.025507,-32.66908,4.332615,-23.19193,1011.519
4.347070217,-6.844149,4.478932,4.121619,0.1545333,-0.01074465,1.08494,-32.66333,3.96592,-23.18545,1011.519
4.366885185,-4.333577,2.663551,4.121619,0.1531674,0.002025011,1.133281,-32.66333,3.96592,-23.18545,1011.52
4.386701107,2.708272,0.6666315,2.592558,0.08211394,0.1347393,1.195652,-32.66333,3.96592,-23.18545,1011.52
4.406517029,-2.61904,0.5456061,-0.1597527,0.08975036,0.02712416,0.9759216,-31.61852,4.351117,-22.81585,1011.52
4.426332951,-0.7208021,-2.177466,-2.055789,0.0547243,0.02937991,0.9770902,-31.61852,4.351117,-22.81585,1011.52
4.446148396,0.6875677,-4.718999,-3.523688,0.03864048,0.03171624,0.9709154,-31.23648,3.621708,-22.80428,1011.52
4.465964317,0.9325016,-7.986685,-4.746937,0.03912836,0.0258534,0.9617118,-31.23648,3.621708,-22.80428,1011.517
4.485780239,1.483603,-11.19386,-5.970186,0.02091355,0.1072442,1.031253,-31.23648,3.621708,-22.80428,1011.517
4.505596161,-4.149877,-12.94873,-7.376923,0.03056926,0.002337655,1.122852,-31.2529,4.730215,-22.38037,1011.516
4.525411606,-1.271903,-14.15898,-7.376923,0.08687834,-0.00463478,0.9371598,-31.2529,4.730215,-22.38037,1011.516
4.545227528,0.2589334,-14.76411,-7.07111,0.1666781,0.04420615,1.028683,-31.2529,4.730215,-22.38037,1011.517
4.567520619,-1.455604,-12.8277,-6.642973,0.1870556,-0.01013128,1.067389,-31.97123,3.323801,-21.97273,1011.514
4.587336540,-0.04723396,-9.317965,-5.664374,0.1663368,0.02181917,1.034362,-31.97123,3.323801,-21.97273,1011.514
4.607152462,-0.5983351,-5.445152,-5.358562,0.1848001,0.03999078,1.058971,-32.29477,4.375087,-21.16656,1011.513
4.626967430,-0.3534013,-2.964131,-4.563449,0.2052944,0.01227969,1.033134,-32.29477,4.375087,-21.16656,1011.513
4.646783352,0.07523298,-0.9672114,-3.646013,0.1910691,0.02189714,1.013472,-32.29477,4.375087,-21.16656,1011.512
4.666599274,0.1976999,0.364068,-3.340201,0.169033,0.03145324,0.9851635,-31.98024,4.011711,-21.16124,1011.512
4.686415196,-0.5983351,0.0615045,-3.279038,0.0657514,0.03128003,0.9335986,-31.98024,4.011711,-21.16124,1011.512
4.706230641,1.116202,-2.782593,-2.606251,-0.006619506,0.01826021,0.9402027,-32.28831,4.015609,-20.78007,1011.511
4.726046562,0.3201669,-5.445152,-1.566489,0.005802665,-0.01913138,0.955871,-32.28831,4.015609,-20.78007,1011.511
4.745862484,0.6263342,-8.712837,-0.1597527,0.02158535,-0.02119406,0.8742014,-32.28831,4.015609,-20.78007,1011.51
4.765678406,0.1976999,-13.06975,1.246984,0.02459529,-0.01084691,0.9181617,-32.28327,3.641696,-21.1536,1011.51
4.785493851,-4.149877,-16.94257,3.632319,0.06511154,0.02857961,1.026745,-32.28327,3.641696,-21.1536,1011.513
4.805309773,-1.823005,-21.84409,6.690443,0.1216065,0.1336917,1.08007,-32.28256,3.648913,-20.77358,1011.513
4.825125694,1.422369,-21.72307,6.87393,0.1929906,0.144252,1.065254,-32.28256,3.648913,-20.77358,1011.51
4.847418785,-2.435339,-18.33436,6.935092,0.2010248,0.06513197,1.151685,-32.28256,3.648913,-20.77358,1011.51
4.867234707,-1.02697,-13.13027,7.240905,0.2422368,0.079922,1.138503,-32.65157,3.660568,-19.94882,1011.51
4.887050152,-0.3534013,-6.715919,6.38463,0.2522024,0.09739751,1.094615,-32.65157,3.660568,-19.94882,1011.509
4.906866074,0.6263342,-1.269775,5.100219,0.2556077,0.05781722,1.029714,-32.66236,4.401175,-19.58177,1011.509
4.926681996,0.0139995,3.450216,4.733244,0.232299,0.03230017,0.9983364,-32.66236,4.401175,-19.58177,1011.509
4.946497917,1.238669,6.415338,4.672081,0.2344434,0.007031176,1.015089,-32.66236,4.401175,-19.58177,1011.51
4.966313839,-2.129172,7.020465,4.366269,0.2331329,-0.003625438,1.041106,-33.0329,4.397192,-19.58038,1011.51
4.986129284,-1.39437,6.173287,3.326507,0.1950728,0.05831844,0.9639211,-33.0329,4.397192,-19.58038,1011.514
5.005945206,0.8712681,3.389703,2.40907,0.1992131,0.05914972,0.895845,-32.29687,4.77907,-19.20962,1011.514
5.025761127,1.116202,0.4850934,2.714883,0.1571,0.03658378,0.9171974,-32.29687,4.77907,-19.20962,1011.517
5.045577049,-0.5983351,-3.085156,3.081857,0.1444671,0.01794959,0.8901408,-32.29687,4.77907,-19.20962,1011.517
5.065392494,-1.333137,-6.957969,2.776045,0.1658676,0.03859437,0.9243999,-32.66964,4.752234,-20.41162,1011.519
5.085208416,-1.149436,-11.13335,1.858608,0.194222,0.05742275,0.9981911,-32.66964,4.752234,-20.41162,1011.519
5.107501030,-2.190405,-14.88513,0.02373465,0.1571634,0.03614021,0.9350539,-32.29687,4.77907,-19.20962,1011.52
5.127316952,-0.4146348,-18.93948,-1.749977,0.1321611,0.07253471,0.9368257,-32.29687,4.77907,-19.20962,1011.52
5.147132397,-1.455604,-22.69127,-2.850901,0.09387355,0.0504313,0.9398178,-32.29687,4.77907,-19.20962,1011.52
5.166948319,-0.5371017,-24.80922,-3.401363,0.1051258,0.0515146,0.9609997,-32.67316,5.141783,-19.21471,1011.52
5.186764240,-0.4758682,-24.7487,-4.685774,0.1464711,0.06102228,0.9781986,-32.67316,5.141783,-19.21471,1011.515
5.206580162,-0.1697009,-23.53845,-5.297399,0.2103934,0.02532778,0.9810441,-33.0357,4.793957,-18.00345,1011.515
5.226395607,-1.088203,-22.14666,-4.808099,0.2198046,0.02158684,1.024897,-33.0357,4.793957,-18.00345,1011.518
5.246211529,-0.2309344,-20.21025,-4.746937,0.2701493,0.04123652,0.988039,-33.0357,4.793957,-18.00345,1011.518
5.266027451,-0.6595686,-18.33436,-4.869262,0.2833233,0.03742431,0.994222,-33.41128,5.163888,-17.62853,1011.519
5.285843372,-0.2921678,-16.27693,-3.890663,0.304412,0.003926545,0.9905558,-33.41128,5.163888,-17.62853,1011.519
5.305659294,-2.190405,-14.40103,-2.973226,0.3195621,0.008457197,1.019457,-33.75799,3.701543,-17.15787,1011.519
5.325474739,-1.455604,-11.13335,-2.850901,0.2954666,0.06045354,1.027579,-33.75799,3.701543,-17.15787,1011.519
5.345290661,-0.2921678,-6.231817,-2.973226,0.2780698,0.03404323,1.016919,-33.75799,3.701543,-17.15787,1011.516
5.365106583,-0.04723396,-2.480029,-2.422764,0.2848196,0.01839259,0.9738436,-34.13932,4.438167,-16.78942,1011.516
5.387399674,-0.6595686,-1.269775,-1.505327,0.3099316,0.01106375,0.9094723,-34.13932,4.438167,-16.78942,1011.517
5.407215595,-1.02697,0.1220172,-1.016027,0.3110743,0.01803455,0.9708019,-34.50411,4.067489,-16.78155,1011.517
5.427031040,-1.271903,1.816373,-1.016027,0.3179042,0.01515175,0.9721978,-34.50411,4.067489,-16.78155,1011.517
5.446846962,-1.088203,2.360987,-1.321839,0.3240983,0.0278035,0.9553351,-34.50411,4.067489,-16.78155,1011.517
5.466662884,-0.1084674,2.4215,-1.627652,0.3216196,0.0282462,0.9423187,-34.13932,4.438167,-16.78942,1011.517
5.486478806,-0.5371017,2.239962,-1.933464,0.3115443,0.01655872,0.9635516,-34.13932,4.438167,-16.78942,1011.517
5.506294727,0.993735,9.985588,0.7576842,-0.697711,-0.0678907,1.230737,-34.13428,4.064254,-17.16296,1011.518
5.526110172,-5.925647,3.752779,-0.7713773,0.3797662,0.03866232,0.8961995,-34.13428,4.064254,-17.16296,1011.518
5.545926094,2.647039,-1.027724,1.491634,0.2816343,0.007920063,0.8782369,-34.13428,4.064254,-17.16296,1011.519
5.565742016,5.035144,-2.964131,1.491634,0.2581546,0.1264981,1.033914,-33.38604,3.719959,-16.39922,1011.519
5.585557938,-0.1084674,-1.269775,-1.444164,0.261444,0.045137,1.008862,-33.38604,3.719959,-16.39922,1011.52
5.605373383,0.8712681,0.7271442,-1.016027,0.3451195,0.01430127,0.9648043,-34.12711,3.711993,-16.39644,1011.52
5.625189304,2.279638,0.0615045,0.02373465,0.2185756,0.01797647,0.9437953,-34.12711,3.711993,-16.39644,1011.52
5.647481918,2.524572,-0.6041352,-0.3432401,0.281421,0.02766755,0.9908035,-34.12711,3.711993,-16.39644,1011.52
5.667297840,1.667303,1.513809,-0.2820776,0.2843025,0.0359674,0.9937265,-33.38604,3.719959,-16.39922,1011.521
5.687113285,1.238669,2.179449,-0.8325397,0.2808826,0.01638375,0.9569611,-33.38604,3.719959,-16.39922,1011.521
5.706929207,3.259373,1.695347,0.1460596,0.27101,0.01182922,0.9067932,-34.13357,4.071472,-16.78294,1011.522
5.726745129,3.136906,-1.330288,0.08489711,0.2562464,0.05367258,0.924948,-34.13357,4.071472,-16.78294,1011.522
5.746561051,2.463338,-2.237978,-0.2820776,0.2754495,0.03096263,0.956583,-34.13357,4.071472,-16.78294,1011.524
5.766377449,1.973471,-3.508745,-0.5267274,0.2559413,0.03717791,0.9509296,-33.76808,4.449367,-16.41079,1011.524
5.786193371,1.60607,-4.234898,-0.5878899,0.2666183,0.0538391,0.9717119,-33.76808,4.449367,-16.41079,1011.521
5.806008816,1.116202,-4.416436,-0.5267274,0.2642237,0.04163114,0.9624913,-33.76808,4.449367,-16.41079,1011.521
5.825824738,-1.700538,-5.203101,-0.09859026,0.2903748,0.02506632,0.902411,-33.75799,3.701543,-17.15787,1011.522
5.845640660,-2.006705,-9.378477,0.8188466,0.2207011,0.04563595,0.8995194,-33.75799,3.701543,-17.15787,1011.522
5.865456581,-12.66133,-8.712837,1.980933,0.457094,-0.04197443,1.618414,-34.12782,3.704776,-16.77646,1011.524
5.885272026,3.443074,1.211246,3.14302,0.2269925,-0.05759175,1.29089,-34.12782,3.704776,-16.77646,1011.524
5.905087948,-6.048114,0.7271442,-5.175074,0.3103311,-0.08725903,0.7221686,-34.12782,3.704776,-16.77646,1011.526
5.927380562,5.218844,0.7271442,0.6353592,0.2978677,0.06533302,1.026625,-33.39108,4.093872,-16.02568,1011.526
5.947196484,1.973471,0.364068,-0.6490523,0.2837907,0.01785845,0.95647,-33.39108,4.093872,-16.02568,1011.521
5.967011929,2.830739,0.4850934,0.2683845,0.3000138,0.08665194,0.9779724,-33.76878,4.442151,-16.79081,1011.521
5.986827850,0.3814003,0.364068,-0.7102148,0.2934105,0.03347631,0.9507055,-33.76878,4.442151,-16.79081,1011.524
6.006643772,0.993735,0.3035553,-0.09859026,0.2924906,0.02519825,0.9525988,-33.76878,4.442151,-16.79081,1011.524
6.026459694,0.993735,0.1825299,-0.465565,0.2923522,0.04905403,0.9512739,-34.5034,4.074706,-16.40154,1011.523
6.046275139,0.1976999,1.332271,-1.016027,0.3042164,0.04094101,0.9941257,-34.5034,4.074706,-16.40154,1011.523
6.066092014,-0.7208021,3.752779,-1.383002,0.2969007,0.04137729,0.9888586,-34.5034,4.074706,-16.40154,1011.52
6.085907459,-0.3534013,4.66047,-0.465565,0.2776023,-0.02314389,0.928298,-34.5034,4.074706,-16.40154,1011.52
6.105723381,-0.4146348,2.845089,0.6353592,0.2694503,0.03717104,0.9189988,-34.5034,4.074706,-16.40154,1011.522
6.125539303,-0.4758682,2.300474,-0.09859026,0.2957878,0.05642708,0.9725308,-34.49765,3.708011,-16.39505,1011.522
6.145355225,-0.7208021,4.902521,-0.465565,0.292129,0.02675142,0.9917055,-34.49765,3.708011,-16.39505,1011.523
6.165171146,0.993735,6.173287,-0.2820776,0.2891127,0.03106591,0.9700238,-34.12711,3.711993,-16.39644,1011.523
6.187463284,-3.966176,7.383542,-1.07719,0.2989409,0.03412216,1.004738,-34.12711,3.711993,-16.39644,1011.522
6.207279205,-1.271903,11.19584,-1.321839,0.309634,0.05617233,1.039063,-34.12711,3.711993,-16.39644,1011.522
6.227095127,-0.8432691,15.73429,-2.667413,0.3353738,0.0812127,1.06946,-34.13357,4.071472,-16.78294,1011.524
6.246910572,-1.02697,19.42557,-3.951825,0.3036093,-0.02822253,0.987499,-34.13357,4.071472,-16.78294,1011.524
6.266726494,1.851004,23.17736,-0.5267274,0.3619274,-0.06329274,1.059401,-33.3932,4.07222,-17.16573,1011.522
6.286542893,-0.1084674,32.07273,2.837208,0.4147892,0.007273316,1.131393,-33.3932,4.07222,-17.16573,1011.522
6.306358814,-5.068378,38.124,3.38767,0.3223282,-0.09835417,0.9416645,-33.3932,4.07222,-17.16573,1011.523
6.326174736,0.9325016,34.00913,6.87393,0.2920941,-0.07055902,0.8213032,-33.76374,4.068238,-17.16434,1011.523
6.345990658,20.46598,26.92914,3.999295,-0.06709535,0.328001,0.6877531,-33.76374,4.068238,-17.16434,1011.524
6.365806103,-21.60141,14.28199,-10.92435,0.2716171,0.01890611,0.8112559,-32.66587,4.790724,-18.38486,1011.524
6.385622025,9.995054,8.835846,-6.704135,-0.09142366,0.06902317,0.9713364,-32.66587,4.790724,-18.38486,1011.525
6.405437946,27.38536,6.657389,3.571157,0.1903481,0.378201,0.9607631,-32.66587,4.790724,-18.38486,1011.525
6.425253868,-2.251639,6.89944,-2.239276,0.2109812,-0.09353687,0.9577445,-32.64944,3.682218,-18.80877,1011.524
6.447546005,0.1364664,7.262516,-0.4044026,0.1786449,-0.004898754,1.034157,-32.64944,3.682218,-18.80877,1011.524
6.467362881,2.708272,8.109694,0.02373465,0.2390224,0.06698439,1.030335,-32.65015,3.675001,-19.18879,1011.526
6.487178326,2.034704,8.896359,-0.5878899,0.1994362,0.09988553,1.028307,-32.65015,3.675001,-19.18879,1011.526
6.506994248,2.279638,5.205084,0.5130343,-0.001820322,0.01251692,0.7692788,-32.65015,3.675001,-19.18879,1011.523
6.526810169,0.3201669,-2.237978,-0.4044026,0.1783933,0.05211946,1.054241,-31.98304,4.408476,-19.58431,1011.523
6.546626091,-2.129172,1.271759,-0.2209152,0.197583,0.05105411,0.9749715,-31.98304,4.408476,-19.58431,1011.524
6.566441536,-0.6595686,-0.3015717,0.02373465,0.2039702,0.040378,0.9763298,-32.29182,4.405158,-19.58315,1011.524
6.586257458,-0.3534013,0.0009917939,0.08489711,0.176768,0.04123786,0.9875846,-32.29182,4.405158,-19.58315,1011.523
6.606073380,-1.271903,0.364068,-0.3432401,0.1904745,0.02035066,0.9791968,-32.29182,4.405158,-19.58315,1011.523
6.625889301,0.3814003,0.0615045,-0.09859026,0.1879572,0.0300543,0.9700896,-31.98163,4.42291,-18.82428,1011.52
6.645705223,0.3814003,0.3035553,-0.1597527,0.1864858,0.03785981,0.9793085,-31.98163,4.42291,-18.82428,1011.52
6.665520668,-0.5983351,0.4245807,-0.4044026,0.1738703,0.04319272,0.9967815,-32.28537,4.04568,-19.19666,1011.519
6.685336590,-0.3534013,0.3035553,-0.09859026,0.1879796,0.02664817,0.9710373,-32.28537,4.04568,-19.19666,1011.519
6.705152512,-0.5983351,0.5456061,-0.2209152,0.1826748,0.02567476,0.9826457,-32.28537,4.04568,-19.19666,1011.518
6.727445603,-0.3534013,0.364068,-0.09859026,0.1865065,0.03151924,0.9749318,-31.97588,4.056215,-18.8178,1011.518
6.747261524,0.8712681,0.0009917939,-0.03742781,0.188979,0.02716122,0.9797227,-31.97588,4.056215,-18.8178,1011.515
6.767076969,0.993735,0.1220172,-0.09859026,0.1860512,0.03007236,0.9816843,-33.0329,4.397192,-19.58038,1011.515
6.786892891,0.4426338,0.1825299,-0.2209152,0.1908355,0.04128507,0.976889,-33.0329,4.397192,-19.58038,1011.517
6.806708813,0.6875677,0.4850934,-0.09859026,0.1859886,0.04420488,0.9865841,-33.0329,4.397192,-19.58038,1011.517
6.826524735,0.0139995,0.9086823,-0.3432401,0.1782626,0.04664845,1.006911,-32.27961,3.678984,-19.19018,1011.516
6.846340656,-2.251639,1.816373,-0.465565,0.2065055,0.03215389,0.9931675,-32.27961,3.678984,-19.19018,1011.516
6.866156101,-0.9045025,0.7271442,-0.5267274,0.1688817,0.0323228,0.9422103,-32.27961,3.678984,-19.19018,1011.517
6.885972023,-1.271903,0.1825299,-0.2209152,0.1879034,0.04614858,0.9807914,-31.97659,4.048998,-19.19781,1011.517
6.905788422,-0.7208021,0.1825299,0.02373465,0.1888193,0.05246841,0.9745442,-31.97659,4.048998,-19.19781,1011.516
6.925604344,-1.088203,0.5456061,0.08489711,0.190442,0.03792682,0.9985944,-31.97659,4.048998,-19.19781,1011.516
6.945420265,-1.578071,0.4245807,-0.4044026,0.1894898,0.01984815,0.9748555,-31.97659,4.048998,-19.19781,1011.511
6.965236187,-0.5371017,0.0009917939,0.02373465,0.1976559,0.02715145,0.9569892,-31.97659,4.048998,-19.19781,1011.511
6.987528324,0.5038673,-0.4225971,0.2683845,0.2161431,0.03605158,0.9733448,-32.66166,4.408392,-19.20175,1011.51
7.007344246,0.7488011,0.0615045,0.1460596,0.1996823,0.03797463,0.9985441,-32.66166,4.408392,-19.20175,1011.51
7.027160645,0.5038673,0.1220172,-0.1597527,0.1768299,0.01781627,0.9671916,-31.98233,4.415694,-19.2043,1011.509
7.046976566,0.3814003,0.2430426,0.02373465,0.1432227,0.03520587,0.9814625,-31.98233,4.415694,-19.2043,1011.509
7.066792488,0.8712681,-0.1200336,-0.2820776,0.195297,0.02914633,0.981629,-31.98233,4.415694,-19.2043,1011.51
7.086607933,1.60607,-0.1805463,-0.03742781,0.1777417,0.0363549,0.9798314,-32.29182,4.405158,-19.58315,1011.51
7.106423855,1.667303,0.0009917939,-0.465565,0.1826568,0.03006177,0.984599,-32.29182,4.405158,-19.58315,1011.511
7.126239777,1.78977,-0.241059,-0.465565,0.1723784,0.03582858,0.9750313,-31.98304,4.408476,-19.58431,1011.511
7.146055698,2.279638,-0.3015717,-0.2820776,0.2054608,0.03649719,0.9791977,-31.98304,4.408476,-19.58431,1011.509
7.165871620,2.402105,-0.3620844,-0.2209152,0.1777166,0.04171458,0.9813071,-31.98304,4.408476,-19.58431,1011.509
7.185687065,2.157171,-0.4831098,-0.5878899,0.1654476,0.05232768,0.9664658,-32.6559,4.041697,-19.19527,1011.511
7.205502987,1.299902,-0.9066988,-0.5267274,0.1879417,0.04959808,0.9977028,-32.6559,4.041697,-19.19527,1011.511
7.225318909,1.116202,-0.1200336,-0.6490523,0.2133042,0.02631556,0.9805505,-32.66236,4.401175,-19.58177,1011.512
7.245135307,1.299902,-0.3015717,-0.2209152,0.1752463,0.04949631,0.9828087,-32.66236,4.401175,-19.58177,1011.512
7.267427921,0.1976999,-1.027724,-0.7102148,0.1508446,0.05077616,0.9602629,-32.66236,4.401175,-19.58177,1011.505
7.287243366,-0.1084674,-2.177466,-0.9548646,0.1561833,0.05421818,0.9626648,-32.66236,4.401175,-19.58177,1011.505
7.307059288,0.6263342,-2.05644,-1.321839,0.1946942,0.06083726,0.9996541,-32.66236,4.401175,-19.58177,1011.504
7.326875210,0.3201669,-1.874902,-1.199515,0.1815353,0.05341622,0.9794155,-32.66236,4.401175,-19.58177,1011.504
7.346691609,-0.4146348,-2.480029,-0.465565,0.2181691,0.02047537,0.9713231,-32.66236,4.401175,-19.58177,1011.505
7.366507530,-0.1697009,-2.359004,0.5741968,0.2264886,0.02299965,0.9905977,-32.66236,4.401175,-19.58177,1011.505
7.386323452,0.2589334,-1.027724,0.5741968,0.2059202,0.06043517,1.010692,-31.97659,4.048998,-19.19781,1011.504
7.406138897,-0.965736,0.6061188,-0.7102148,0.1893874,0.03932982,0.9768869,-31.97659,4.048998,-19.19781,1011.504
7.425954819,2.218405,-0.6041352,0.3907094,0.1916652,0.05683184,0.9605533,-32.29182,4.405158,-19.58315,1011.505
7.445770741,0.0139995,-1.693364,0.6353592,0.1621331,0.03037502,0.9567176,-32.29182,4.405158,-19.58315,1011.505
7.465586662,2.218405,-3.085156,1.063496,0.1902449,0.04756336,0.956652,-32.29182,4.405158,-19.58315,1011.506
7.485402584,1.728537,-2.964131,0.207222,0.190881,0.04962841,1.003962,-32.29687,4.77907,-19.20962,1011.506
7.505218029,-0.6595686,-1.088237,0.4518718,0.257112,0.05003516,1.030149,-32.29687,4.77907,-19.20962,1011.506
7.527511120,0.5038673,0.7271442,-0.4044026,0.1659124,0.07675845,1.000376,-31.98879,4.775172,-19.59079,1011.506
7.547327042,0.3814003,1.150733,-0.9548646,0.2215413,0.03269188,0.9819863,-31.98879,4.775172,-19.59079,1011.507
7.567142964,0.7488011,1.937398,-0.3432401,0.2279347,0.03473089,1.006096,-31.98879,4.775172,-19.59079,1011.507
7.586958885,1.116202,3.631754,-1.199515,0.2418533,0.05520432,0.9853694,-32.66095,4.415609,-18.82173,1011.504
7.606774330,1.054968,5.023546,0.3907094,0.2460423,0.01632791,1.008798,-32.66095,4.415609,-18.82173,1011.504
7.626590252,-0.2309344,8.049181,0.1460596,0.2483685,0.05488604,1.041323,-32.65744,4.026061,-20.01864,1011.505
7.646406651,-0.965736,9.319948,-0.03742781,0.1644797,0.04205973,0.9509727,-32.65744,4.026061,-20.01864,1011.505
7.666222572,-1.578071,0.5456061,-0.09859026,-0.00816537,0.09508731,0.8986127,-32.65744,4.026061,-20.01864,1011.505
7.686038494,-0.965736,1.75586,-0.7713773,0.240903,-0.02217032,1.00718,-31.97729,4.041781,-19.57783,1011.505
7.705854416,0.5038673,1.211246,0.1460596,0.1601388,0.04206286,0.9616154,-31.97729,4.041781,-19.57783,1011.506
7.725669861,-0.3534013,0.8481696,-0.3432401,0.1888253,0.05198383,0.975507,-32.27553,3.366189,-19.5648,1011.506
7.745485783,-0.4758682,0.4850934,-0.09859026,0.2000359,0.04668203,0.9739703,-32.27553,3.366189,-19.5648,1011.505
7.765301705,-0.965736,0.7271442,-0.03742781,0.2663023,0.03782549,0.9952826,-32.27553,3.366189,-19.5648,1011.505
7.785117626,-0.9045025,1.634835,-0.03742781,0.3071861,0.02730465,0.9867992,-31.97659,4.048998,-19.19781,1011.506
7.807410717,-5.558246,1.332271,-0.7713773,0.291731,-0.01669753,0.9461129,-31.97659,4.048998,-19.19781,1011.506
7.827226639,-3.415075,1.634835,-0.09859026,0.236147,-0.00681997,0.9213685,-32.29265,4.396739,-20.02651,1011.501
7.847042084,-3.108907,1.816373,-0.2209152,0.2717526,0.008103909,0.975793,-32.29265,4.396739,-20.02651,1011.501
7.866858006,-4.700978,2.118936,-0.09859026,0.2770808,0.003716465,0.9622262,-32.29265,4.396739,-20.02651,1011.502
7.886673928,-4.272344,1.695347,0.3295469,0.2766153,0.00763981,0.9747986,-31.98304,4.408476,-19.58431,1011.502
7.906490326,-3.231374,1.876886,0.3907094,0.3791367,0.03499156,0.990789,-31.98304,4.408476,-19.58431,1011.502
7.926306248,-2.374106,2.845089,0.207222,0.4194399,0.04542236,0.9891739,-32.29111,4.412375,-19.20314,1011.502
7.946122170,-1.088203,3.571241,0.1460596,0.4637135,0.05544144,1.010221,-32.29111,4.412375,-19.20314,1011.503
7.965937615,-3.047674,3.08714,-0.8325397,0.5308549,0.02843195,0.973031,-32.29111,4.412375,-19.20314,1011.503
7.985753536,-3.660008,1.029708,-1.260677,0.5509346,0.08597717,0.9659765,-31.98233,4.415694,-19.2043,1011.5
8.005569458,1.116202,1.029708,1.063496,0.3598659,0.02377716,1.026072,-31.98233,4.415694,-19.2043,1011.5
8.025385380,-3.721242,0.6061188,0.5130343,0.100244,-0.02150958,0.9780278,-31.98233,4.415694,-19.2043,1011.5
8.045200825,-2.496573,1.513809,-0.3432401,-0.08629182,0.01106448,0.9545996,-31.24279,4.408023,-20.03044,1011.5
8.067494392,-0.7208021,1.997911,0.1460596,-0.1377421,-0.0160183,0.9402617,-31.24279,4.408023,-20.03044,1011.501
8.087309837,1.728537,-0.6041352,0.3907094,-0.1003246,-0.006068439,0.9473482,-31.61109,4.426894,-18.82567,1011.501
8.107125759,3.443074,0.1220172,0.5130343,-0.1267686,0.04988571,0.9863946,-31.61109,4.426894,-18.82567,1011.496
8.126941681,2.218405,0.6666315,-0.2209152,-0.2199171,0.008010371,0.9852413,-31.61109,4.426894,-18.82567,1011.496
8.146758080,3.994175,0.5456061,-0.2820776,-0.1802007,0.02814434,0.9701644,-30.87647,4.794338,-19.21494,1011.495
8.166574001,2.830739,0.9086823,-0.6490523,-0.03374881,0.03139395,0.9930306,-30.87647,4.794338,-19.21494,1011.495
8.186389923,4.851443,0.4245807,-0.2820776,0.1023475,0.03448877,0.9739597,-30.50523,4.805538,-18.83631,1011.496
8.206205368,4.116642,0.2430426,0.08489711,0.1797107,0.04713707,1.004493,-30.50523,4.805538,-18.83631,1011.496
8.226021290,4.361576,0.1220172,-0.09859026,0.2107548,0.0438182,0.9748622,-30.50523,4.805538,-18.83631,1011.496
8.245837212,3.688008,0.0009917939,-0.03742781,0.2307702,0.04153129,0.9930828,-30.13469,4.80952,-18.8377,1011.496
8.265653133,2.769506,0.0615045,-0.1597527,0.2546162,0.03677718,0.989549,-30.13469,4.80952,-18.8377,1011.495
8.285469532,2.279638,0.2430426,-0.03742781,0.2594532,0.0367836,0.9817998,-30.13469,4.80952,-18.8377,1011.495
8.305285454,2.218405,0.2430426,-0.09859026,0.2647059,0.0553191,0.9837969,-30.13469,4.80952,-18.8377,1011.492
8.325100899,1.973471,0.0615045,-0.1597527,0.2589293,0.04408729,0.9828054,-30.13469,4.80952,-18.8377,1011.492
8.347393990,1.483603,0.1220172,0.08489711,0.2749799,0.04710478,0.9880427,-30.12965,4.435608,-19.21124,1011.493
8.367209911,1.667303,0.3035553,0.02373465,0.2867608,0.03062147,0.9927203,-30.12965,4.435608,-19.21124,1011.493
8.387025833,1.851004,0.4245807,0.1460596,0.2642908,0.03581265,0.9725974,-30.12965,4.435608,-19.21124,1011.492
8.406841755,2.095937,0.3035553,0.02373465,0.2457914,0.04792527,0.9872411,-30.12965,4.435608,-19.21124,1011.492
8.426657200,1.238669,0.0009917939,-0.2209152,0.1985932,0.03641977,0.9618585,-30.12965,4.435608,-19.21124,1011.493
8.446473122,1.177435,-0.05952091,0.08489711,0.1821105,0.04077159,0.984657,-30.49372,4.072147,-18.82335,1011.493
8.466289044,0.9325016,0.1220172,-0.09859026,0.187409,0.05494001,0.9929063,-30.49372,4.072147,-18.82335,1011.492
8.486105442,0.6875677,0.0615045,0.08489711,0.1577029,0.05133582,0.975674,-30.1354,4.802304,-19.21772,1011.492
8.505921364,0.8712681,0.3035553,-0.2820776,0.1533827,0.04206512,0.977098,-30.1354,4.802304,-19.21772,1011.492
8.525737286,1.667303,0.4245807,0.02373465,0.1546955,0.0634786,0.969478,-30.1354,4.802304,-19.21772,1011.492
8.545552731,0.5651007,0.6061188,-0.2209152,0.1226609,0.04820259,0.9633,-30.12319,4.076129,-18.82474,1011.489
8.565368652,1.60607,-0.5436226,0.3907094,0.05383518,0.05974465,1.051583,-30.12319,4.076129,-18.82474,1011.489
8.585184574,1.483603,-0.1805463,0.2683845,0.03413777,0.06386928,0.9870337,-30.12811,4.451245,-18.38787,1011.49
8.607477665,0.1976999,0.364068,-0.2209152,0.06426837,0.06645408,0.9844686,-30.12811,4.451245,-18.38787,1011.49
8.627293587,0.2589334,0.1825299,0.02373465,0.1129716,0.05648973,0.9880121,-30.12811,4.451245,-18.38787,1011.489
8.647109509,0.5038673,0.1220172,0.08489711,0.1300346,0.04976323,0.9888497,-29.44962,4.450127,-18.83377,1011.489
8.666924954,0.9325016,0.0009917939,-0.09859026,0.1028426,0.03938632,0.984601,-29.44962,4.450127,-18.83377,1011.49
8.686741829,1.422369,-0.1200336,0.08489711,0.1052585,0.04134309,0.9831499,-30.1354,4.802304,-19.21772,1011.49
8.706557274,0.6875677,0.1220172,-0.2820776,0.1305459,0.03853953,0.9776876,-30.1354,4.802304,-19.21772,1011.486
8.726373196,1.177435,0.2430426,-0.1597527,0.1703323,0.05383471,0.975135,-30.1354,4.802304,-19.21772,1011.486
8.746189118,0.6875677,0.1825299,-0.1597527,0.1805839,0.04902653,0.9784329,-29.45537,4.816823,-18.84024,1011.487
8.766005039,1.054968,0.1220172,-0.2209152,0.1786653,0.04659121,0.9822924,-29.45537,4.816823,-18.84024,1011.487
8.785820484,0.993735,0.0009917939,-0.03742781,0.1669978,0.04604505,0.9828361,-29.43729,3.725156,-18.37745,1011.486
8.805637360,0.9325016,0.0009917939,0.08489711,0.170378,0.04653436,0.9765453,-29.43729,3.725156,-18.37745,1011.486
8.825452805,1.116202,0.0615045,-0.1597527,0.1645721,0.04554788,0.9838122,-29.43729,3.725156,-18.37745,1011.483
8.845268727,0.7488011,0.0009917939,-0.03742781,0.1728566,0.04169176,0.982299,-29.7699,5.180198,-18.84557,1011.483
8.865084648,1.361136,-0.05952091,-0.2209152,0.176238,0.04462624,0.9803649,-29.7699,5.180198,-18.84557,1011.485
8.887377739,1.544836,-0.05952091,-0.1597527,0.1669524,0.04650151,0.9702891,-29.44962,4.450127,-18.83377,1011.485
8.907193661,1.78977,0.3035553,-0.2209152,0.1689486,0.0509478,0.9925041,-29.44962,4.450127,-18.83377,1011.486
8.927009106,1.483603,0.0009917939,-0.1597527,0.1747736,0.04559254,0.9803779,-29.44962,4.450127,-18.83377,1011.486
8.946825028,2.157171,0.1825299,-0.1597527,0.180073,0.05047306,0.9736163,-29.75757,4.455227,-18.38925,1011.483
8.966640949,1.973471,0.4245807,-0.2209152,0.1742436,0.05191418,0.9779998,-29.75757,4.455227,-18.38925,1011.483
8.986457348,1.973471,0.2430426,-0.1597527,0.1810757,0.05245509,0.985688,-29.44304,4.091852,-18.38393,1011.483
9.006273270,1.912237,0.3035553,-0.2209152,0.1931526,0.05734859,0.9697187,-29.44304,4.091852,-18.38393,1011.483
9.026089191,1.177435,0.5456061,-0.2209152,0.2189598,0.05946014,0.9821379,-29.44304,4.091852,-18.38393,1011.486
9.045905113,0.4426338,0.4245807,-0.2820776,0.209266,0.05649998,0.9870026,-29.44387,4.083432,-18.82728,1011.486
9.065720558,0.5038673,0.3035553,-0.09859026,0.1844713,0.05197758,0.9822882,-29.44387,4.083432,-18.82728,1011.486
9.085536480,0.8100346,0.0615045,0.207222,0.1533571,0.0498688,0.9824477,-29.44387,4.083432,-18.82728,1011.486
9.105352879,1.483603,0.2430426,-0.1597527,0.1242177,0.04339128,0.984022,-29.7584,4.446807,-18.83261,1011.483
9.125168800,1.483603,0.0615045,-0.2209152,0.1182372,0.06476819,0.9769244,-29.7584,4.446807,-18.83261,1011.483
9.147461414,0.2589334,0.1220172,-0.2820776,0.1727217,0.04697293,0.9514354,-29.44962,4.450127,-18.83377,1011.484
9.167277813,-1.21067,0.2430426,-0.1597527,0.1867967,0.07538012,0.9896359,-29.44962,4.450127,-18.83377,1011.484
9.187093735,-2.925207,0.3035553,-0.3432401,0.1839071,0.07294095,0.9939832,-29.7584,4.446807,-18.83261,1011.486
9.206909180,-3.231374,0.1825299,-0.2209152,0.1736936,0.06799892,0.9858083,-29.7584,4.446807,-18.83261,1011.486
9.226725102,-3.598775,0.4245807,0.08489711,0.1761759,0.05778141,0.9838115,-29.7584,4.446807,-18.83261,1011.487
9.246541023,-3.904943,0.4850934,-0.1597527,0.1718388,0.05827614,0.9963874,-29.44304,4.091852,-18.38393,1011.487
9.266356945,-3.904943,0.1825299,-0.3432401,0.1791206,0.05537125,0.9876443,-29.44304,4.091852,-18.38393,1011.488
9.286173344,-4.333577,0.7876569,-0.465565,0.1946962,0.04959464,0.9817373,-29.44304,4.091852,-18.38393,1011.488
9.305989266,-4.700978,0.5456061,-0.465565,0.2589501,0.04214662,0.9856915,-29.43812,3.716736,-18.8208,1011.488
9.325804710,-4.02741,0.2430426,-0.1597527,0.2774566,0.03052795,0.9739463,-29.43812,3.716736,-18.8208,1011.488
9.345620632,-3.353841,0.3035553,-0.2209152,0.2532247,0.01824071,0.9788424,-29.75265,4.080112,-18.82613,1011.489
9.365436554,-2.067938,0.2430426,-0.2209152,0.2409891,0.03523304,0.9843063,-29.75265,4.080112,-18.82613,1011.489
9.385252953,-1.271903,0.1220172,-0.1597527,0.221024,0.04293353,0.9897645,-29.75265,4.080112,-18.82613,1011.488
9.405068874,-0.9045025,0.0009917939,-0.03742781,0.2254342,0.03320246,0.9834156,-29.76415,4.813503,-18.83909,1011.488
9.427361488,-0.4758682,-0.05952091,-0.3432401,0.2000468,0.04473433,0.9739602,-29.76415,4.813503,-18.83909,1011.489
9.447177887,-0.7820356,0.1825299,-0.3432401,0.1712967,0.05383388,0.9727163,-29.45466,4.82404,-18.46023,1011.489
9.466993332,-1.149436,0.364068,-0.3432401,0.1286464,0.02976248,0.9766876,-29.45466,4.82404,-18.46023,1011.491
9.486809254,-0.1697009,0.0615045,-0.1597527,0.1062539,0.02816483,0.9681137,-29.45466,4.82404,-18.46023,1011.491
9.506625176,-0.1697009,0.0615045,-0.2209152,0.08630022,0.03147363,0.9696879,-29.44387,4.083432,-18.82728,1011.492
9.526441097,-0.04723396,0.1220172,-0.2820776,0.0693507,0.02410393,0.9789138,-29.44387,4.083432,-18.82728,1011.492
9.546257496,0.7488011,0.1825299,-0.3432401,0.06393956,0.03918731,0.9857785,-29.75769,4.454025,-18.45259,1011.493
9.566073418,1.667303,0.1220172,-0.03742781,0.08098834,0.03440616,0.9856606,-29.75769,4.454025,-18.45259,1011.493
9.585888863,3.626774,0.0615045,0.02373465,0.1982761,0.02236089,0.9883354,-29.75769,4.454025,-18.45259,1011.493
9.605704785,5.647479,0.0009917939,-0.09859026,0.1861658,0.01402142,0.9888415,-29.44891,4.457345,-18.45375,1011.493
9.625520706,7.606949,-0.4225971,0.08489711,0.1846436,0.02912376,0.9952022,-29.44891,4.457345,-18.45375,1011.49
9.645337105,9.38272,-0.241059,0.02373465,0.1725121,0.02370233,0.9942755,-29.75111,4.095748,-18.00276,1011.49
9.665153027,11.46466,-0.4831098,0.2683845,0.1757233,0.04851443,0.9784569,-29.75111,4.095748,-18.00276,1011.491
9.687445641,10.60739,-0.1805463,-0.09859026,0.175665,0.05922794,0.978995,-29.75111,4.095748,-18.00276,1011.491
9.707262039,9.566421,-0.1805463,-0.03742781,0.1789243,0.08456329,0.9781419,-30.12894,4.442825,-18.83122,1011.49
9.727077961,7.545716,-0.1200336,0.207222,0.173596,0.08015094,0.977183,-30.12894,4.442825,-18.83122,1011.49
9.746893406,5.892412,0.1825299,0.02373465,0.1750151,0.08697426,0.9767276,-30.11673,3.716651,-18.43824,1011.489
9.766709328,3.871708,0.1825299,-0.03742781,0.1803424,0.09187471,0.9781717,-30.11673,3.716651,-18.43824,1011.489
9.786525250,2.034704,0.2430426,-0.09859026,0.1729777,0.1025423,0.9753706,-30.11673,3.716651,-18.43824,1011.486
9.806341648,-0.9045025,0.364068,-0.3432401,0.1788972,0.0967657,0.9902716,-29.76415,4.813503,-18.83909,1011.486
9.826157570,-2.98644,0.364068,-0.2820776,0.1740759,0.08894858,0.9897752,-29.76415,4.813503,-18.83909,1011.486
9.888082028,-4.700978,0.1825299,-0.2209152,0.1825891,0.03539099,0.9735251,-29.44891,4.457345,-18.45375,1011.487
9.905421257,-3.292608,0.3035553,-0.1597527,0.1757277,0.04509541,0.9740952,-29.75769,4.454025,-18.45259,1011.486
9.925237179,-1.455604,0.364068,-0.2820776,0.1756655,0.05678394,0.9751209,-29.75769,4.454025,-18.45259,1011.486
9.945053101,-1.02697,0.2430426,-0.09859026,0.1766797,0.05437427,0.9833085,-29.76415,4.813503,-18.83909,1011.483
9.967346192,0.3201669,0.1220172,-0.03742781,0.1772178,0.04365859,0.9808372,-29.76415,4.813503,-18.83909,1011.483
9.987162113,1.78977,0.0009917939,-0.03742781,0.17766,0.05682916,0.9895906,-29.76415,4.813503,-18.83909,1011.482
10.006977558,2.340871,0.0009917939,-0.1597527,0.1693819,0.05042355,0.976088,-29.75769,4.454025,-18.45259,1011.482
10.026793480,3.075673,0.1825299,-0.09859026,0.1761786,0.05436121,0.9789671,-29.75769,4.454025,-18.45259,1011.484
10.046609879,3.01444,0.1825299,0.08489711,0.1790753,0.06169424,0.9847811,-29.44962,4.450127,-18.83377,1011.484
10.066425800,2.340871,0.1220172,-0.1597527,0.174176,0.06457656,0.9790306,-29.44962,4.450127,-18.83377,1011.483
10.086241722,2.034704,0.1220172,-0.03742781,0.1745915,0.07577249,0.9766724,-29.44962,4.450127,-18.83377,1011.483
10.106057644,1.054968,0.0009917939,-0.09859026,0.1765969,0.07093675,0.9862902,-29.44962,4.450127,-18.83377,1011.483
10.125874043,0.6875677,0.0009917939,-0.4044026,0.1775923,0.06215838,0.9785167,-29.44962,4.450127,-18.83377,1011.483
10.145689964,0.993735,-0.05952091,-0.09859026,0.1750904,0.07382847,0.9771424,-30.12248,4.083347,-18.44472,1011.482
10.165505409,0.3201669,0.0615045,-0.1597527,0.1702413,0.07625785,0.985387,-30.12248,4.083347,-18.44472,1011.482
10.185321331,-0.7820356,0.0009917939,-0.09859026,0.1663212,0.07475,0.974299,-30.12248,4.083347,-18.44472,1011.479
10.205137253,-1.149436,-0.05952091,-0.03742781,0.1668419,0.07184385,0.9795906,-29.75769,4.454025,-18.45259,1011.479
10.227430344,-1.455604,0.0615045,-0.2820776,0.1596085,0.05962829,0.9776368,-29.75769,4.454025,-18.45259,1011.48
10.247246265,-0.5371017,0.0615045,-0.1597527,0.1299281,0.05702022,0.9695804,-30.12319,4.076129,-18.82474,1011.48
10.267062664,-0.5983351,0.2430426,-0.3432401,0.1411415,0.0512315,0.9680412,-30.12319,4.076129,-18.82474,1011.482
10.286878586,0.4426338,-0.1200336,-0.1597527,0.1683674,0.06114374,0.9814581,-30.12319,4.076129,-18.82474,1011.482
10.306694031,-1.02697,0.2430426,-0.2820776,0.5009435,-0.04097167,0.92988,-29.75769,4.454025,-18.45259,1011.483
10.326509953,-0.2921678,-1.693364,0.9411715,0.6660787,0.04347004,0.8603868,-29.75769,4.454025,-18.45259,1011.483
10.346325874,-1.639304,-2.237978,0.3295469,0.5003713,0.0899821,1.120248,-29.75769,4.454025,-18.45259,1011.481
10.366142273,-4.149877,-0.1805463,-1.260677,0.2700937,-0.05867691,0.9498771,-29.75194,4.087329,-18.44611,1011.481
10.385958195,1.116202,-0.4831098,0.02373465,0.03029308,0.1060688,0.9274193,-29.75194,4.087329,-18.44611,1011.482
10.405774117,-0.4146348,-0.4225971,-0.1597527,0.1412867,0.07675663,1.05264,-30.11193,3.411072,-18.43284,1011.482
10.425589562,-2.435339,-0.6646479,-0.09859026,0.197117,0.01523461,1.064568,-30.11193,3.411072,-18.43284,1011.481
10.445406437,1.728537,-0.241059,-1.383002,0.1524761,0.006419682,0.937823,-30.11193,3.411072,-18.43284,1011.481
10.465221882,1.60607,-0.3015717,0.08489711,0.1513278,-0.01585398,0.9922575,-29.44316,4.090649,-18.44727,1011.482
10.487514973,4.422809,1.695347,1.063496,0.1226059,0.1312715,1.083914,-29.44316,4.090649,-18.44727,1011.482
10.507330895,3.075673,0.4245807,0.6965217,0.1549395,0.0460536,1.012345,-29.75111,4.095748,-18.00276,1011.478
10.527146816,0.3201669,-0.3620844,-0.2209152,0.07798341,0.07064926,0.8772605,-29.75111,4.095748,-18.00276,1011.478
10.546962738,2.157171,0.0615045,-0.09859026,0.059174,0.03287665,1.004114,-29.75111,4.095748,-18.00276,1011.479
10.566779137,2.218405,0.1220172,0.1460596,0.01076103,0.08963514,1.020116,-29.0718,4.103051,-18.0053,1011.479
10.586595059,0.1976999,0.364068,-0.7102148,-0.01016372,0.05383027,0.9577812,-29.0718,4.103051,-18.0053,1011.477
10.606410504,-8.130052,-0.1805463,-1.994627,0.08892381,-0.03046335,0.9239838,-29.44891,4.457345,-18.45375,1011.477
10.626226425,1.299902,-0.3620844,0.3295469,0.1268754,0.02743262,1.023988,-29.44891,4.457345,-18.45375,1011.478
10.646042347,0.3814003,-0.4225971,-0.7102148,0.1893396,0.09565973,0.9129803,-29.44891,4.457345,-18.45375,1011.478
10.665858746,-2.374106,0.9691951,0.3907094,0.1544005,0.02225995,1.242946,-29.76262,4.829139,-18.01571,1011.479
10.685674668,-3.966176,-0.1805463,0.1460596,0.1923643,0.07570742,0.9114131,-29.76262,4.829139,-18.01571,1011.479
10.705490589,-2.251639,0.1220172,-0.09859026,0.1719546,0.01436036,0.9580296,-29.43741,3.723953,-18.44079,1011.475
10.725306034,0.5651007,0.364068,-0.09859026,0.1701994,0.08404981,0.9859098,-29.43741,3.723953,-18.44079,1011.475
10.745122910,-1.149436,-0.4225971,-0.2820776,0.1920173,0.06993797,0.9427596,-29.43741,3.723953,-18.44079,1011.474
10.767415047,-1.271903,0.0009917939,0.3295469,0.1597056,0.08609682,1.049691,-30.12165,4.091766,-18.00137,1011.474
10.787231445,-2.251639,-0.1200336,-0.2209152,0.1727375,0.04502875,0.9528734,-30.12165,4.091766,-18.00137,1011.475
10.807047367,-4.578511,0.6666315,-1.505327,0.2468519,-0.06395857,0.8288249,-29.44891,4.457345,-18.45375,1011.475
10.826863289,0.5038673,-1.14875,-0.3432401,0.2149771,0.08396164,0.8529277,-29.44891,4.457345,-18.45375,1011.472
10.846679211,-4.149877,-1.632851,-0.03742781,0.2115798,0.06816125,0.971604,-29.44891,4.457345,-18.45375,1011.472
10.866495609,0.6875677,-1.572338,0.6965217,0.2357348,0.1706336,0.8074048,-30.48094,3.422726,-17.60808,1011.473
10.886311531,-2.863973,-2.964131,0.6353592,0.1924186,0.08454587,0.941867,-30.48094,3.422726,-17.60808,1011.473
10.906126976,-4.39481,-2.661567,0.3907094,0.2028093,0.0622377,0.9571412,-29.7584,4.446807,-18.83261,1011.475
10.925942898,-2.496573,-0.6646479,0.08489711,0.1690956,0.005443889,1.103286,-29.7584,4.446807,-18.83261,1011.475
10.945759297,1.60607,-0.7251607,0.08489711,0.1771308,0.1538803,0.8515633,-29.7584,4.446807,-18.83261,1011.472
10.965575218,1.238669,1.029708,0.207222,0.1442384,0.06017412,1.035163,-29.45313,4.839676,-17.63686,1011.472
10.985391140,-2.557806,-0.6646479,-0.5267274,0.1563382,-0.00125877,0.7741345,-29.45313,4.839676,-17.63686,1011.472
11.005207062,4.055408,-0.1200336,0.3295469,0.1382685,-0.005949458,0.887156,-30.13245,4.832374,-17.63431,1011.472
11.025023460,4.239109,0.9086823,0.02373465,0.1431691,0.06743312,1.018795,-30.13245,4.832374,-17.63431,1011.471
11.047316074,2.218405,0.1220172,0.2683845,0.1293945,0.03694014,0.9226604,-30.13245,4.832374,-17.63431,1011.471
11.067132473,2.218405,0.1825299,0.08489711,0.165823,0.08598306,0.9893224,-29.75194,4.087329,-18.44611,1011.472
11.086947918,2.034704,0.4850934,-0.2209152,0.1955906,0.04563279,0.9522688,-29.75194,4.087329,-18.44611,1011.472
11.106763840,3.136906,0.4850934,-0.1597527,0.1957739,0.01936466,0.9627517,-29.74466,3.73627,-17.61626,1011.477
11.126579762,4.97391,0.0009917939,-0.2209152,0.1795977,0.05732264,0.9881345,-29.74466,3.73627,-17.61626,1011.477
11.146396160,2.647039,0.0615045,-0.2820776,0.1793797,0.0962766,0.9883357,-29.74466,3.73627,-17.61626,1011.473
11.166212082,-0.5983351,-0.241059,-0.2820776,0.1886336,0.0982897,0.9955357,-29.76262,4.829139,-18.01571,1011.473
11.186028004,-2.80274,-0.1805463,-0.2209152,0.1882278,0.07243448,0.9765806,-29.76262,4.829139,-18.01571,1011.474
11.205843926,-2.374106,0.364068,-0.2820776,0.1858762,0.05634636,0.9736147,-30.1159,3.725071,-17.99489,1011.474
11.225660324,-1.884238,0.1825299,-0.1597527,0.1935817,0.06904315,0.9721898,-30.1159,3.725071,-17.99489,1011.473
11.245475769,-1.700538,0.2430426,-0.1597527,0.1858086,0.06314221,0.9649618,-30.1159,3.725071,-17.99489,1011.473
11.265291691,-2.006705,-0.3620844,-0.1597527,0.1897052,0.06121113,0.9634826,-29.75194,4.087329,-18.44611,1011.474
11.285108090,-1.945472,0.0615045,-0.09859026,0.1814349,0.06458853,0.968372,-29.75194,4.087329,-18.44611,1011.474
11.307400704,-1.761771,0.3035553,-0.465565,0.1829043,0.06362575,0.969807,-29.75194,4.087329,-18.44611,1011.47
11.327217102,-1.149436,0.6061188,-0.03742781,0.1839277,0.05926721,0.9775018,-29.75194,4.087329,-18.44611,1011.47
11.347033024,-0.04723396,0.1220172,-0.1597527,0.1774543,0.07917027,0.9660553,-29.75194,4.087329,-18.44611,1011.471
11.366848946,0.1364664,0.2430426,-0.2820776,0.1864226,0.05150307,0.9832404,-30.12165,4.091766,-18.00137,1011.471
11.386664867,0.3201669,0.2430426,-0.09859026,0.1820053,0.05634028,0.979428,-30.12165,4.091766,-18.00137,1011.472
11.406481266,0.4426338,0.3035553,-0.1597527,0.1814868,0.05973686,0.975587,-29.43658,3.732373,-17.99743,1011.472
11.426296711,0.5651007,0.1825299,-0.1597527,0.1839435,0.05438976,0.974098,-29.43658,3.732373,-17.99743,1011.468
11.446112633,1.054968,0.1220172,-0.1597527,0.1858921,0.05880207,0.9823155,-29.43658,3.732373,-17.99743,1011.468
11.465928555,0.8100346,0.1825299,-0.2209152,0.1838999,0.06511383,0.9789801,-30.49219,4.087783,-17.99998,1011.469
11.485744953,0.993735,0.1220172,-0.1597527,0.1839141,0.06170183,0.9775144,-30.49219,4.087783,-17.99998,1011.469
11.505560875,1.238669,0.2430426,-0.09859026,0.1814399,0.06752532,0.9746619,-30.49219,4.087783,-17.99998,1011.471
11.525376797,0.993735,0.1825299,-0.2820776,0.1858201,0.06608368,0.9731824,-30.12165,4.091766,-18.00137,1011.471
11.545193195,0.9325016,0.3035553,-0.2820776,0.1751012,0.06748088,0.9698696,-30.12165,4.091766,-18.00137,1011.475
11.567485809,1.483603,0.2430426,-0.2820776,0.1906858,0.07979898,0.9963948,-30.12319,4.076129,-18.82474,1011.475
11.587302208,0.5038673,0.1220172,-0.09859026,0.1828353,0.08802003,0.9897225,-30.12319,4.076129,-18.82474,1011.478
11.607117653,-0.1697009,0.1825299,-0.2209152,0.1776252,0.06804834,0.997854,-30.12319,4.076129,-18.82474,1011.478
11.626933575,0.3814003,0.3035553,-0.2209152,0.1799762,0.08071394,0.99501,-30.49372,4.072147,-18.82335,1011.476
11.646749497,-0.1697009,0.0009917939,-0.03742781,0.1834,0.06901256,0.9814162,-30.49372,4.072147,-18.82335,1011.476
11.666565895,-0.04723396,0.364068,-0.03742781,0.1800322,0.06511009,0.9857587,-30.86497,4.060947,-19.20198,1011.479
11.686381817,0.0139995,0.1825299,-0.09859026,0.1848802,0.06610208,0.9828413,-30.86497,4.060947,-19.20198,1011.479
11.706197739,-0.4758682,0.1220172,-0.03742781,0.1829643,0.05877994,0.9794353,-30.86497,4.060947,-19.20198,1011.479
11.726014137,-0.4146348,0.1220172,-0.1597527,0.1897249,0.06269182,0.9716956,-30.12319,4.076129,-18.82474,1011.479
11.745830059,-0.4758682,0.364068,-0.2820776,0.189768,0.05881166,0.9779503,-30.12319,4.076129,-18.82474,1011.484
11.765645504,-0.4758682,0.3035553,-0.09859026,0.1834316,0.0651242,0.9842921,-30.87001,4.434859,-18.82844,1011.484
11.785461426,-0.5371017,0.364068,0.02373465,0.1873129,0.06415994,0.9799218,-30.87001,4.434859,-18.82844,1011.484
11.805277825,-0.4146348,0.3035553,-0.2209152,0.1839359,0.05927307,0.9799152,-30.87001,4.434859,-18.82844,1011.484
11.825093746,-0.2921678,0.1825299,-0.2209152,0.1800343,0.059734,0.9775255,-31.22834,3.704702,-18.43408,1011.481
11.847386837,-0.1697009,0.1825299,-0.3432401,0.1824911,0.0587868,0.9832994,-31.22834,3.704702,-18.43408,1011.481
11.867202759,-0.1084674,0.1825299,-0.2209152,0.1771705,0.05975757,0.9934698,-31.23551,4.056964,-19.20059,1011.482
11.887018681,0.3814003,0.0009917939,-0.1597527,0.1771322,0.06217461,0.9862422,-31.23551,4.056964,-19.20059,1011.482
11.906835079,0.2589334,0.0615045,-0.1597527,0.1819763,0.05680846,0.9717078,-31.23551,4.056964,-19.20059,1011.482
11.926651001,0.0139995,0.2430426,-0.3432401,0.1581386,0.05863518,0.972813,-30.11417,3.388219,-19.63623,1011.482
11.946466446,0.07523298,0.0009917939,-0.3432401,0.1746297,0.0718888,0.981479,-30.11417,3.388219,-19.63623,1011.479
11.966282368,0.6875677,0.1220172,0.1460596,0.1809748,0.06460476,0.9760973,-30.11814,3.702217,-19.19828,1011.479
11.986098766,0.3814003,0.1220172,-0.03742781,0.1809744,0.07438193,0.992076,-30.11814,3.702217,-19.19828,1011.48
12.005914688,-0.1084674,0.3035553,-0.09859026,0.1858801,0.06123786,0.9828108,-30.11814,3.702217,-19.19828,1011.48
12.025730610,0.3201669,0.364068,-0.2209152,0.1863605,0.06172496,0.9818452,-30.50018,4.431626,-19.20985,1011.481
12.045547009,0.07523298,0.3035553,-0.2209152,0.1844004,0.06317098,0.9799327,-30.50018,4.431626,-19.20985,1011.481
12.065362930,0.2589334,0.1825299,-0.3432401,0.1834507,0.06318235,0.9866955,-30.48868,3.698235,-19.19689,1011.481
12.085178852,0.2589334,0.1825299,-0.1597527,0.183926,0.05926604,0.9770192,-30.48868,3.698235,-19.19689,1011.481
12.107471943,-0.1084674,0.0009917939,-0.09859026,0.1805125,0.06266392,0.9799514,-30.48868,3.698235,-19.19689,1011.482
12.127287388,0.1976999,0.1825299,-0.03742781,0.1824469,0.06168843,0.975109,-30.49525,4.05651,-19.64672,1011.482
12.147104263,0.07523298,0.0009917939,-0.1597527,0.1848677,0.06658197,0.9799477,-30.49525,4.05651,-19.64672,1011.484
12.166919708,0.1364664,0.2430426,-0.09859026,0.1858649,0.06367131,0.9823407,-30.86497,4.060947,-19.20198,1011.484
12.186735630,0.07523298,0.1825299,-0.1597527,0.1829076,0.06362809,0.9707723,-30.86497,4.060947,-19.20198,1011.483
12.206552029,0.07523298,0.1825299,-0.1597527,0.1819677,0.06511313,0.9828522,-30.86497,4.060947,-19.20198,1011.483
12.226367950,0.1976999,0.2430426,-0.09859026,0.1819556,0.06021576,0.9712427,-30.11897,3.693798,-19.64163,1011.484
12.246183872,0.3201669,0.364068,-0.09859026,0.1824644,0.06267868,0.9818714,-30.11897,3.693798,-19.64163,1011.484
12.265999794,0.3201669,0.1825299,-0.2820776,0.1785513,0.06313141,0.9761031,-30.48868,3.698235,-19.19689,1011.484
12.285816193,0.1364664,0.0615045,-0.1597527,0.181972,0.06316075,0.9809113,-30.48868,3.698235,-19.19689,1011.484
12.305632114,0.07523298,0.0615045,-0.2209152,0.1825151,0.05538185,0.9847298,-30.48868,3.698235,-19.19689,1011.488
12.325447559,0.1976999,0.1825299,-0.2209152,0.1819518,0.06412405,0.9765723,-30.49372,4.072147,-18.82335,1011.488
12.345264435,0.07523298,-0.05952091,-0.1597527,0.1868577,0.05977978,0.9818325,-30.49372,4.072147,-18.82335,1011.485
12.365079880,0.0139995,0.0615045,-0.2209152,0.1848616,0.06413329,0.974143,-31.23058,3.681849,-19.63746,1011.485
12.387372971,-0.04723396,0.1825299,-0.09859026,0.1839195,0.06219462,0.9799303,-31.23058,3.681849,-19.63746,1011.487
12.407188892,0.07523298,0.2430426,-0.2209152,0.1814764,0.06217383,0.9765649,-31.23058,3.681849,-19.63746,1011.487
12.427004814,0.1364664,0.3035553,-0.1597527,0.1848704,0.06609505,0.9799451,-30.48797,3.705451,-18.81687,1011.49
12.446821213,0.0139995,0.3035553,-0.09859026,0.1868424,0.05927997,0.9765207,-30.48797,3.705451,-18.81687,1011.49
12.466637135,0.0139995,0.1825299,-0.2209152,0.1809776,0.06411784,0.9760948,-30.85443,3.388673,-19.1901,1011.491
12.486453056,0.07523298,0.3035553,-0.09859026,0.1819448,0.06802998,0.9809365,-30.85443,3.388673,-19.1901,1011.491
12.506269455,0.3201669,0.1825299,-0.09859026,0.1814863,0.06364749,0.9818818,-30.85443,3.388673,-19.1901,1011.491
12.526085377,0.07523298,0.1825299,-0.2209152,0.1843993,0.06512572,0.9828389,-30.86497,4.060947,-19.20198,1011.491
12.545900822,0.07523298,0.1220172,-0.09859026,0.1824218,0.06851475,0.9790057,-30.86497,4.060947,-19.20198,1011.494
12.565717220,0.1364664,0.1220172,-0.1597527,0.1843764,0.06364267,0.9736604,-30.87154,4.419222,-19.65181,1011.494
12.585533142,0.0139995,0.1220172,-0.09859026,0.1839282,0.05975648,0.9784697,-30.87154,4.419222,-19.65181,1011.49
12.605349064,0.07523298,0.2430426,-0.1597527,0.18782,0.06075515,0.9803843,-30.87154,4.419222,-19.65181,1011.49
12.625165463,0.07523298,0.2430426,-0.1597527,0.1848671,0.06315944,0.974138,-30.86426,4.068163,-18.82196,1011.491
12.647458077,0.1364664,0.1825299,-0.2209152,0.185378,0.06024627,0.9765336,-30.86426,4.068163,-18.82196,1011.491
12.667274475,0.0139995,0.1825299,-0.2209152,0.1829234,0.06315055,0.9746313,-30.86497,4.060947,-19.20198,1011.493
12.687090397,0.1364664,0.3035553,-0.2820776,0.1814792,0.06315354,0.9789833,-30.86497,4.060947,-19.20198,1011.493
12.706906319,0.1976999,0.2430426,-0.2209152,0.1853594,0.06267737,0.9750981,-30.86497,4.060947,-19.20198,1011.494
12.726722717,0.07523298,0.0009917939,-0.09859026,0.1814612,0.06607392,0.9785157,-30.49443,4.06493,-19.20337,1011.494
12.746538162,0.0139995,0.1220172,-0.03742781,0.1848742,0.06512003,0.9794574,-30.49443,4.06493,-19.20337,1011.491
12.766354084,0.1976999,0.2430426,-0.2209152,0.1843944,0.0651222,0.9813908,-30.49443,4.06493,-19.20337,1011.491
12.786170483,0.1364664,0.1825299,-0.2820776,0.1858359,0.0641395,0.9746205,-30.87072,4.427642,-19.20846,1011.492
12.805986405,0.1364664,0.0615045,-0.09859026,0.1863583,0.06123453,0.9803948,-30.87072,4.427642,-19.20846,1011.492
12.825802326,0.2589334,0.1825299,-0.09859026,0.1829098,0.06558517,0.9746439,-30.86426,4.068163,-18.82196,1011.492
12.845618725,0.1364664,0.2430426,-0.03742781,0.1834397,0.06219679,0.9818636,-30.86426,4.068163,-18.82196,1011.492
12.865434647,0.1364664,0.2430426,0.02373465,0.1844151,0.0617149,0.9818558,-30.86426,4.068163,-18.82196,1011.489
12.885250569,0.07523298,0.1825299,-0.03742781,0.1800321,0.05924356,0.976075,-30.48868,3.698235,-19.19689,1011.489
12.905066967,0.1364664,0.0615045,-0.09859026,0.1809852,0.0621678,0.9751194,-30.48868,3.698235,-19.19689,1011.49
12.927359104,0.07523298,0.3035553,-0.03742781,0.1848671,0.06315944,0.974138,-30.85372,3.39589,-18.81008,1011.49
12.947175980,0.1976999,0.3035553,-0.09859026,0.1829611,0.06171086,0.9833118,-30.85372,3.39589,-18.81008,1011.489
12.966991425,0.1976999,0.2430426,-0.09859026,0.1848867,0.06170687,0.9775091,-30.85372,3.39589,-18.81008,1011.489
12.986807346,0.0139995,0.0009917939,-0.2209152,0.1776054,0.06070112,0.9799572,-31.22425,3.391907,-18.80869,1011.491
13.006623745,0.1364664,0.1825299,-0.2820776,0.1863392,0.06317636,0.9779915,-31.22425,3.391907,-18.80869,1011.491
13.026439667,0.0139995,0.2430426,0.02373465,0.1838993,0.06315792,0.9755913,-31.23551,4.056964,-19.20059,1011.49
13.046255589,0.07523298,0.0615045,-0.1597527,0.1844162,0.05976017,0.9789498,-31.23551,4.056964,-19.20059,1011.49
13.066071987,0.0139995,0.2430426,-0.2209152,0.1809738,0.0665595,0.9790035,-31.23551,4.056964,-19.20059,1011.492
13.085887909,0.0139995,0.1825299,-0.1597527,0.1853594,0.06561064,0.97994,-31.6003,3.686286,-19.19272,1011.492
13.105703831,0.07523298,0.3035553,-0.1597527,0.184396,0.06365673,0.9794525,-31.6003,3.686286,-19.19272,1011.493
13.125520229,0.1976999,0.3035553,-0.2209152,0.1819606,0.0660858,0.9823744,-30.48868,3.698235,-19.19689,1011.493
13.145336151,0.4426338,0.3035553,-0.2209152,0.1838862,0.06461518,0.9741508,-30.48868,3.698235,-19.19689,1011.491
13.165151596,0.1976999,0.2430426,-0.1597527,0.1843999,0.06414835,0.9813858,-30.48868,3.698235,-19.19689,1011.491
13.187444687,0.07523298,0.1825299,-0.1597527,0.1829714,0.06074053,0.9847549,-30.48868,3.698235,-19.19689,1011.49
13.207261562,0.1364664,0.1220172,-0.2820776,0.182436,0.06656939,0.9799609,-30.48868,3.698235,-19.19689,1011.49
13.227077007,0.1364664,0.1220172,-0.09859026,0.1834616,0.05976802,0.9842644,-30.49443,4.06493,-19.20337,1011.492
13.246892929,0.1364664,0.1220172,-0.09859026,0.18975,0.05879877,0.9726408,-30.49443,4.06493,-19.20337,1011.492
13.266709328,0.2589334,0.1220172,-0.2209152,0.1863386,0.06415373,0.9794444,-30.49443,4.06493,-19.20337,1011.491
13.286525250,0.1364664,0.3035553,-0.2820776,0.1839451,0.0573242,0.9794225,-30.86497,4.060947,-19.20198,1011.491
13.306341171,0.1976999,0.1825299,-0.09859026,0.1858577,0.06317736,0.979442,-30.86497,4.060947,-19.20198,1011.488
13.326157570,0.1364664,0.1220172,-0.09859026,0.1849222,0.05684348,0.9798973,-31.22905,3.697485,-18.81409,1011.488
13.345973492,0.1364664,0.2430426,-0.2209152,0.1839348,0.05976117,0.9804005,-31.22905,3.697485,-18.81409,1011.489
13.365788937,0.1364664,0.1825299,-0.09859026,0.1814934,0.06267481,0.9823595,-31.22905,3.697485,-18.81409,1011.489
13.385605812,0.0139995,0.1825299,-0.2209152,0.1868189,0.06024093,0.9712161,-30.48868,3.698235,-19.19689,1011.49
13.405421257,0.07523298,0.0009917939,-0.2209152,0.1834337,0.06268137,0.9809008,-30.48868,3.698235,-19.19689,1011.49
13.425237179,0.07523298,0.0009917939,-0.09859026,0.1810043,0.06315923,0.9823647,-30.86497,4.060947,-19.20198,1011.489
13.445053578,0.1364664,0.1220172,-0.2209152,0.1834228,0.0616958,0.976069,-30.86497,4.060947,-19.20198,1011.489
13.467346668,0.07523298,0.1220172,-0.1597527,0.1829589,0.06122042,0.9818612,-30.86497,4.060947,-19.20198,1011.487
13.487162590,0.1976999,0.2430426,-0.2820776,0.1800109,0.06362823,0.9770631,-30.12894,4.442825,-18.83122,1011.487
13.506978512,0.07523298,0.1220172,-0.09859026,0.185843,0.06316682,0.975098,-30.12894,4.442825,-18.83122,1011.488
13.526794911,0.1364664,-0.05952091,-0.2209152,0.1844282,0.06025764,0.9832963,-30.85851,3.701468,-18.81548,1011.488
13.546610832,0.2589334,0.1220172,-0.09859026,0.1878112,0.06026002,0.977003,-30.85851,3.701468,-18.81548,1011.49
13.566426754,0.07523298,0.1825299,-0.03742781,0.1819545,0.06070386,0.9717279,-30.85851,3.701468,-18.81548,1011.49
13.586243153,0.1364664,0.1825299,-0.09859026,0.1838934,0.06657577,0.9794703,-30.85851,3.701468,-18.81548,1011.493
13.606059075,0.2589334,0.0615045,-0.09859026,0.1868468,0.06026085,0.9794216,-30.85851,3.701468,-18.81548,1011.493
13.625874519,-0.04723396,0.1825299,-0.1597527,0.1824518,0.0646252,0.9813989,-30.85851,3.701468,-18.81548,1011.491
13.645691395,0.1364664,0.0615045,-0.03742781,0.1848955,0.06073536,0.9784694,-30.85851,3.701468,-18.81548,1011.491
13.665506840,0.1364664,0.1220172,-0.09859026,0.1819568,0.06559419,0.9804413,-30.85851,3.701468,-18.81548,1011.492
13.685323239,0.1976999,0.1825299,-0.1597527,0.183461,0.05781212,0.9808757,-30.86426,4.068163,-18.82196,1011.492
13.705139160,0.1364664,0.1825299,-0.09859026,0.1843775,0.06608785,0.9780172,-30.86426,4.068163,-18.82196,1011.491
13.727432251,0.0139995,0.3035553,0.02373465,0.1838901,0.06510679,0.976084,-31.22976,3.690269,-19.19411,1011.491
13.747248173,0.1364664,0.2430426,-0.1597527,0.1858566,0.06219883,0.9775063,-31.22976,3.690269,-19.19411,1011.491
13.767064572,0.1364664,0.1825299,-0.09859026,0.1883047,0.06075649,0.9798989,-31.22976,3.690269,-19.19411,1011.491
13.786880493,0.1364664,0.1825299,-0.1597527,0.1814818,0.05973335,0.9741389,-30.12965,4.435608,-19.21124,1011.488
13.806696415,0.2589334,0.1220172,-0.2209152,0.1814645,0.0675429,0.9819019,-30.12965,4.435608,-19.21124,1011.488
13.826512814,0.1976999,0.3035553,-0.2820776,0.1790562,0.06363608,0.9823778,-30.12965,4.435608,-19.21124,1011.489
13.846328736,-0.04723396,0.1825299,-0.1597527,0.1853654,0.06365942,0.9784819,-31.23551,4.056964,-19.20059,1011.489
13.866144180,0.1364664,0.0009917939,-0.09859026,0.1814819,0.06559987,0.9838226,-31.23551,4.056964,-19.20059,1011.49
13.885961056,0.1976999,0.2430426,-0.09859026,0.1858534,0.06659638,0.9838038,-30.87154,4.419222,-19.65181,1011.49
13.905776501,0.1364664,0.2430426,-0.1597527,0.1819851,0.06023685,0.9799309,-30.87154,4.419222,-19.65181,1011.49
13.925592423,0.1364664,0.0009917939,-0.09859026,0.1839119,0.06121139,0.9760638,-30.87154,4.419222,-19.65181,1011.49
13.945408821,0.0139995,0.1825299,-0.2209152,0.1819911,0.05975227,0.9808937,-30.85922,3.694251,-19.1955,1011.494
13.965224743,0.0139995,0.3035553,-0.2209152,0.1839228,0.06219696,0.9808957,-30.85922,3.694251,-19.1955,1011.494
13.985041142,0.1364664,0.0615045,-0.09859026,0.1819655,0.06462269,0.9814015,-31.23551,4.056964,-19.20059,1011.491
14.007333755,0.0139995,0.1220172,-0.09859026,0.1809514,0.06996562,0.9780558,-31.23551,4.056964,-19.20059,1011.491
14.027150154,0.1364664,0.0009917939,-0.1597527,0.1834218,0.06511717,0.9813961,-31.23551,4.056964,-19.20059,1011.492
14.046966076,0.1976999,0.0615045,-0.1597527,0.1824622,0.06072161,0.978,-30.12472,4.060493,-19.64811,1011.492
14.066782475,0.0139995,0.1220172,-0.2820776,0.1878075,0.06416831,0.9823326,-30.12472,4.060493,-19.64811,1011.492
14.086598396,0.07523298,0.1825299,-0.1597527,0.1838906,0.06412943,0.974631,-30.87072,4.427642,-19.20846,1011.492
14.106414318,0.1364664,0.0615045,-0.2209152,0.1824856,0.05976065,0.9833044,-30.87072,4.427642,-19.20846,1011.489
14.126230717,0.07523298,-0.1200336,-0.1597527,0.1829829,0.05634883,0.9808708,-30.87072,4.427642,-19.20846,1011.489
14.146046639,0.1976999,0.1825299,-0.09859026,0.1839184,0.06268271,0.9804156,-30.86426,4.068163,-18.82196,1011.49
14.165862083,0.1976999,0.2430426,-0.03742781,0.1820167,0.05634849,0.9828069,-30.86426,4.068163,-18.82196,1011.49
14.185678482,0.2589334,0.1825299,-0.1597527,0.1863408,0.06464417,0.980895,-31.2348,4.064181,-18.82057,1011.492
14.205494404,0.07523298,0.1220172,-0.2209152,0.1843955,0.0646341,0.9809056,-31.2348,4.064181,-18.82057,1011.492
14.225310803,0.3201669,0.2430426,0.02373465,0.1853829,0.06171641,0.9804026,-31.2348,4.064181,-18.82057,1011.489
14.245126724,0.1364664,0.1220172,-0.1597527,0.1839174,0.06317081,0.9809007,-30.86497,4.060947,-19.20198,1011.489
14.267419815,0.1364664,0.0009917939,-0.1597527,0.1810059,0.0631604,0.9828474,-30.86497,4.060947,-19.20198,1011.49
14.287235737,0.1364664,0.1220172,-0.1597527,0.1824294,0.06509807,0.9756093,-30.48797,3.705451,-18.81687,1011.49
14.307052136,0.0139995,0.1220172,-0.1597527,0.1834212,0.06462789,0.9804283,-30.48797,3.705451,-18.81687,1011.489
14.326868057,0.07523298,0.1220172,-0.2209152,0.1814404,0.06654795,0.9732088,-30.48797,3.705451,-18.81687,1011.489
14.346683979,0.0139995,0.1220172,-0.1597527,0.1814737,0.06266075,0.9765674,-30.8658,4.052527,-19.64533,1011.485
14.366500378,0.2589334,0.1220172,-0.1597527,0.1819917,0.06170817,0.9842824,-30.8658,4.052527,-19.64533,1011.485
14.386316300,0.2589334,0.364068,-0.2209152,0.1829267,0.06461951,0.9780176,-31.22976,3.690269,-19.19411,1011.488
14.406132698,0.0139995,0.4850934,0.02373465,0.1814933,0.05827492,0.9750966,-31.22976,3.690269,-19.19411,1011.488
14.425948620,0.1976999,0.1220172,-0.2820776,0.1800365,0.06022444,0.9789761,-31.22976,3.690269,-19.19411,1011.489
14.445764065,0.2589334,0.4245807,0.02373465,0.1844157,0.06513743,0.9876655,-31.23551,4.056964,-19.20059,1011.489
14.465580940,0.07523298,0.1220172,-0.03742781,0.1839103,0.06561012,0.9828441,-31.23551,4.056964,-19.20059,1011.485
14.485396385,0.1364664,0.2430426,-0.1597527,0.1824709,0.0597501,0.9789604,-31.22976,3.690269,-19.19411,1011.485
14.505212307,0.07523298,0.1825299,-0.2209152,0.1863113,0.06608971,0.9746279,-31.22976,3.690269,-19.19411,1011.486
14.525028706,0.1364664,0.3035553,-0.2209152,0.1819944,0.05828798,0.9794381,-31.22976,3.690269,-19.19411,1011.486
14.547321797,0.07523298,0.2430426,-0.2209152,0.1848938,0.06220083,0.9804078,-30.49443,4.06493,-19.20337,1011.487
14.567137718,0.1364664,0.2430426,-0.09859026,0.1863539,0.06318691,0.9823355,-30.49443,4.06493,-19.20337,1011.487
14.586954117,0.1976999,0.1220172,-0.2209152,0.1868147,0.06805985,0.9828407,-30.86497,4.060947,-19.20198,1011.487
14.606770039,0.1364664,0.2430426,0.02373465,0.1862775,0.06948765,0.9703013,-30.86497,4.060947,-19.20198,1011.487
14.626585961,0.1976999,0.2430426,-0.09859026,0.1892904,0.05930427,0.9813341,-30.86497,4.060947,-19.20198,1011.484
14.646402359,0.1364664,0.1825299,-0.2209152,0.1839283,0.06122311,0.9808906,-30.86426,4.068163,-18.82196,1011.484
14.666218281,-0.04723396,0.1220172,-0.1597527,0.1853605,0.06365591,0.9770339,-30.86426,4.068163,-18.82196,1011.486
14.686034680,0.2589334,0.1825299,-0.1597527,0.182942,0.0636527,0.9809085,-30.85851,3.701468,-18.81548,1011.486
14.705850601,0.1976999,0.0615045,0.02373465,0.1853763,0.0602451,0.9760509,-30.85851,3.701468,-18.81548,1011.483
14.725666046,0.1976999,0.1220172,-0.1597527,0.1907423,0.05881786,0.9784276,-30.85851,3.701468,-18.81548,1011.483
14.745482922,0.07523298,0.1825299,-0.09859026,0.180537,0.05974824,0.9823497,-30.86426,4.068163,-18.82196,1011.485
14.765298367,0.2589334,0.0615045,-0.1597527,0.1839152,0.06268036,0.9794501,-30.86426,4.068163,-18.82196,1011.485
14.785114289,0.2589334,0.1825299,-0.09859026,0.1814966,0.06267716,0.9833248,-30.48797,3.705451,-18.81687,1011.486
14.807407379,0.07523298,0.1825299,-0.3432401,0.1868293,0.06220386,0.977501,-30.48797,3.705451,-18.81687,1011.486
14.827223778,0.0139995,0.1220172,-0.09859026,0.1873135,0.06318257,0.9784688,-30.48797,3.705451,-18.81687,1011.483
14.847039700,0.07523298,0.1825299,-0.2820776,0.1824894,0.057319,0.9803959,-30.49947,4.438842,-18.82983,1011.483
14.866856098,0.1976999,0.1825299,-0.1597527,0.1849129,0.06025898,0.9828111,-30.49947,4.438842,-18.82983,1011.483
14.886672020,0.2589334,0.0615045,-0.1597527,0.186831,0.0651383,0.9828256,-30.86426,4.068163,-18.82196,1011.483
14.906487942,0.07523298,0.1825299,-0.2820776,0.1849102,0.05927928,0.9803927,-30.86426,4.068163,-18.82196,1011.484
14.926304341,0.1364664,0.1220172,-0.03742781,0.1839451,0.0573242,0.9794225,-30.86426,4.068163,-18.82196,1011.484
14.946120262,0.07523298,0.1825299,-0.2209152,0.1834277,0.06169932,0.9775171,-30.86497,4.060947,-19.20198,1011.479
14.965936661,0.1976999,0.1220172,-0.1597527,0.1815054,0.06023902,0.9818642,-30.86497,4.060947,-19.20198,1011.479
14.985752583,0.3201669,0.2430426,-0.2820776,0.1873277,0.06270385,0.981845,-30.86497,4.060947,-19.20198,1011.48
15.005568027,0.07523298,0.2430426,-0.2209152,0.1814841,0.06169042,0.9780104,-31.23551,4.056964,-19.20059,1011.48
15.025384903,0.07523298,0.0615045,-0.09859026,0.1810076,0.06169493,0.980909,-31.23551,4.056964,-19.20059,1011.482
15.045200348,0.1364664,0.2430426,-0.1597527,0.1775918,0.06020248,0.9751279,-30.48797,3.705451,-18.81687,1011.482
15.065017223,0.1976999,0.3035553,-0.09859026,0.1824497,0.06706803,0.9847902,-30.48797,3.705451,-18.81687,1011.483
15.087310314,0.2589334,0.1825299,-0.09859026,0.1873276,0.06123722,0.979424,-30.48797,3.705451,-18.81687,1011.483
15.107125759,0.0139995,0.1220172,-0.1597527,0.1858616,0.06366897,0.9813753,-30.85922,3.694251,-19.1955,1011.48
15.126942635,0.1976999,0.1825299,-0.03742781,0.1838912,0.06755196,0.9804407,-30.85922,3.694251,-19.1955,1011.48
15.146758080,0.1364664,0.1220172,-0.2209152,0.1805343,0.06023516,0.9823522,-30.8658,4.052527,-19.64533,1011.482
15.166574001,0.1976999,0.1825299,-0.2209152,0.1800229,0.06265906,0.9789887,-30.8658,4.052527,-19.64533,1011.482
15.186390400,0.0139995,0.1825299,-0.2209152,0.1790546,0.06216828,0.9794741,-30.8658,4.052527,-19.64533,1011.483
15.206206322,0.1364664,0.2430426,-0.3432401,0.1829502,0.06219193,0.980901,-30.86497,4.060947,-19.20198,1011.483
15.226022720,0.1364664,0.0009917939,-0.09859026,0.1809732,0.06313697,0.9731938,-30.86497,4.060947,-19.20198,1011.481
15.245838642,0.0139995,0.2430426,-0.2820776,0.1844004,0.06023772,0.9750908,-30.86497,4.060947,-19.20198,1011.481
15.265654564,0.1364664,0.0615045,-0.03742781,0.1839086,0.06120905,0.9750985,-30.86497,4.060947,-19.20198,1011.482
15.285470963,0.1364664,0.2430426,-0.2209152,0.1824197,0.0680243,0.9775551,-30.86497,4.060947,-19.20198,1011.482
15.305286884,0.1364664,0.2430426,-0.2820776,0.1800311,0.06119829,0.9789812,-30.87001,4.434859,-18.82844,1011.481
15.325103283,0.1364664,0.1220172,-0.1597527,0.1780776,0.06411563,0.9814202,-30.87001,4.434859,-18.82844,1011.481
15.347396374,0.07523298,0.0615045,-0.2209152,0.1828945,0.06801862,0.9741737,-30.85851,3.701468,-18.81548,1011.483
15.367212296,0.1364664,0.0615045,-0.03742781,0.1800278,0.06119595,0.9780158,-30.85851,3.701468,-18.81548,1011.483
15.387027741,0.0139995,0.2430426,-0.1597527,0.1834479,0.06073601,0.981856,-30.85851,3.701468,-18.81548,1011.482
15.406844616,0.0139995,0.0615045,-0.2820776,0.181001,0.06315688,0.9813993,-30.49372,4.072147,-18.82335,1011.482
15.426660061,0.07523298,0.1825299,-0.2820776,0.1809966,0.062176,0.9784982,-30.49372,4.072147,-18.82335,1011.482
15.446476936,0.07523298,0.0009917939,-0.03742781,0.1824344,0.06510158,0.9770573,-30.86426,4.068163,-18.82196,1011.482
15.466292381,0.1364664,0.1825299,-0.1597527,0.1839031,0.0621829,0.9751036,-30.86426,4.068163,-18.82196,1011.483
15.486109257,0.1364664,0.1825299,-0.09859026,0.1824415,0.06412891,0.9775349,-30.86426,4.068163,-18.82196,1011.483
15.505924702,-0.04723396,0.2430426,-0.2209152,0.182955,0.05926218,0.9775071,-30.85851,3.701468,-18.81548,1011.484
15.525740624,0.07523298,0.2430426,-0.2820776,0.1902418,0.05929407,0.975054,-30.85851,3.701468,-18.81548,1011.484
15.545557022,0.1976999,0.2430426,-0.2820776,0.1829174,0.06510176,0.9760893,-30.49443,4.06493,-19.20337,1011.482
15.565372944,0.1976999,0.1825299,-0.1597527,0.183901,0.06315909,0.9760739,-30.49443,4.06493,-19.20337,1011.482
15.585189343,0.07523298,0.0615045,-0.2209152,0.1829246,0.06852898,0.9838297,-30.49443,4.06493,-19.20337,1011.484
15.605005264,0.0139995,0.2430426,0.02373465,0.1805114,0.06021876,0.9755948,-30.86497,4.060947,-19.20198,1011.484
15.627298355,0.0139995,0.1825299,-0.1597527,0.1804896,0.06558079,0.9780358,-30.86497,4.060947,-19.20198,1011.485
15.647114754,0.1976999,0.2430426,-0.3432401,0.1815146,0.05975679,0.9837924,-30.49372,4.072147,-18.82335,1011.485
15.666930676,0.0139995,0.1220172,-0.1597527,0.1819851,0.06170348,0.9823518,-30.49372,4.072147,-18.82335,1011.482
15.686746597,0.07523298,0.4245807,-0.1597527,0.1829365,0.06315992,0.9784926,-30.49372,4.072147,-18.82335,1011.482
15.706562996,0.0139995,0.0615045,-0.03742781,0.1848927,0.06122229,0.9784719,-30.86426,4.068163,-18.82196,1011.483
15.726378918,0.1976999,0.2430426,-0.1597527,0.183919,0.06170535,0.9789625,-30.86426,4.068163,-18.82196,1011.483
15.746195316,0.0139995,0.1220172,-0.2820776,0.1810048,0.06218186,0.9809116,-31.22905,3.697485,-18.81409,1011.485
15.766011238,0.07523298,0.1825299,-0.1597527,0.1819829,0.06121304,0.9809012,-31.22905,3.697485,-18.81409,1011.485
15.785827637,-0.1084674,0.0615045,-0.1597527,0.1839162,0.06072564,0.9765441,-31.22905,3.697485,-18.81409,1011.482
15.805643559,0.1364664,0.1825299,-0.1597527,0.1805037,0.0621688,0.9765702,-31.24055,4.430876,-18.82705,1011.482
15.825459004,0.1364664,0.1825299,-0.1597527,0.180489,0.06655815,0.9794888,-31.24055,4.430876,-18.82705,1011.484
15.845275402,0.07523298,0.0615045,-0.1597527,0.1839468,0.058792,0.9823261,-30.11744,3.709434,-18.81826,1011.484
15.865091324,0.2589334,0.3035553,-0.09859026,0.182912,0.06607561,0.9760943,-30.11744,3.709434,-18.81826,1011.486
15.887384415,0.1976999,0.1825299,-0.03742781,0.1858763,0.06221289,0.9832984,-30.11744,3.709434,-18.81826,1011.486
15.907200814,0.2589334,0.1825299,-0.2820776,0.1838819,0.06656757,0.9760916,-31.22496,3.38469,-19.18871,1011.485
15.927016735,-0.04723396,0.0615045,-0.2209152,0.1839299,0.06269091,0.9837943,-31.22496,3.38469,-19.18871,1011.485
15.946833134,0.1364664,0.1825299,-0.2209152,0.1814361,0.06850034,0.9751495,-30.86497,4.060947,-19.20198,1011.485
15.966649056,0.1364664,0.1825299,-0.2209152,0.1848813,0.06268071,0.9775141,-30.86497,4.060947,-19.20198,1011.485
15.986465454,0.2589334,0.0009917939,-0.09859026,0.1844228,0.06269812,0.9857222,-30.86497,4.060947,-19.20198,1011.485
16.006281376,0.07523298,0.1825299,-0.09859026,0.18439,0.06120805,0.9736478,-30.86426,4.068163,-18.82196,1011.485
16.026097298,0.0139995,0.0615045,-0.09859026,0.1839043,0.06462806,0.9794602,-30.86426,4.068163,-18.82196,1011.483
16.045913696,-0.1084674,0.1825299,-0.2209152,0.1814666,0.06510007,0.9785106,-30.85922,3.694251,-19.1955,1011.483
16.065729618,0.07523298,0.0615045,-0.2209152,0.1834179,0.06462555,0.9794628,-30.85922,3.694251,-19.1955,1011.484
16.085546017,0.1976999,0.0615045,-0.1597527,0.183907,0.06707442,0.9842995,-30.85922,3.694251,-19.1955,1011.484
16.105361939,0.1363187,0.2428896,-0.3430511,0.1829627,0.05877877,0.9789527,-30.48797,3.705451,-18.81687,1011.484
16.125178337,-0.04780072,0.1214063,-0.1591056,0.1814677,0.06314534,0.9756045,-30.48797,3.705451,-18.81687,1011.484
16.144994259,0.1355584,0.2419369,-0.0975821,0.1819824,0.06219041,0.9823543,-30.48797,3.705451,-18.81687,1011.479
16.167287350,0.1351565,0.2414436,0.02507597,0.1848938,0.06220083,0.9804078,-31.22905,3.697485,-18.81409,1011.479
16.187103748,0.1961082,0.1805717,-0.09690879,0.1814863,0.06511413,0.9843027,-31.22905,3.697485,-18.81409,1011.482
16.206919670,0.07330268,0.2407451,-0.03544545,0.1789945,0.06701409,0.9698458,-30.49947,4.438842,-18.82983,1011.482
16.226736069,0.07298402,0.1192483,-0.2796223,0.1849053,0.06220903,0.9837865,-30.49947,4.438842,-18.82983,1011.482
16.246551991,0.1952293,0.05843626,-0.09572091,0.1805163,0.0616889,0.9794636,-30.49947,4.438842,-18.82983,1011.482
16.266367436,0.07256065,0.2394667,-0.1566623,0.1838895,0.06608416,0.977537,-30.8693,4.442076,-18.44843,1011.482
16.286184311,0.1333813,0.3601379,-0.09514496,0.1780939,0.05972745,0.9789842,-30.8693,4.442076,-18.44843,1011.482
16.305999756,0.1331809,0.2386261,-0.2172118,0.185855,0.06366429,0.9794446,-30.48727,3.712668,-18.43685,1011.485
16.325816155,0.07165151,0.1777422,-0.1557727,0.1834381,0.05926235,0.9765392,-30.48727,3.712668,-18.43685,1011.485
16.345632076,0.3162518,0.2378277,-0.1554393,0.1824294,0.06363144,0.9731884,-30.48727,3.712668,-18.43685,1011.489
16.365448475,0.1934137,0.2373447,-0.2161923,0.1809939,0.06266292,0.9785007,-30.48868,3.698235,-19.19689,1011.489
16.385264397,0.07076869,0.1159514,-0.3381088,0.1824485,0.06315623,0.9780126,-30.48868,3.698235,-19.19689,1011.492
16.405080795,0.2542145,0.3575971,-0.2765774,0.1834223,0.06267317,0.9775221,-30.87001,4.434859,-18.82844,1011.492
16.427373886,0.07025736,0.175581,-0.09255861,0.1814742,0.06315003,0.9775352,-30.87001,4.434859,-18.82844,1011.49
16.447189808,-0.05255901,0.2355009,-0.2146128,0.1853998,0.06075077,0.9837763,-30.87001,4.434859,-18.82844,1011.49
16.467006207,0.008460437,0.2350427,-0.2143236,0.1795382,0.06265771,0.9794739,-31.22496,3.38469,-19.18871,1011.494
16.486822128,0.2531425,0.355573,-0.09159494,0.1819513,0.06510141,0.9780254,-31.22496,3.38469,-19.18871,1011.494
16.506638050,0.06901796,0.173674,-0.09126902,0.1863234,0.06512055,0.9765535,-30.12319,4.076129,-18.82474,1011.498
16.526454449,-0.05381443,0.2338076,-0.09094395,0.1853829,0.06171641,0.9804026,-30.12319,4.076129,-18.82474,1011.498
16.546270371,0.0685185,0.1123282,-0.09067722,0.182448,0.06266696,0.9770448,-30.12319,4.076129,-18.82474,1011.499
16.566086769,0.3131458,0.1723879,-0.1513433,0.18489,0.06317585,0.9808954,-30.85372,3.39589,-18.81008,1011.499
16.585902691,0.1902387,0.3535692,-0.1509824,0.1814884,0.06120466,0.9784905,-30.85372,3.39589,-18.81008,1011.497
16.605719090,0.251302,0.1715423,-0.2729667,0.1819726,0.06365001,0.9818791,-30.49372,4.072147,-18.82335,1011.497
16.625535011,0.1285117,0.1106179,-0.2725886,0.1775732,0.06263359,0.9736925,-30.49372,4.072147,-18.82335,1011.5
16.645351410,0.005741333,0.2918593,-0.02756154,0.1834501,0.05975982,0.9808857,-30.49372,4.072147,-18.82335,1011.5
16.665167332,0.06671052,0.1098164,-0.2106533,0.1848867,0.06170687,0.9775091,-30.85851,3.701468,-18.81548,1011.502
16.684983730,0.127738,0.1092747,-0.02677144,0.1829344,0.06706938,0.9843048,-30.85851,3.701468,-18.81548,1011.502
16.707276821,0.005025581,0.1695168,-0.1487328,0.1853529,0.06413932,0.9755884,-30.50018,4.431626,-19.20985,1011.5
16.727092743,0.2495817,0.04821774,-0.2707035,0.1833825,0.0680223,0.9746538,-30.50018,4.431626,-19.20985,1011.5
16.746909142,0.3717872,0.2294449,-0.08682444,0.1834076,0.06706252,0.9804409,-30.50018,4.431626,-19.20985,1011.503
16.766725064,0.004125755,0.2292488,0.158101,0.1863708,0.05782137,0.9784464,-30.86426,4.068163,-18.82196,1011.503
16.786541462,0.1875468,0.3498316,-0.2085795,0.1844113,0.06268992,0.9823436,-30.86426,4.068163,-18.82196,1011.503
16.806357384,0.06493569,0.2284027,-0.08594207,0.1829332,0.06315757,0.9775273,-30.85922,3.694251,-19.1955,1011.503
16.826173783,0.1258523,0.1674686,-0.1467928,0.1863403,0.06415491,0.9799271,-30.85922,3.694251,-19.1955,1011.506
16.845989227,-0.05806787,0.1064404,-0.1463859,0.1844151,0.0617149,0.9818558,-30.85922,3.694251,-19.1955,1011.506
16.865806103,0.1866466,0.04548963,-0.08483669,0.1887714,0.06514485,0.9813669,-31.22905,3.697485,-18.81409,1011.501
16.885621548,0.06384559,-0.01540311,-0.02334599,0.1824529,0.06267048,0.9784927,-31.22905,3.697485,-18.81409,1011.501
16.905437470,0.2473857,0.1053571,-0.1453435,0.1848682,0.0656046,0.9784946,-30.86497,4.060947,-19.20198,1011.502
16.925253868,0.1246821,-0.1370341,-0.08381625,0.1785535,0.06215522,0.9751327,-30.86497,4.060947,-19.20198,1011.502
16.945069790,0.063251,0.04433514,-0.02246267,0.1829468,0.05925632,0.9750937,-30.86497,4.060947,-19.20198,1011.501
16.967362881,0.1239793,0.04392505,-0.02203462,0.1819551,0.06412639,0.9775376,-30.86426,4.068163,-18.82196,1011.501
16.987179279,0.001239549,0.1040995,-0.2051595,0.1809983,0.06511044,0.9838228,-30.86426,4.068163,-18.82196,1011.505
17.006995201,0.2457859,0.04334444,-0.2048363,0.1819632,0.05973235,0.9726882,-31.22905,3.697485,-18.81409,1011.505
17.026811600,0.1843005,0.1640142,-0.265638,0.1824638,0.06218941,0.9809036,-31.22905,3.697485,-18.81409,1011.506
17.046627522,0.1227389,0.1029568,-0.2042502,0.1858376,0.06560729,0.9775239,-31.22905,3.697485,-18.81409,1011.506
17.066443920,0.3061504,0.1631921,-0.02030753,0.1868179,0.06366229,0.9765433,-30.85851,3.701468,-18.81548,1011.507
17.086259842,-0.0002858257,0.04173806,-0.08105424,0.1829393,0.06560626,0.9833319,-30.85851,3.701468,-18.81548,1011.507
17.106076241,0.1219705,0.04132941,-0.1418981,0.1853867,0.06220803,0.9823357,-30.48797,3.705451,-18.81687,1011.508
17.125892162,-0.1232312,-0.01947703,-0.01917862,0.1829447,0.06316578,0.980906,-30.48797,3.705451,-18.81687,1011.508
17.145708561,0.06037497,0.2222238,-0.2023683,0.1843759,0.06608668,0.9775344,-30.48797,3.705451,-18.81687,1011.508
17.165524483,-0.00118309,-0.02008096,-0.07968894,0.1805032,0.06314616,0.9780232,-30.12389,4.068913,-19.20476,1011.508
17.185340881,0.1211522,0.04008335,0.04293199,0.1839272,0.06317784,0.9837968,-30.12389,4.068913,-19.20476,1011.511
17.205156803,0.05969146,0.1608562,-0.2627385,0.1849162,0.0587947,0.9813554,-30.12389,4.068913,-19.20476,1011.511
17.224973202,0.1207367,0.1000536,-0.1400418,0.179536,0.06363391,0.9804444,-31.22905,3.697485,-18.81409,1011.511
17.247266293,0.1815523,0.03904954,-0.1396847,0.1843862,0.06364971,0.9765565,-31.22905,3.697485,-18.81409,1011.511
17.267082214,0.05882173,0.2807174,-0.3227254,0.1800005,0.06606519,0.978041,-30.87001,4.434859,-18.82844,1011.508
17.286898613,0.3035119,0.03820881,-0.2000318,0.185837,0.06511803,0.9765561,-30.87001,4.434859,-18.82844,1011.508
17.306714535,-0.002994632,0.09839758,-0.07741586,0.1824529,0.06413712,0.9809137,-30.86004,3.685832,-19.63885,1011.511
17.326530933,0.05807339,0.03748596,-0.07710634,0.1839004,0.06120319,0.9726852,-30.86004,3.685832,-19.63885,1011.511
17.346346855,-0.003325038,0.09761959,-0.1991034,0.1882692,0.06708652,0.9799317,-30.86004,3.685832,-19.63885,1011.513
17.366163254,0.05787837,0.03689982,-0.07645141,0.1810322,0.06171251,0.9881492,-30.87001,4.434859,-18.82844,1011.513
17.385979176,0.3025515,0.1574907,-0.1372684,0.1824611,0.06267633,0.9809061,-30.87001,4.434859,-18.82844,1011.517
17.405795574,-0.003894947,0.2783107,-0.07574222,0.1824502,0.06462403,0.9809162,-30.87001,4.434859,-18.82844,1011.517
17.425611496,0.05706002,0.09635882,-0.1977235,0.1844124,0.05926856,0.9770166,-31.23633,4.048544,-19.64395,1011.514
17.445427895,0.05678212,0.277484,-0.1972846,0.1824557,0.06511682,0.983332,-31.23633,4.048544,-19.64395,1011.514
17.465243340,0.1178153,0.0350214,-0.01337874,0.1844113,0.06122328,0.9799227,-30.87001,4.434859,-18.82844,1011.516
17.485060215,0.1174618,0.1557309,-0.196487,0.181019,0.06170314,0.9842877,-30.87001,4.434859,-18.82844,1011.516
17.507353306,0.1783828,0.03441756,-0.0738183,0.1819376,0.06460276,0.973196,-30.87001,4.434859,-18.82844,1011.517
17.527168751,-0.0668451,0.03417911,-0.1346227,0.1824491,0.0636455,0.9789805,-30.85851,3.701468,-18.81548,1011.517
17.546985626,0.1167156,0.1549478,-0.1343231,0.1858392,0.06414184,0.9755858,-30.85851,3.701468,-18.81548,1011.519
17.566801071,0.05532362,0.09397011,-0.01179541,0.1849178,0.05879587,0.981838,-30.48868,3.698235,-19.19689,1011.519
17.586617947,0.3612176,0.09363925,-0.01140106,0.1810054,0.06267112,0.9818794,-30.48868,3.698235,-19.19689,1011.518
17.606433392,0.1771678,0.03300542,-0.01114212,0.1834272,0.06267668,0.9789702,-30.48868,3.698235,-19.19689,1011.518
17.626250267,0.238091,0.09324522,-0.0720462,0.1868424,0.06221323,0.9813625,-30.49947,4.438842,-18.82983,1011.518
17.646065712,0.05415799,0.2745492,-0.07173096,0.1824403,0.06315038,0.9755992,-30.49947,4.438842,-18.82983,1011.518
17.665882111,0.05394514,0.03217003,-0.0715317,0.1814748,0.06217266,0.9760821,-30.86509,4.059743,-19.26532,1011.521
17.685698033,0.1761421,0.0320703,-0.07129452,0.1829354,0.06364802,0.9789779,-30.86509,4.059743,-19.26532,1011.521
17.705514431,0.05338675,0.1528442,-0.1933829,0.1805169,0.0636448,0.9828525,-30.86509,4.059743,-19.26532,1011.523
17.725330353,-0.06913733,0.09192879,-0.1930126,0.1790552,0.06412418,0.982863,-30.86509,4.059743,-19.26532,1011.523
17.745146752,0.1143522,-0.09002998,-0.2539401,0.1868212,0.06513127,0.9799295,-30.86509,4.059743,-19.26532,1011.522
17.764962673,0.1142188,0.09139219,-0.07019911,0.1805081,0.06314968,0.9794711,-30.50018,4.431626,-19.20985,1011.522
17.787255764,-0.008570649,0.09109608,-0.131029,0.1844069,0.06170904,0.9794424,-30.50018,4.431626,-19.20985,1011.524
17.807072163,0.1749398,0.1513611,0.0528642,0.1853785,0.06220217,0.9799224,-30.50018,4.431626,-19.20985,1011.524
17.826888085,0.2358686,0.09043043,-0.1303912,0.1814938,0.05876419,0.9760645,-30.11264,3.403855,-18.81286,1011.527
17.846704483,0.1130209,0.2110578,-0.1300638,0.1839076,0.0646304,0.9804257,-30.11264,3.403855,-18.81286,1011.527
17.866520405,-0.009691361,0.08971143,-0.1296605,0.1849118,0.06074708,0.9832962,-30.12319,4.076129,-18.82474,1011.527
17.886336804,0.112723,0.2710432,-0.1294118,0.1790753,0.06022761,0.9823601,-30.12319,4.076129,-18.82474,1011.527
17.906153202,0.2350031,0.2706476,-0.06788605,0.1795218,0.06411263,0.9770682,-30.12319,4.076129,-18.82474,1011.528
17.925969124,-0.0101747,0.1493226,-0.006457217,0.1829322,0.0651123,0.9804335,-31.5948,3.387924,-18.80731,1011.528
17.945785523,0.2345541,0.1488148,-0.006095443,0.1795595,0.06120632,0.9833278,-31.5948,3.387924,-18.80731,1011.529
17.965601444,0.1729816,-0.03315387,-0.1282707,0.1795186,0.06411029,0.9761028,-30.48797,3.705451,-18.81687,1011.529
17.985417843,0.1725666,0.08765084,-0.1891495,0.1848638,0.06609036,0.9780145,-30.48797,3.705451,-18.81687,1011.531
18.005233765,0.04997383,0.08729783,-0.3112107,0.1819568,0.06559419,0.9804413,-30.48797,3.705451,-18.81687,1011.531
18.025050163,0.1111587,0.3291865,-0.06622113,0.1819551,0.06559302,0.9799585,-30.86426,4.068163,-18.82196,1011.531
18.047343254,0.2945644,0.1472886,-0.1883591,0.1839076,0.0646304,0.9804257,-30.86426,4.068163,-18.82196,1011.531
18.067159176,0.04925609,0.328229,0.05662926,0.1868081,0.06658853,0.978489,-30.4888,3.697032,-19.26023,1011.534
18.086975575,0.110289,0.02533531,-0.1879133,0.1838934,0.06657577,0.9794703,-30.4888,3.697032,-19.26023,1011.534
18.106791496,-0.01245478,0.1459932,-0.1875951,0.1848862,0.06268423,0.9789622,-30.4888,3.697032,-19.26023,1011.534
18.126607895,0.2933787,0.1457026,-0.06501029,0.1858649,0.06367131,0.9823407,-30.86509,4.059743,-19.26532,1011.534
18.146423817,-0.07427824,0.2057926,-0.1870185,0.1805387,0.05974941,0.9828324,-30.86509,4.059743,-19.26532,1011.537
18.166240215,0.1091666,0.2056177,-0.1254633,0.1853589,0.06512138,0.9789722,-30.49455,4.063727,-19.2667,1011.537
18.186056137,0.1090079,0.1447408,-0.4310182,0.1824813,0.0602464,0.9828243,-30.49455,4.063727,-19.2667,1011.539
18.205872536,0.2925498,0.2654027,-0.1248533,0.1834097,0.06315307,0.9746287,-30.49455,4.063727,-19.2667,1011.539
18.225688458,0.169829,-0.09824485,-0.124559,0.1819382,0.06509203,0.9741639,-30.87001,4.434859,-18.82844,1011.536
18.245504856,0.04699335,0.2040525,-0.001806211,0.1834217,0.06365053,0.9789752,-30.87001,4.434859,-18.82844,1011.536
18.265320778,-0.01437732,0.02221102,0.05961028,0.1814666,0.06363343,0.9760897,-31.22905,3.697485,-18.81409,1011.538
18.285137177,0.1080104,0.1430857,-0.06257626,0.1834059,0.06706135,0.9799581,-31.22905,3.697485,-18.81409,1011.538
18.307430267,0.1075133,0.1428146,-0.06234188,0.1878014,0.06318626,0.9789489,-31.22905,3.697485,-18.81409,1011.541
18.327246666,0.1072242,0.02146873,-0.0008116998,0.1834076,0.06559588,0.97802,-31.22905,3.697485,-18.81409,1011.541
18.347062588,0.04562537,0.1420794,-0.1228275,0.1872927,0.06512324,0.9755828,-31.22905,3.697485,-18.81409,1011.542
18.366878986,0.1066482,0.1417986,-0.06137594,0.1814633,0.06509773,0.9775453,-31.2348,4.064181,-18.82057,1011.542
18.386694908,0.1065151,0.2018605,-0.2446133,0.1844293,0.06123617,0.9852322,-31.2348,4.064181,-18.82057,1011.542
18.406511307,-0.1386477,0.140936,0.06152511,0.1863206,0.06414084,0.974135,-31.2348,4.064181,-18.82057,1011.542
18.426327229,0.04482421,0.1406581,-0.1217903,0.1819595,0.06364064,0.9780178,-30.49372,4.072147,-18.82335,1011.543
18.446143627,0.0446348,0.1404949,0.0007059984,0.1839027,0.06609353,0.9813985,-30.49372,4.072147,-18.82335,1011.543
18.465959549,0.1668359,0.2005789,-0.1213903,0.1829322,0.06657894,0.9828544,-30.49372,4.072147,-18.82335,1011.541
18.485775948,0.1665708,0.1396576,-0.1210472,0.1814928,0.06218555,0.9813916,-30.86509,4.059743,-19.26532,1011.541
18.505591869,-0.07866587,0.01839557,-0.05961923,0.1848835,0.06463779,0.9813856,-30.86509,4.059743,-19.26532,1011.542
18.525408268,-0.0788143,0.01815942,0.001923278,0.1848818,0.06170335,0.9760611,-30.86356,4.075381,-18.44195,1011.542
18.545224190,-0.01780579,0.01792391,-0.05907125,0.1848753,0.0631653,0.9765514,-30.86356,4.075381,-18.44195,1011.544
18.565040589,0.1657471,0.07810681,-0.1199126,0.1829272,0.06364215,0.9765645,-30.86356,4.075381,-18.44195,1011.544
18.587333679,0.1655479,0.1988546,-0.1807555,0.1839053,0.06120671,0.9741332,-30.49455,4.063727,-19.2667,1011.541
18.607150078,0.2265965,0.07765286,-0.2416177,0.1834403,0.0641527,0.9852526,-30.49455,4.063727,-19.2667,1011.541
18.626966000,0.1037721,0.01683123,-0.1188975,0.183413,0.06462203,0.9780149,-30.86509,4.059743,-19.26532,1011.542
18.646782398,0.1036845,0.1376434,-0.05755168,0.1858713,0.05780948,0.9745877,-30.86509,4.059743,-19.26532,1011.542
18.666598320,0.04220986,0.01631049,-0.1184929,0.1819665,0.06120133,0.9760745,-30.86509,4.059743,-19.26532,1011.543
18.728523731,0.1640018,0.1968493,-0.0564034,0.1780923,0.05972628,0.9785015,-30.87084,4.426439,-19.2718,1011.539
18.745862961,0.1637761,0.136094,-0.1174228,0.184872,0.06316296,0.975586,-30.87084,4.426439,-19.2718,1011.542
18.765679360,0.1024005,0.07529663,-0.1171855,0.1799951,0.06557241,0.9756251,-30.87084,4.426439,-19.2718,1011.542
18.785494805,0.04090991,0.07486067,-0.1169298,0.1839037,0.06560543,0.9809133,-30.12248,4.083347,-18.44472,1011.542
18.805311680,0.1020021,0.1956791,-0.05545454,0.1795218,0.06557927,0.979489,-30.12248,4.083347,-18.44472,1011.542
18.825128079,0.04055102,0.1348081,0.005981468,0.185843,0.06170018,0.9726771,-30.11673,3.716651,-18.43824,1011.541
18.847421169,0.04030197,0.1947123,-0.2384357,0.1775923,0.06069175,0.9760958,-30.11673,3.716651,-18.43824,1011.541
18.867237091,0.1626869,0.07323606,-0.176905,0.1819584,0.06266209,0.976082,-30.11673,3.716651,-18.43824,1011.543
18.887053490,0.3461711,0.07305217,-0.1153943,0.1819573,0.0631502,0.9765673,-31.24712,4.789152,-19.27689,1011.543
18.906869412,0.1009831,0.3148436,-0.1150663,0.1824442,0.06657524,0.9823743,-31.24712,4.789152,-19.27689,1011.544
18.926685810,0.03951538,0.07238226,-0.1147391,0.1805087,0.06217231,0.9780182,-30.85851,3.701468,-18.81548,1011.544
18.946501255,0.100592,0.01155498,-0.1756711,0.1800093,0.06656032,0.9814222,-30.85851,3.701468,-18.81548,1011.541
18.966318131,0.2229601,0.07167779,-0.05307787,0.1804945,0.0655843,0.9794837,-30.85851,3.701468,-18.81548,1011.541
18.986134529,0.1002602,0.3740612,0.06947626,0.1795502,0.06022193,0.9789788,-31.23984,4.438094,-18.44704,1011.543
19.005950451,0.09998937,0.1316032,-0.113744,0.1839207,0.06463978,0.984287,-31.23984,4.438094,-18.44704,1011.543
19.025766850,-0.08398131,0.07089294,-0.1746402,0.1804809,0.06655229,0.9770755,-30.11744,3.709434,-18.81826,1011.544
19.045582771,0.03831212,0.07058203,-0.2966227,0.1834277,0.06023269,0.9750961,-30.11744,3.709434,-18.81826,1011.544
19.065399170,0.1607021,0.009683236,-0.1127361,0.1844271,0.05781247,0.9789397,-30.11744,3.709434,-18.81826,1011.539
19.085214615,0.2217244,0.07003857,-0.05129064,0.1819546,0.06657039,0.9814116,-30.85851,3.701468,-18.81548,1011.539
19.105031490,0.1601071,0.1301855,-0.1732948,0.1829327,0.06413494,0.9789804,-30.85851,3.701468,-18.81548,1011.541
19.127324581,0.2210038,0.1903685,-0.1729398,0.1839059,0.06462923,0.9799429,-31.24208,4.41524,-19.65042,1011.541
19.147140980,-0.08541082,0.06915009,-0.1114777,0.1800049,0.06557944,0.9785211,-31.24208,4.41524,-19.65042,1011.542
19.166956902,-0.02438572,0.189774,-0.05007367,0.1873097,0.0641576,0.9789565,-31.24208,4.41524,-19.65042,1011.542
19.186773300,0.2202251,0.1895065,0.07249217,0.1863507,0.0646512,0.9837911,-31.23562,4.055761,-19.26393,1011.544
19.206589222,0.03627932,0.06823336,-0.1719557,0.1834293,0.06023386,0.9755788,-31.23562,4.055761,-19.26393,1011.544
19.226405621,0.03614987,0.1283089,-0.04939105,0.1810103,0.06267464,0.9833274,-30.86426,4.068163,-18.82196,1011.543
19.246221542,-0.02530886,0.1885754,-0.1714,0.1829305,0.06511113,0.9799507,-30.86426,4.068163,-18.82196,1011.543
19.266037941,-0.02551441,0.1277983,-0.1711425,0.1849135,0.05928162,0.981358,-30.86426,4.068163,-18.82196,1011.545
19.285854340,-0.1482056,0.1274964,-0.04857989,0.1800022,0.06459973,0.9761027,-30.87084,4.426439,-19.2718,1011.545
19.305670261,0.09652376,0.2482207,-0.1706292,0.1834244,0.06169697,0.9765518,-30.87084,4.426439,-19.2718,1011.546
19.325486660,0.2798859,0.1874268,-0.1091343,0.1814323,0.06947537,0.9756373,-30.49455,4.063727,-19.2667,1011.546
19.345302582,0.1571007,0.1267285,-0.1088796,0.1844309,0.05977071,0.9832938,-30.49455,4.063727,-19.2667,1011.542
19.365118980,0.09547285,0.3079674,-0.2309504,0.1833934,0.06754124,0.9770646,-30.49455,4.063727,-19.2667,1011.542
19.387412071,-0.02718675,0.00508488,-0.04717552,0.1824584,0.06462989,0.9833295,-31.2348,4.064181,-18.82057,1011.543
19.407228470,0.2175656,0.1864012,-0.2304293,0.1809535,0.06605617,0.9722436,-31.2348,4.064181,-18.82057,1011.543
19.427044392,0.03358807,0.1860092,-0.1688611,0.1887419,0.06659039,0.9750997,-30.85851,3.701468,-18.81548,1011.539
19.446860790,0.03329236,0.004174989,-0.1073707,0.1868637,0.0592952,0.9827955,-30.85851,3.701468,-18.81548,1011.539
19.466676712,-0.02815928,0.1854558,-0.1071588,0.1810021,0.06266879,0.9809141,-30.85851,3.701468,-18.81548,1011.539
19.486493111,0.09412853,0.003661055,-0.2291187,0.1853611,0.06414518,0.9780018,-30.8578,3.708685,-18.43546,1011.539
19.506309033,0.2163976,0.1849431,-0.1065834,0.1780481,0.06849444,0.9799948,-30.8578,3.708685,-18.43546,1011.537
19.526125431,0.1550052,0.1846877,-0.2897263,0.1838781,0.06754259,0.9765793,-31.23409,4.071398,-18.44056,1011.537
19.545941353,0.2159649,0.1843,-0.1670581,0.1844015,0.06121625,0.9770266,-31.23409,4.071398,-18.44056,1011.539
19.565757752,0.03187609,0.0630018,0.01671423,0.1824393,0.0651051,0.9785053,-31.23409,4.071398,-18.44056,1011.539
19.585574150,0.09293346,0.002236079,-0.1665463,0.1834234,0.06218507,0.977037,-31.22905,3.697485,-18.81409,1011.54
19.605390072,0.09268095,-0.05837723,0.01709036,0.1848938,0.06073419,0.9779868,-31.22905,3.697485,-18.81409,1011.54
19.625206471,0.03111871,0.1228517,-0.04388462,0.1790437,0.06411598,0.9794841,-31.22905,3.697485,-18.81409,1011.538
19.645022392,0.09215869,0.1225622,-0.1049368,0.1839245,0.06219813,0.9813784,-30.86426,4.068163,-18.82196,1011.538
19.667315960,-0.03062616,0.1828237,-0.1657646,0.1834255,0.06267551,0.9784874,-30.86426,4.068163,-18.82196,1011.539
19.687131882,-0.09195572,0.122042,-0.1043395,0.1858474,0.0641477,0.9779992,-30.49372,4.072147,-18.82335,1011.539
19.706948280,0.2752339,-0.0597834,-0.1651633,0.1843781,0.06804375,0.9814059,-30.49372,4.072147,-18.82335,1011.536
19.726764202,0.09109244,0.06105024,0.01860438,0.1785383,0.0660553,0.9770836,-30.87084,4.426439,-19.2718,1011.536
19.746580601,-0.03166081,0.2423781,-0.1034601,0.1849113,0.06172445,0.9847493,-30.87084,4.426439,-19.2718,1011.54
19.766396523,0.02932545,0.3630228,-0.04186512,0.1790551,0.06265754,0.980442,-30.87084,4.426439,-19.2718,1011.54
19.786212921,0.1516611,0.06002279,-0.04158723,0.1873063,0.06268861,0.9755703,-30.11673,3.716651,-18.43824,1011.542
19.806029320,0.1515879,0.1202329,-0.1024725,0.1829305,0.06217787,0.9751089,-30.11673,3.716651,-18.43824,1011.542
19.825845242,0.02895186,0.05941825,-0.04093765,0.1839206,0.06170652,0.979445,-30.11673,3.716651,-18.43824,1011.544
19.845661640,0.2737938,-0.06185129,-0.2853695,0.1843916,0.06267586,0.9765515,-30.4888,3.697032,-19.26023,1011.544
19.865477562,-0.03267664,0.1193863,-0.1014921,0.1858588,0.059756,0.9741151,-30.4888,3.697032,-19.26023,1011.541
19.885293961,0.1509329,-0.001805894,-0.1012181,0.1858572,0.06415473,0.9808952,-30.86509,4.059743,-19.26532,1011.541
19.905110359,0.2119989,0.1794329,-0.1008296,0.1849042,0.05976386,0.9794297,-30.86509,4.059743,-19.26532,1011.542
19.924926281,0.02793921,0.2395901,-0.1616621,0.1853753,0.06366646,0.981378,-30.86509,4.059743,-19.26532,1011.542
19.947219372,0.02772577,-0.06309919,0.02214736,0.1829267,0.06461951,0.9780176,-30.48797,3.705451,-18.81687,1011.544
19.967035771,-0.03371183,0.2391859,-0.2834708,0.184396,0.06365673,0.9794525,-30.48797,3.705451,-18.81687,1011.544
19.986851692,-0.03393468,-0.003332414,-0.1609142,0.1868261,0.06366815,0.9789567,-30.12976,4.434405,-19.27457,1011.541
20.006668091,-0.03411858,-0.003627956,0.02311156,0.1843655,0.06999028,0.9809333,-30.12976,4.434405,-19.27457,1011.541
20.026484489,0.3331373,0.05664686,-0.1601266,0.180977,0.06656184,0.9799688,-30.12976,4.434405,-19.27457,1011.544
20.046300411,0.0267679,0.177549,-0.09867734,0.1854004,0.06270666,0.9871651,-30.4888,3.697032,-19.26023,1011.544
20.066116810,0.2101897,0.1167994,-0.0982952,0.1814803,0.06413208,0.980919,-30.4888,3.697032,-19.26023,1011.538
20.085932732,-0.09635161,-0.004538223,-0.09791414,0.1834595,0.06514411,0.9924976,-30.12177,4.090563,-18.0647,1011.538
20.105749130,0.02599212,-0.004868664,0.02461817,0.1790698,0.05826819,0.9775233,-30.12177,4.090563,-18.0647,1011.541
20.125565529,0.2093773,0.2368145,-0.03627981,0.1819607,0.06901906,0.9872163,-30.12177,4.090563,-18.0647,1011.541
20.145381451,0.1481369,0.1760492,0.02503142,0.1786131,0.0597534,0.9886351,-30.49455,4.063727,-19.2667,1011.543
20.165197849,-0.09713042,0.2362338,-0.03590585,0.1829392,0.05973973,0.9736483,-30.49455,4.063727,-19.2667,1011.543
20.185013771,0.3312865,-0.006315157,-0.09690143,0.1814126,0.07239456,0.974687,-30.12894,4.442825,-18.83122,1011.54
20.207307339,-0.1589021,-0.006506234,-0.1579053,0.1785066,0.0670104,0.9693658,-30.12894,4.442825,-18.83122,1011.54
20.227123261,0.2697275,-0.06723049,-0.1575856,0.1853954,0.05830325,0.9784542,-30.12894,4.442825,-18.83122,1011.536
20.246939659,0.3307452,0.1141725,-0.09620029,0.1829098,0.0714517,0.9843275,-30.49372,4.072147,-18.82335,1011.536
20.266755581,-0.03677491,0.05335417,0.02642368,0.1858686,0.05976303,0.9770111,-30.49372,4.072147,-18.82335,1011.539
20.286571980,-0.09826187,0.2952711,-0.03457478,0.1810075,0.05876167,0.9760672,-30.49372,4.072147,-18.82335,1011.539
20.306388378,0.02395207,0.1132387,-0.03452637,0.1834343,0.06317064,0.9818687,-30.49372,4.072147,-18.82335,1011.54
20.326204300,0.1464358,0.05232771,-0.03420932,0.1815261,0.05976498,0.9871712,-30.49372,4.072147,-18.82335,1011.54
20.346020699,0.2076475,0.1127851,-0.0341043,0.1897162,0.0665966,0.9755771,-30.49947,4.438842,-18.82983,1011.536
20.365836620,0.08488974,0.1126348,-0.1562477,0.1858272,0.06804426,0.9785019,-30.49947,4.438842,-18.82983,1011.536
20.385653019,0.1459678,-0.008730277,-0.09488493,0.1853326,0.06363599,0.9688284,-30.49877,4.44606,-18.44981,1011.535
20.405469418,0.1457744,-0.06939196,-0.1559052,0.1799989,0.06313076,0.9727165,-30.49877,4.44606,-18.44981,1011.535
20.425285339,0.2067958,0.3539343,-0.1556673,0.1820075,0.05976399,0.9857204,-30.49877,4.44606,-18.44981,1011.532
20.445101738,0.2676255,0.1721914,-0.1553917,0.1809957,0.06999726,0.9910881,-30.49947,4.438842,-18.82983,1011.532
20.464917660,-0.03892553,0.1720631,-0.09391597,0.1873778,0.05345111,0.9813145,-30.49947,4.438842,-18.82983,1011.532
20.487210751,0.1445773,0.3532104,-0.1548323,0.1877769,0.06610195,0.9765506,-30.48318,3.399872,-18.81147,1011.533
20.507027149,0.02192044,0.05023517,-0.1545396,0.1848714,0.06267369,0.9746182,-30.48318,3.399872,-18.81147,1011.529
20.526844025,0.08271445,-0.01046053,-0.09323877,0.1858796,0.0651485,0.9891056,-30.48318,3.399872,-18.81147,1011.529
20.546659470,-0.1012322,0.04985049,-0.03178468,0.186331,0.06610377,0.9804199,-30.12319,4.076129,-18.82474,1011.532
20.566475868,0.4497964,-0.01090134,-0.09286734,0.1887572,0.06709021,0.9804117,-30.12319,4.076129,-18.82474,1011.532
20.586292744,0.2659278,0.1098095,-0.03143342,0.1858649,0.06367131,0.9823407,-30.8578,3.708685,-18.43546,1011.528
20.606108189,0.2044111,0.04902112,-0.03137363,0.1839327,0.06513726,0.9886336,-30.8578,3.708685,-18.43546,1011.528
20.625925064,-0.163253,0.2303793,-0.03112211,0.1853665,0.06023806,0.9731548,-30.8578,3.708685,-18.43546,1011.529
20.645740509,0.3263904,0.1090604,-0.09222567,0.1819786,0.06316543,0.9828421,-30.85851,3.701468,-18.81548,1011.529
20.665557385,-0.1025252,0.04829292,0.1528285,0.1800606,0.06268601,0.9900901,-30.85851,3.701468,-18.81548,1011.529
20.685373783,0.264691,-0.1335184,-0.03038988,0.1878009,0.06123035,0.9755601,-30.49455,4.063727,-19.2667,1011.532
20.705189228,0.2645645,0.1686396,-0.03025604,0.1833825,0.07095557,0.9794955,-30.49455,4.063727,-19.2667,1011.532
20.725006104,0.01946598,0.1684442,-0.0912082,0.1843922,0.06463175,0.9799402,-30.49455,4.063727,-19.2667,1011.53
20.747299195,0.3867735,-0.01318971,0.03135508,0.1794968,0.07240558,0.9833857,-30.49455,4.063727,-19.2667,1011.528
20.767115593,0.1415412,0.04712825,0.03160273,0.1819344,0.07046695,0.9819143,-30.49455,4.063727,-19.2667,1011.528
20.786931515,0.08010618,0.04691503,-0.1516761,0.1868134,0.05974815,0.9688004,-30.85934,3.693048,-19.25884,1011.529
20.806747914,0.2023913,0.1071581,-0.02908556,0.1843808,0.0660902,0.9789825,-30.85934,3.693048,-19.25884,1011.529
20.826563835,0.07958919,0.1067941,-0.1512607,0.1863731,0.0627117,0.9871598,-30.85934,3.693048,-19.25884,1011.53
20.846380234,0.1405651,0.2276274,0.03237596,0.1853944,0.06465788,0.9886231,-30.48893,3.766568,-18.81795,1011.53
20.866196633,0.017899,0.1667712,-0.2121056,0.18585,0.05926087,0.9707338,-30.48893,3.766568,-18.81795,1011.528
20.886012554,0.07883777,0.1059537,-0.02833523,0.1824589,0.05925263,0.9746138,-30.48893,3.766568,-18.81795,1011.528
20.905828953,0.01734867,0.1663143,-0.08915784,0.1868539,0.06368807,0.9871622,-30.49455,4.063727,-19.2667,1011.528
20.925645352,0.1396759,0.04481441,0.09449576,0.1819545,0.06363712,0.9765698,-30.49455,4.063727,-19.2667,1011.532
20.945461273,-0.04406761,0.1050627,-0.08886418,0.1849053,0.06367566,0.9862074,-30.48975,3.758148,-19.2613,1011.532
20.965277672,0.1396281,-0.01635949,-0.02761297,0.1829229,0.06559454,0.9785052,-30.48975,3.758148,-19.2613,1011.535
20.985093594,0.07814012,0.04394729,-0.08864849,0.1872873,0.06756372,0.9780088,-30.48975,3.758148,-19.2613,1011.535
21.004909992,-0.1055259,-0.01659974,-0.02720596,0.1819485,0.06265507,0.973186,-30.86029,3.754165,-19.25992,1011.535
21.027203083,0.1392063,0.1647764,0.09540683,0.1833939,0.06803051,0.9780325,-30.86029,3.754165,-19.25992,1011.537
21.047019482,0.2003209,0.1645147,-0.02688884,0.1815043,0.06366038,0.9871913,-30.12976,4.434405,-19.27457,1011.537
21.066835880,0.1389496,0.1642536,0.03447554,0.1848671,0.06462607,0.9765589,-30.12976,4.434405,-19.27457,1011.536
21.086651802,0.01615308,-0.1386083,-0.02663913,0.1858861,0.05928665,0.9813527,-30.12976,4.434405,-19.27457,1011.536
21.106468201,0.1995247,-0.01778565,-0.08758123,0.1858545,0.06317502,0.9784767,-30.87001,4.434859,-18.82844,1011.534
21.126284122,0.1378864,0.1031134,-0.02629488,0.1848934,0.06611145,0.9867026,-30.87001,4.434859,-18.82844,1011.534
21.146100521,0.01530388,0.2239369,-0.08725692,0.1805218,0.06218169,0.9818795,-30.49372,4.072147,-18.82335,1011.534
21.165916920,0.1987353,0.1026341,-0.2705061,0.1897353,0.06318813,0.9755595,-30.49372,4.072147,-18.82335,1011.535
21.185732842,0.01497815,0.1023004,-0.1479051,0.1805098,0.06315085,0.9799539,-30.49372,4.072147,-18.82335,1011.535
21.205549240,0.07603951,0.2836387,-0.02543928,0.1834211,0.060228,0.9731655,-30.48318,3.399872,-18.81147,1011.537
21.225365639,0.2595682,0.1623761,-0.08634586,0.1839081,0.06658632,0.9838144,-30.48318,3.399872,-18.81147,1011.537
21.245181561,0.1368147,0.1017406,0.0360231,0.1843807,0.06315693,0.9741406,-30.49372,4.072147,-18.82335,1011.537
21.264997959,0.07543004,0.1016181,-0.20841,0.1834223,0.06560642,0.982364,-30.49372,4.072147,-18.82335,1011.537
21.287291050,0.1364889,0.1619578,-0.08578456,0.1858217,0.06461821,0.9712441,-30.49372,4.072147,-18.82335,1011.538
21.307107925,0.3198658,0.3432792,-0.1468469,0.1858523,0.06561784,0.981868,-30.49372,4.072147,-18.82335,1011.541
21.326923370,0.07464786,0.1007844,0.0980372,0.1771016,0.06117499,0.9756183,-30.49372,4.072147,-18.82335,1011.541
21.346740246,0.135694,0.03999967,-0.1464365,0.184895,0.06464599,0.9847644,-30.86029,3.754165,-19.25992,1011.541
21.366556645,0.1967022,0.03991827,-0.2685089,0.1756328,0.06262703,0.9751511,-30.86029,3.754165,-19.25992,1011.537
21.386372089,0.0737607,0.0395521,-0.2071522,0.1843999,0.06561498,0.9838067,-30.86029,3.754165,-19.25992,1011.537
21.406188965,-0.04883375,-0.02123091,-0.1456809,0.180001,0.06215457,0.971746,-30.86509,4.059743,-19.26532,1011.538
21.426004410,0.2571872,0.1601895,-0.02314382,0.1814546,0.06753587,0.9790059,-30.86509,4.059743,-19.26532,1011.538
21.445821285,0.1958078,0.2808888,-0.2064003,0.1858419,0.06512155,0.9780042,-30.49455,4.063727,-19.2667,1011.535
