Time (s),Gyroscope X (deg/s),Gyroscope Y (deg/s),Gyroscope Z (deg/s),Accelerometer X (g),Accelerometer Y (g),Accelerometer Z (g),Magnetometer X (uT),Magnetometer Y (uT),Magnetometer Z (uT),Barometer (hPa)
0.000000000,0.0139995,0.0615045,-0.1597527,0.01598985,0.01316864,1.001353,15.97408,-26.90311,-34.27899,1010.549
0.002476692,0.07523298,0.0615045,-0.2209152,0.01549153,0.01560192,1.001851,15.97408,-26.90311,-34.27899,1010.547
0.004953861,0.1364664,0.1825299,-0.2820776,0.01938873,0.01562674,1.00376,15.97408,-26.90311,-34.27899,1010.547
0.007430553,0.3201669,0.3035553,-0.2209152,0.0164702,0.01512237,1.002808,16.64765,-26.52911,-34.28801,1010.547
0.009907246,0.2589334,0.364068,-0.2209152,0.01791665,0.01707645,1.002328,16.64765,-26.52911,-34.28801,1010.547
0.012384415,0.1364664,0.1220172,-0.2209152,0.01987727,0.01758633,1.007629,16.64765,-26.52911,-34.28801,1010.547
0.014861107,0.07523298,0.1220172,-0.2209152,0.02134825,0.01515808,1.007126,16.64765,-26.52911,-34.28801,1010.547
0.017338276,0.0139995,0.364068,-0.2820776,0.01843027,0.01514298,1.007142,16.64765,-26.52911,-34.28801,1010.547
0.019814968,0.2589334,0.2430426,-0.2820776,0.01694558,0.01413932,0.9979739,16.64765,-26.52911,-34.28801,1010.547
0.022292614,0.2589334,0.1825299,-0.2209152,0.01989686,0.01173386,1.003738,16.64765,-26.52911,-34.28801,1010.547
0.024769306,0.1364664,0.3035553,-0.09859026,0.02766942,0.01421227,1.005156,16.64765,-26.52911,-34.28801,1010.547
0.027246475,0.1364664,0.0615045,-0.2209152,0.02230234,0.01612759,1.003264,16.64765,-26.52911,-34.28801,1010.547
0.029723167,-0.1084674,0.0009917939,-0.1597527,0.02035427,0.01513782,1.000857,16.64765,-26.52911,-34.28801,1010.547
0.032199860,0.0139995,0.3035553,-0.3432401,0.02086296,0.01173421,1.001802,16.64765,-26.52911,-34.28801,1010.547
0.034677029,0.2589334,0.1220172,-0.2820776,0.02085481,0.01466161,1.00423,16.64765,-26.52911,-34.28801,1010.547
0.037154198,0.4426338,0.1220172,-0.03742781,0.02423234,0.01563784,0.9979417,16.64765,-26.52911,-34.28801,1010.547
0.039630890,0.3201669,0.1825299,-0.2820776,0.01645544,0.01511182,0.9984643,16.64765,-26.52911,-34.28801,1010.547
0.042107582,0.07523298,0.0615045,-0.3432401,0.01695704,0.01268089,0.9989316,16.64765,-26.52911,-34.28801,1010.547
0.044584751,0.07523298,0.0009917939,-0.09859026,0.02234052,0.01077728,1.00565,16.64765,-26.52911,-34.28801,1010.547
0.047061443,0.0139995,0.0615045,-0.2209152,0.0198958,0.01368859,1.006644,16.64765,-26.52911,-34.28801,1010.547
0.049539089,0.1976999,0.0615045,-0.2820776,0.02035374,0.01611518,1.00231,16.64765,-26.52911,-34.28801,1010.547
0.052015305,0.1976999,0.1825299,-0.2820776,0.01985866,0.01561754,0.9989309,16.64765,-26.52911,-34.28801,1010.547
0.054491997,0.3201669,0.1825299,-0.2209152,0.01746415,0.013676,1.006657,16.64765,-26.52911,-34.28801,1010.547
0.056969643,0.3201669,0.0615045,-0.2209152,0.01990229,0.009293377,1.001312,16.64765,-26.52911,-34.28801,1010.547
0.059445858,0.2589334,0.0615045,-0.1597527,0.02037282,0.01270671,1.002292,16.70858,-26.53687,-34.7316,1010.547
0.061923504,0.2589334,0.0615045,-0.1597527,0.01941055,0.01319797,1.006161,16.70858,-26.53687,-34.7316,1010.547
0.064400196,0.1976999,0.1220172,-0.2209152,0.02040173,0.009305269,1.00517,16.70858,-26.53687,-34.7316,1010.547
0.066877365,0.07523298,0.1825299,-0.2209152,0.0174614,0.01269629,1.004238,16.70858,-26.53687,-34.7316,1010.547
0.069354057,0.1364664,-0.05952091,-0.2820776,0.01988051,0.01465541,1.003753,16.70858,-26.53687,-34.7316,1010.547
0.071831226,0.1976999,0.2430426,-0.1597527,0.01554225,0.008305079,1.004709,16.70858,-26.53687,-34.7316,1010.547
0.074307919,0.07523298,0.2430426,-0.2820776,0.01890947,0.01318491,1.00182,16.70858,-26.53687,-34.7316,1010.547
0.076784611,0.1976999,0.1825299,-0.3432401,0.01841279,0.01561936,1.0028,16.70858,-26.53687,-34.7316,1010.547
0.079261780,0.1976999,0.0615045,-0.2209152,0.01745812,0.01269395,1.003273,16.70858,-26.53687,-34.7316,1010.547
0.081738472,0.2589334,0.1220172,-0.1597527,0.01940344,0.01270402,1.003263,16.70858,-26.53687,-34.7316,1010.55
0.084215641,0.4426338,0.1825299,-0.1597527,0.01891494,0.0136777,1.004236,16.70858,-26.53687,-34.7316,1010.55
0.086692333,0.1976999,0.0615045,-0.1597527,0.01986905,0.01611384,1.002795,16.70858,-26.53687,-34.7316,1010.55
0.089169979,0.07523298,0.0009917939,-0.2820776,0.01938215,0.01415542,0.9994087,16.70858,-26.53687,-34.7316,1010.55
0.091646671,0.0139995,0.3035553,-0.03742781,0.01549426,0.01511499,1.001848,16.70858,-26.53687,-34.7316,1010.55
0.094123840,0.1364664,0.3035553,-0.03742781,0.01792699,0.01463948,1.00135,16.70858,-26.53687,-34.7316,1010.55
0.096600533,0.07523298,0.0009917939,-0.1597527,0.02278594,0.01661703,1.003264,16.70858,-26.53687,-34.7316,1010.55
0.099077702,0.07523298,0.1825299,-0.2820776,0.02085314,0.01319381,1.001326,16.70858,-26.53687,-34.7316,1010.55
0.101554394,0.07523298,0.364068,-0.2209152,0.02182199,0.01417386,1.001809,16.70858,-26.53687,-34.7316,1010.55
0.104031086,0.1364664,0.0615045,-0.09859026,0.01500253,0.01901959,1.006698,16.70858,-26.53687,-34.7316,1010.55
0.106508255,0.1364664,-0.05952091,-0.1597527,0.01889207,0.01952782,1.007162,16.70858,-26.53687,-34.7316,1010.55
0.108984947,0.1364664,0.1220172,-0.1597527,0.0188991,0.01415525,1.000377,15.97408,-26.90311,-34.27899,1010.55
0.111462116,0.1364664,0.1220172,-0.2209152,0.01694835,0.01658566,1.002813,15.97408,-26.90311,-34.27899,1010.55
0.113938808,0.0139995,0.1825299,-0.2209152,0.02133185,0.01514637,1.002299,15.97408,-26.90311,-34.27899,1010.55
0.116415978,0.2589334,0.1220172,-0.3432401,0.01794717,0.01220954,1.003268,15.97408,-26.90311,-34.27899,1010.55
0.118892670,0.0139995,0.1220172,-0.2209152,0.01548826,0.01559957,1.000885,15.97408,-26.90311,-34.27899,1010.55
0.121370316,0.1364664,0.2430426,-0.09859026,0.01743196,0.0170751,1.002813,15.97408,-26.90311,-34.27899,1010.553
0.123847008,0.1976999,0.1220172,-0.1597527,0.01938871,0.01416011,1.001339,15.97408,-26.90311,-34.27899,1010.553
0.126323223,0.1364664,0.1825299,-0.1597527,0.01357732,0.01268085,1.00619,15.97408,-26.90311,-34.27899,1010.553
0.128800869,0.0139995,0.0615045,-0.2820776,0.01747394,0.01074977,1.004711,15.97408,-26.90311,-34.27899,1010.553
0.131277561,-0.04723396,-0.1805463,-0.09859026,0.01797068,0.01271522,1.010993,15.97408,-26.90311,-34.27899,1010.553
0.133754730,0.1364664,0.1220172,-0.09859026,0.01646311,0.01609505,1.002331,15.97408,-26.90311,-34.27899,1010.553
0.136231422,0.1976999,0.2430426,-0.2209152,0.01841113,0.01415156,0.9998967,15.97408,-26.90311,-34.27899,1010.553
0.138708591,0.2589334,0.1220172,-0.09859026,0.01551883,0.01366594,1.006667,15.97408,-26.90311,-34.27899,1010.553
0.141185284,0.07523298,0.0615045,-0.1597527,0.0189024,0.01562422,1.003763,15.97408,-26.90311,-34.27899,1010.553
0.143662453,0.1364664,0.0615045,-0.3432401,0.02275978,0.02099818,1.002804,15.97408,-26.90311,-34.27899,1010.553
0.146139145,0.1364664,0.1220172,-0.2820776,0.02133732,0.01563915,1.004715,15.97408,-26.90311,-34.27899,1010.553
0.148615837,0.07523298,0.2430426,-0.2209152,0.01893022,0.01271088,1.007127,15.97408,-26.90311,-34.27899,1010.553
0.151093006,0.07523298,0.1220172,-0.1597527,0.01502105,0.01512185,1.005712,15.97408,-26.90311,-34.27899,1010.553
0.153569698,0.1364664,0.0615045,-0.3432401,0.01696089,0.01463913,1.003286,15.97408,-26.90311,-34.27899,1010.553
0.156047344,0.2589334,0.0615045,-0.3432401,0.02234599,0.01127006,1.008066,15.97408,-26.90311,-34.27899,1010.553
0.158524036,0.3201669,0.1220172,-0.1597527,0.02036083,0.0151425,1.002787,16.34462,-26.89913,-34.28038,1010.553
0.161001205,0.07523298,0.0615045,-0.2820776,0.01937289,0.01610429,0.9999015,16.34462,-26.89913,-34.28038,1010.553
0.163477898,0.1364664,0.1825299,-0.1597527,0.02230451,0.0151514,1.002294,16.34462,-26.89913,-34.28038,1010.55
0.165955067,0.2589334,0.1220172,-0.1597527,0.02182144,0.01368459,1.000841,16.34462,-26.89913,-34.28038,1010.55
0.168431759,0.07523298,0.1825299,-0.1597527,0.0203319,0.01707731,0.9974878,16.34462,-26.89913,-34.28038,1010.55
0.170908451,0.07523298,0.1825299,-0.1597527,0.02037233,0.01661734,1.008587,16.34462,-26.89913,-34.28038,1010.55
0.173385620,0.1364664,0.0009917939,-0.2820776,0.016968,0.01513309,1.006184,16.34462,-26.89913,-34.28038,1010.55
0.175862312,0.1976999,0.0615045,-0.1597527,0.01646856,0.0151212,1.002326,16.34462,-26.89913,-34.28038,1010.55
0.178339481,0.2589334,0.0009917939,-0.2209152,0.01889582,0.0141529,0.9994113,16.34462,-26.89913,-34.28038,1010.55
0.180816174,0.3201669,0.1220172,-0.3432401,0.01792916,0.01366329,1.000379,16.34462,-26.89913,-34.28038,1010.55
0.183293343,0.1364664,0.1825299,-0.2820776,0.01985866,0.01561754,0.9989309,16.34462,-26.89913,-34.28038,1010.55
0.185770035,0.1364664,0.2430426,-0.2820776,0.01887944,0.01560782,0.9970055,16.34462,-26.89913,-34.28038,1010.55
0.188247681,0.07523298,0.1825299,-0.09859026,0.01986797,0.01660193,1.00328,16.34462,-26.89913,-34.28038,1010.55
0.190724373,0.1976999,0.0615045,0.02373465,0.01939531,0.01709806,1.008112,16.34462,-26.89913,-34.28038,1010.55
0.193200588,0.1364664,0.1825299,-0.09859026,0.01938379,0.01415659,0.9998915,16.34462,-26.89913,-34.28038,1010.55
0.195678234,0.1364664,0.2430426,-0.09859026,0.01844445,0.01319763,1.008097,16.34462,-26.89913,-34.28038,1010.55
0.198154926,0.0139995,0.2430426,-0.09859026,0.01355876,0.01364532,1.002334,16.34462,-26.89913,-34.28038,1010.55
0.200632095,0.0139995,0.1825299,-0.03742781,0.01794337,0.01318457,1.003756,16.34462,-26.89913,-34.28038,1010.55
0.203108788,0.1364664,0.1825299,-0.3432401,0.017939,0.01367032,1.003276,16.34462,-26.89913,-34.28038,1010.548
0.205585957,0.1364664,0.2430426,-0.4044026,0.01842865,0.01660844,1.00908,16.34462,-26.89913,-34.28038,1010.548
0.208062649,0.1364664,0.2430426,-0.2209152,0.01890621,0.0146492,1.003275,16.34462,-26.89913,-34.28038,1010.548
0.210539818,-0.04723396,0.0615045,-0.1597527,0.01940289,0.01221475,1.002295,16.34954,-27.27424,-34.71725,1010.548
0.213016510,0.1364664,0.0009917939,-0.2820776,0.017933,0.0141549,1.002313,16.34954,-27.27424,-34.71725,1010.548
0.215494156,0.2589334,0.3035553,-0.2209152,0.01503248,0.01219679,1.004249,16.34954,-27.27424,-34.71725,1010.548
0.217970371,0.07523298,0.1825299,-0.09859026,0.01696909,0.01464499,1.005699,16.34954,-27.27424,-34.71725,1010.548
0.220447063,0.1976999,-0.05952091,-0.1597527,0.01841385,0.01366463,0.9998942,16.34954,-27.27424,-34.71725,1010.548
0.222924709,0.07523298,0.1825299,-0.2209152,0.01748267,0.009778263,1.005672,16.34954,-27.27424,-34.71725,1010.548
0.227878571,0.2589334,0.1825299,-0.2820776,0.02181708,0.01417035,1.000361,16.34954,-27.27424,-34.71725,1010.548
0.230355263,0.0139995,0.1220172,-0.1597527,0.02231382,0.0161358,1.006643,16.34954,-27.27424,-34.71725,1010.548
0.232832432,0.0139995,0.0615045,-0.03742781,0.01553303,0.01318721,1.010044,16.34954,-27.27424,-34.71725,1010.548
0.235309124,0.1976999,0.1220172,-0.2820776,0.01650184,0.011234,1.005684,16.34954,-27.27424,-34.71725,1010.548
0.237786293,0.3201669,-0.05952091,-0.4044026,0.01212979,0.01121487,1.007156,16.34954,-27.27424,-34.71725,1010.548
0.240262985,0.2589334,0.0615045,-0.2209152,0.01695269,0.01463327,1.000872,16.34954,-27.27424,-34.71725,1010.548
0.242739677,0.3201669,0.3035553,-0.3432401,0.01840515,0.01610277,1.001355,16.34954,-27.27424,-34.71725,1010.551
0.245216847,0.1976999,0.1825299,-0.2820776,0.01793738,0.01513578,1.005214,16.34954,-27.27424,-34.71725,1010.551
0.247693539,0.0139995,0.1220172,-0.2820776,0.01600241,0.01268874,1.004246,16.34954,-27.27424,-34.71725,1010.551
0.250170708,0.1364664,0.0009917939,-0.09859026,0.01597842,0.0160937,1.002816,16.34954,-27.27424,-34.71725,1010.551
0.252647400,0.1364664,0.1825299,-0.03742781,0.01744609,0.01219648,0.9989265,16.34954,-27.27424,-34.71725,1010.551
0.255125046,0.07523298,0.2430426,-0.2209152,0.01451941,0.01461952,1.000403,16.34954,-27.27424,-34.71725,1010.551
0.257601738,0.2589334,0.0009917939,-0.2209152,0.01744015,0.01708096,1.005226,16.34954,-27.27424,-34.71725,1010.551
0.260078907,0.2589334,0.1220172,-0.1597527,0.01745761,0.01513795,1.007147,16.70366,-26.16175,-34.29473,1010.551
0.262555599,0.07523298,0.3035553,-0.03742781,0.01842805,0.01318591,1.00327,16.70366,-26.16175,-34.29473,1010.551
0.265032291,0.07523298,0.364068,-0.09859026,0.02130947,0.01708586,0.9989305,16.70366,-26.16175,-34.29473,1010.551
0.267509461,0.1976999,0.1220172,-0.3432401,0.01747777,0.01124138,1.006644,16.70366,-26.16175,-34.29473,1010.551
0.269986153,0.1976999,0.0615045,-0.2820776,0.01890951,0.01611818,1.006662,16.70366,-26.16175,-34.29473,1010.551
0.272463322,0.2589334,0.1220172,-0.2209152,0.02133732,0.01563915,1.004715,16.70366,-26.16175,-34.29473,1010.551
0.274940014,0.1364664,0.1220172,-0.2820776,0.01648165,0.01366394,1.003766,16.70366,-26.16175,-34.29473,1010.551
0.277417183,0.07523298,0.2430426,-0.2820776,0.01941217,0.01173251,1.004223,16.70366,-26.16175,-34.29473,1010.551
0.279893875,0.07523298,0.1220172,-0.1597527,0.02086901,0.01418289,1.007606,16.70366,-26.16175,-34.29473,1010.551
0.282371521,0.1976999,0.1825299,-0.2209152,0.02134709,0.01124628,1.000348,16.70366,-26.16175,-34.29473,1010.548
0.284847736,0.1976999,0.1825299,-0.1597527,0.02034668,0.01855449,1.004253,16.70366,-26.16175,-34.29473,1010.548
0.287324429,0.07523298,0.2430426,-0.2209152,0.01990455,0.01418371,1.010025,16.70366,-26.16175,-34.29473,1010.548
0.289802074,0.1364664,0.3035553,-0.09859026,0.01599154,0.01610308,1.006677,16.70366,-26.16175,-34.29473,1010.548
0.292278767,0.2589334,0.1825299,-0.09859026,0.0164593,0.01707007,1.002818,16.70366,-26.16175,-34.29473,1010.548
0.294755936,0.1976999,0.1825299,-0.1597527,0.01888164,0.01609826,0.9984561,16.70366,-26.16175,-34.29473,1010.548
0.297232628,0.07523298,0.0009917939,-0.4044026,0.01694944,0.01609756,1.002328,16.70366,-26.16175,-34.29473,1010.548
0.299709797,0.1364664,0.1220172,-0.2820776,0.01649036,0.0112258,1.002306,16.70366,-26.16175,-34.29473,1010.548
0.302186489,0.0139995,-0.05952091,-0.2820776,0.01504608,0.008295532,1.001816,16.70366,-26.16175,-34.29473,1010.548
0.304663658,0.1364664,-0.1200336,-0.1597527,0.01839693,0.01463028,0.9965205,16.70366,-26.16175,-34.29473,1010.548
0.307140350,0.1976999,0.0615045,-0.1597527,0.01939473,0.01514216,1.004723,16.70366,-26.16175,-34.29473,1010.548
0.309617043,0.1364664,0.1220172,-0.09859026,0.01940238,0.01465875,1.006169,16.70366,-26.16175,-34.29473,1010.548
0.312094212,0.1976999,0.1220172,-0.09859026,0.01984887,0.01854377,1.000877,15.9675,-26.54484,-34.72882,1010.548
0.314570904,0.1364664,0.1220172,-0.2209152,0.01404017,0.01364432,1.000883,15.9675,-26.54484,-34.72882,1010.548
0.317048073,0.1976999,0.0615045,-0.1597527,0.01548881,0.01608884,1.001853,15.9675,-26.54484,-34.72882,1010.548
0.319524765,0.07523298,0.1220172,-0.1597527,0.01938439,0.01757912,1.005701,15.9675,-26.54484,-34.72882,1010.548
0.322002411,-0.1084674,0.0009917939,-0.09859026,0.01600569,0.01269109,1.005212,15.9675,-26.54484,-34.72882,1010.547
0.324479103,0.07523298,0.1220172,-0.1597527,0.01453578,0.0131646,1.002809,15.9675,-26.54484,-34.72882,1010.547
0.326956272,0.1976999,0.1825299,-0.1597527,0.02136351,0.01272463,1.007596,15.9675,-26.54484,-34.72882,1010.547
0.329432964,0.1364664,-0.05952091,0.02373465,0.02183892,0.01320822,1.005183,15.9675,-26.54484,-34.72882,1010.547
0.331910133,0.1976999,0.1220172,-0.2209152,0.02087935,0.01174592,1.006628,15.9675,-26.54484,-34.72882,1010.547
0.334386826,0.1364664,0.364068,-0.2820776,0.01650782,0.00928279,1.004226,15.9675,-26.54484,-34.72882,1010.547
0.336863518,0.1364664,0.3035553,-0.465565,0.01942797,0.008321699,1.00324,15.9675,-26.54484,-34.72882,1010.547
0.339340687,0.2589334,0.3035553,-0.1597527,0.01941164,0.01270988,1.005676,15.9675,-26.54484,-34.72882,1010.547
0.341817379,0.07523298,0.3035553,-0.09859026,0.01983905,0.02000337,1.000401,15.9675,-26.54484,-34.72882,1010.547
0.344294548,0.0139995,0.1220172,-0.09859026,0.01843136,0.01465489,1.006657,15.9675,-26.54484,-34.72882,1010.547
0.346771240,0.07523298,0.1220172,-0.09859026,0.01550407,0.01365539,1.002324,15.9675,-26.54484,-34.72882,1010.547
0.349248886,0.2589334,0.0615045,-0.1597527,0.01550299,0.01414349,1.002809,15.9675,-26.54484,-34.72882,1010.547
0.351725102,0.2589334,0.0615045,-0.1597527,0.01842367,0.01220503,1.000369,15.9675,-26.54484,-34.72882,1010.547
0.354201794,0.2589334,0.0615045,-0.09859026,0.01842316,0.01464903,1.004243,15.9675,-26.54484,-34.72882,1010.547
0.356679440,0.1976999,0.1825299,-0.03742781,0.01696526,0.01415338,1.003766,15.9675,-26.54484,-34.72882,1010.547
0.359156132,0.1976999,0.2430426,-0.2209152,0.01647618,0.01317116,1.00135,15.9675,-26.54484,-34.72882,1010.547
0.361633301,0.1364664,0.0615045,-0.09859026,0.01453248,0.01169563,0.9994226,15.59275,-26.16649,-33.91054,1010.55
0.364109993,0.07523298,-0.05952091,-0.09859026,0.01794771,0.01123218,1.001815,15.59275,-26.16649,-33.91054,1010.55
0.366587162,0.1364664,0.0009917939,-0.2209152,0.0179548,0.0102595,1.002293,15.59275,-26.16649,-33.91054,1010.55
0.369063854,0.2589334,0.364068,-0.2820776,0.01797006,0.007826052,1.002763,15.59275,-26.16649,-33.91054,1010.55
0.371541023,0.1976999,0.3035553,-0.1597527,0.01649639,0.01220785,1.005689,15.59275,-26.16649,-33.91054,1010.55
0.374017716,0.1364664,0.1825299,-0.2209152,0.01745212,0.01317853,1.00231,15.59275,-26.16649,-33.91054,1010.55
0.376494885,0.1976999,-0.05952091,-0.2209152,0.01841498,0.0161098,1.004251,15.59275,-26.16649,-33.91054,1010.55
0.378971577,0.07523298,0.0615045,-0.1597527,0.016956,0.01610225,1.004259,15.59275,-26.16649,-33.91054,1010.55
0.381448269,0.07523298,0.0615045,-0.2820776,0.01501775,0.01365287,1.002326,15.59275,-26.16649,-33.91054,1010.55
0.383925438,0.1976999,-0.05952091,-0.2820776,0.01988483,0.01123639,0.999391,15.59275,-26.16649,-33.91054,1010.55
0.386402130,0.1364664,0.0009917939,-0.2209152,0.01501772,0.01218624,0.9999052,15.59275,-26.16649,-33.91054,1010.55
0.388879776,0.1364664,0.0615045,-0.2820776,0.01647784,0.01463896,1.004254,15.59275,-26.16649,-33.91054,1010.55
0.391356468,0.07523298,0.0615045,-0.2820776,0.01842533,0.01367283,1.003273,15.59275,-26.16649,-33.91054,1010.55
0.393833637,0.2589334,0.1825299,-0.1597527,0.01649089,0.01024844,1.000853,15.59275,-26.16649,-33.91054,1010.55
0.396310330,0.2589334,0.1220172,-0.2209152,0.01890404,0.01562539,1.004246,15.59275,-26.16649,-33.91054,1010.55
0.398787499,0.1976999,0.1220172,-0.1597527,0.01844336,0.01368572,1.008582,15.59275,-26.16649,-33.91054,1010.55
0.401264191,0.0139995,0.0009917939,-0.2209152,0.01743415,0.01756554,1.004264,15.59275,-26.16649,-33.91054,1010.55
0.403741360,0.1364664,0.3035553,-0.2820776,0.01597948,0.01413897,0.99991,15.59275,-26.16649,-33.91054,1010.549
0.406218052,0.07523298,0.364068,-0.2209152,0.01695327,0.01658917,1.004261,15.59275,-26.16649,-33.91054,1010.549
0.408694744,0.1364664,0.1825299,-0.2209152,0.01598772,0.0170781,1.007165,15.59275,-26.16649,-33.91054,1010.549
0.411171913,0.07523298,0.1220172,-0.2209152,0.01743413,0.01609891,1.001843,16.70929,-26.52965,-34.35158,1010.549
0.413648605,0.0139995,0.1825299,-0.2820776,0.02035374,0.01611518,1.00231,16.70929,-26.52965,-34.35158,1010.549
0.416126251,0.1364664,-0.05952091,-0.2820776,0.01691778,0.0185193,0.9970312,16.70929,-26.52965,-34.35158,1010.549
0.418602467,0.3201669,0.1220172,-0.3432401,0.01499484,0.01656973,1.00041,16.70929,-26.52965,-34.35158,1010.549
0.421080113,0.1976999,0.0615045,-0.2209152,0.01695161,0.01512137,1.001358,16.70929,-26.52965,-34.35158,1010.549
0.423556805,0.1976999,0.0009917939,-0.1597527,0.0198778,0.01660896,1.006176,16.70929,-26.52965,-34.35158,1010.549
0.426033974,0.2589334,0.0615045,-0.2209152,0.02037774,0.01271022,1.00374,16.70929,-26.52965,-34.35158,1010.549
0.428510666,0.1976999,0.2430426,-0.2209152,0.01744886,0.01464282,1.003766,16.70929,-26.52965,-34.35158,1010.549
0.430987358,0.1976999,0.2430426,-0.1597527,0.01649694,0.01269712,1.006657,16.70929,-26.52965,-34.35158,1010.549
0.433464527,0.1976999,0.0009917939,-0.1597527,0.01501555,0.01316243,1.000876,16.70929,-26.52965,-34.35158,1010.549
0.435941219,0.07523298,0.1220172,-0.1597527,0.0218007,0.01562526,0.997955,16.70929,-26.52965,-34.35158,1010.549
0.438418388,0.07523298,0.1825299,-0.09859026,0.01745867,0.01318322,1.004241,16.70929,-26.52965,-34.35158,1010.549
0.440895081,0.1976999,0.0009917939,-0.2209152,0.01646145,0.01462724,0.9994271,16.70929,-26.52965,-34.35158,1010.549
0.443372250,0.1976999,0.1220172,-0.2820776,0.0193718,0.01659238,1.000387,16.70929,-26.52965,-34.35158,1010.55
0.445848942,0.2589334,0.364068,-0.2820776,0.0222974,0.01465744,0.9993953,16.70929,-26.52965,-34.35158,1010.55
0.448326588,0.2589334,0.1220172,-0.2209152,0.0199045,0.01125045,1.005183,16.70929,-26.52965,-34.35158,1010.55
0.450802803,0.1364664,0.0615045,-0.1597527,0.01989305,0.01270888,1.004225,16.70929,-26.52965,-34.35158,1010.55
0.453280449,0.0139995,0.0615045,-0.2209152,0.01985707,0.01854963,1.00329,16.70929,-26.52965,-34.35158,1010.55
0.455757141,0.1364664,0.0615045,-0.2209152,0.0237586,0.01662207,1.003259,16.70929,-26.52965,-34.35158,1010.55
0.458233833,0.1364664,0.1825299,-0.2820776,0.01890838,0.01367301,1.002305,16.70929,-26.52965,-34.35158,1010.55
0.460711002,0.1364664,0.1825299,-0.2209152,0.01695161,0.01512137,1.001358,16.70929,-26.52965,-34.35158,1010.55
0.463187695,0.1976999,0.1825299,-0.2820776,0.01650456,0.01074708,1.005682,15.96821,-26.53762,-34.3488,1010.55
0.465664864,0.1364664,0.1220172,-0.3432401,0.0179581,0.01172848,1.005679,15.96821,-26.53762,-34.3488,1010.55
0.468141556,-0.04723396,0.1220172,-0.2209152,0.01694944,0.01609756,1.002328,15.96821,-26.53762,-34.3488,1010.55
0.470618725,0.1364664,0.0615045,-0.09859026,0.0179232,0.01708113,1.004259,15.96821,-26.53762,-34.3488,1010.55
0.473095417,0.07523298,0.1220172,-0.2209152,0.02084552,0.01514385,1.002302,15.96821,-26.53762,-34.3488,1010.55
0.475572586,0.0139995,0.1220172,-0.2209152,0.01644022,0.02047854,1.002836,15.96821,-26.53762,-34.3488,1010.55
0.478049278,0.1976999,0.2430426,-0.2209152,0.01940834,0.0112409,1.00229,15.96821,-26.53762,-34.3488,1010.55
0.480525971,0.1364664,0.0615045,-0.3432401,0.01695163,0.016588,1.003779,15.96821,-26.53762,-34.3488,1010.55
0.483003616,0.07523298,0.1825299,-0.3432401,0.01648218,0.01268657,1.002313,15.96821,-26.53762,-34.3488,1010.554
0.485479832,0.1364664,0.1220172,-0.1597527,0.02133896,0.01564032,1.005198,15.96821,-26.53762,-34.3488,1010.554
0.487957478,0.07523298,0.1220172,-0.09859026,0.01449488,0.01900184,1.000426,15.96821,-26.53762,-34.3488,1010.554
0.490434170,0.1976999,0.1825299,-0.3432401,0.01260085,0.01365083,1.006683,15.96821,-26.53762,-34.3488,1010.554
0.492911339,0.3201669,0.1220172,-0.465565,0.01940182,0.01416948,1.005201,15.96821,-26.53762,-34.3488,1010.554
0.497865200,0.1364664,0.1825299,-0.09859026,0.01746962,0.01416879,1.009073,15.96821,-26.53762,-34.3488,1010.554
0.500341892,0.07523298,0.1825299,-0.03742781,0.01990503,0.01027308,1.00373,15.96821,-26.53762,-34.3488,1010.554
0.502819061,0.1976999,0.2430426,-0.2209152,0.01941,0.01270871,1.005193,15.96821,-26.53762,-34.3488,1010.554
0.505295754,0.07523298,0.0009917939,-0.2820776,0.01937508,0.01659473,1.001352,15.96821,-26.53762,-34.3488,1010.554
0.507772446,0.2589334,0.0615045,-0.1597527,0.01840843,0.01610511,1.00232,15.96821,-26.53762,-34.3488,1010.554
0.510249615,0.2589334,0.1825299,-0.03742781,0.01841388,0.01513126,1.002315,15.96821,-26.53762,-34.3488,1010.554
0.512726307,0.1976999,0.2430426,-0.2820776,0.01694942,0.01463093,0.9999072,16.34379,-26.90755,-34.72373,1010.554
0.515203953,0.07523298,0.0615045,-0.2820776,0.0149959,0.014615,0.9975044,16.34379,-26.90755,-34.72373,1010.554
0.517680168,0.07523298,0.1825299,-0.3432401,0.01886746,0.01804361,0.9975008,16.34379,-26.90755,-34.72373,1010.554
0.520157814,0.07523298,0.364068,-0.1597527,0.01890459,0.01611466,1.005213,16.34379,-26.90755,-34.72373,1010.554
0.522634506,0.1364664,0.0615045,-0.1597527,0.0169756,0.01171641,1.002788,16.34379,-26.90755,-34.72373,1010.552
0.525111199,0.0139995,0.0009917939,-0.3432401,0.01990014,0.0117362,1.004703,16.34379,-26.90755,-34.72373,1010.552
0.527588368,0.1364664,0.1825299,-0.09859026,0.01987723,0.01465306,1.002787,16.34379,-26.90755,-34.72373,1010.552
0.530065060,0.1976999,0.2430426,-0.09859026,0.0199176,0.009793191,1.006624,16.34379,-26.90755,-34.72373,1010.552
0.532542229,-0.04723396,0.1220172,-0.1597527,0.02039848,0.01076956,1.006626,16.34379,-26.90755,-34.72373,1010.552
0.535018921,0.07523298,0.3035553,-0.2820776,0.0188948,0.01904089,1.007159,16.34379,-26.90755,-34.72373,1010.552
0.537496090,0.1364664,0.364068,-0.2209152,0.02520718,0.01466669,0.996966,16.34379,-26.90755,-34.72373,1010.552
0.539972782,0.1976999,0.2430426,-0.09859026,0.01502156,0.01267785,1.001838,16.34379,-26.90755,-34.72373,1010.552
0.542449951,0.2589334,0.1220172,-0.09859026,0.01743521,0.01561081,1.001357,16.34379,-26.90755,-34.72373,1010.552
0.544926643,0.1364664,0.1220172,-0.1597527,0.02181652,0.01368108,0.9993929,16.34379,-26.90755,-34.72373,1010.552
0.547404289,0.1364664,0.1220172,-0.2820776,0.01698107,0.0122092,1.005204,16.34379,-26.90755,-34.72373,1010.552
0.549880982,0.2589334,0.1220172,-0.1597527,0.0184466,0.0107548,1.004706,16.34379,-26.90755,-34.72373,1010.552
0.552357197,0.1364664,0.1220172,-0.09859026,0.02086566,0.009780648,0.9993781,16.34379,-26.90755,-34.72373,1010.552
0.554834843,0.1364664,0.1220172,-0.09859026,0.01989522,0.01173269,1.003255,16.34379,-26.90755,-34.72373,1010.552
0.557311535,0.1364664,0.0615045,-0.1597527,0.01939527,0.01416479,1.00327,16.34379,-26.90755,-34.72373,1010.552
0.559788704,0.07523298,0.1825299,-0.1597527,0.01888767,0.01708031,1.00184,16.34379,-26.90755,-34.72373,1010.552
0.562265396,0.07523298,0.0615045,-0.2209152,0.01985757,0.01610563,0.9994161,15.96821,-26.53762,-34.3488,1010.555
0.564742565,0.1364664,0.0615045,-0.1597527,0.02424546,0.01564722,1.001803,15.96821,-26.53762,-34.3488,1010.555
0.567219257,0.07523298,0.0009917939,-0.03742781,0.01987393,0.01318409,0.999401,15.96821,-26.53762,-34.3488,1010.555
0.569696427,0.1364664,0.0615045,-0.1597527,0.01598059,0.01511751,1.001846,15.96821,-26.53762,-34.3488,1010.555
0.572173119,0.1976999,0.0615045,-0.2209152,0.01746576,0.01221054,1.004719,15.96821,-26.53762,-34.3488,1010.555
0.574650765,0.1364664,0.3035553,-0.2820776,0.01889039,0.01659338,1.001837,15.96821,-26.53762,-34.3488,1010.555
0.577126980,0.07523298,0.1825299,-0.3432401,0.017909,0.01755985,1.000882,15.96821,-26.53762,-34.3488,1010.555
0.579603672,0.07523298,0.1825299,-0.1597527,0.01405488,0.0107216,1.000386,15.96821,-26.53762,-34.3488,1010.555
0.582081318,0.07523298,0.1220172,-0.1597527,0.01308716,0.01218672,1.00426,15.96821,-26.53762,-34.3488,1010.555
0.584557533,0.1364664,0.2430426,-0.2209152,0.01502105,0.01512185,1.005712,15.96821,-26.53762,-34.3488,1010.555
0.587035179,0.0139995,0.2430426,-0.2820776,0.01405328,0.0136537,1.004745,15.96821,-26.53762,-34.3488,1010.555
0.589511871,0.0139995,0.1220172,-0.1597527,0.01647022,0.016589,1.005229,15.96821,-26.53762,-34.3488,1010.555
0.591989041,0.1364664,0.0009917939,-0.1597527,0.01891053,0.01123018,0.9989135,15.96821,-26.53762,-34.3488,1010.555
0.594465733,0.1976999,0.0615045,-0.3432401,0.02083952,0.01562843,1.001339,15.96821,-26.53762,-34.3488,1010.555
0.596942902,-0.04723396,0.0615045,-0.2209152,0.01454728,0.01463944,1.008609,15.96821,-26.53762,-34.3488,1010.555
0.599419594,0.2589334,0.1220172,-0.03742781,0.01551389,0.01219579,1.002799,15.96821,-26.53762,-34.3488,1010.555
0.601896286,0.2589334,0.1825299,-0.03742781,0.01987397,0.01611735,1.004243,15.96821,-26.53762,-34.3488,1010.554
0.604373455,0.07523298,-0.05952091,-0.09859026,0.01888166,0.01756489,1.000877,15.96821,-26.53762,-34.3488,1010.554
0.606850147,0.07523298,0.0009917939,-0.1597527,0.01356204,0.01364767,1.003299,15.96821,-26.53762,-34.3488,1010.554
0.609327316,0.1976999,0.1825299,-0.2820776,0.02086568,0.01124728,1.001799,15.96821,-26.53762,-34.3488,1010.554
0.611804009,0.1364664,0.0615045,-0.3432401,0.019386,0.01611366,1.003763,15.96821,-26.53762,-34.3488,1010.554
0.614281655,0.07523298,0.1825299,-0.1597527,0.01549918,0.01511851,1.003296,16.3445,-26.90033,-34.34371,1010.554
0.616758347,0.1364664,0.1825299,-0.1597527,0.01696087,0.0131725,1.000865,16.3445,-26.90033,-34.34371,1010.554
0.619235516,0.0139995,0.0615045,-0.2209152,0.01842099,0.01562522,1.005214,16.3445,-26.90033,-34.34371,1010.554
0.621712208,0.1364664,0.1825299,-0.1597527,0.01890619,0.01318257,1.000854,16.3445,-26.90033,-34.34371,1010.554
0.624189377,0.1976999,0.1220172,-0.1597527,0.01939471,0.01367552,1.002302,16.3445,-26.90033,-34.34371,1010.554
0.626666069,0.0139995,0.1220172,-0.2209152,0.01600292,0.01024475,1.000372,16.3445,-26.90033,-34.34371,1010.554
0.629142761,0.2589334,0.1825299,-0.09859026,0.01841279,0.01561936,1.0028,16.3445,-26.90033,-34.34371,1010.554
0.631619930,0.07523298,0.0615045,-0.09859026,0.02229744,0.01759071,1.004237,16.3445,-26.90033,-34.34371,1010.554
0.634096623,0.0139995,0.0615045,-0.03742781,0.01598331,0.01463058,1.001843,16.3445,-26.90033,-34.34371,1010.554
0.636573792,0.1364664,0.0009917939,-0.09859026,0.01742863,0.01413949,0.9970059,16.3445,-26.90033,-34.34371,1010.554
0.639050484,0.1976999,0.1825299,-0.2820776,0.0154768,0.017058,0.9999277,16.3445,-26.90033,-34.34371,1010.554
0.641528130,0.1976999,0.1220172,-0.2209152,0.01499971,0.01363998,0.9970166,16.3445,-26.90033,-34.34371,1010.555
0.644004345,0.1364664,0.0615045,-0.3432401,0.01841824,0.01464551,1.002795,16.3445,-26.90033,-34.34371,1010.555
0.646481991,0.2589334,0.1220172,-0.1597527,0.02181548,0.01710244,1.00472,16.3445,-26.90033,-34.34371,1010.555
0.648958683,0.3201669,0.1825299,-0.09859026,0.01596641,0.01706286,1.00089,16.3445,-26.90033,-34.34371,1010.555
0.651435852,0.1364664,0.0615045,-0.1597527,0.02570937,0.01565829,1.003243,16.3445,-26.90033,-34.34371,1010.555
0.653912544,0.1364664,0.1825299,-0.09859026,0.02181816,0.01368225,0.9998757,16.3445,-26.90033,-34.34371,1010.555
0.656389237,0.0139995,0.1220172,-0.09859026,0.01987668,0.01416379,1.001819,16.3445,-26.90033,-34.34371,1010.555
0.658866406,0.2589334,-0.05952091,-0.2209152,0.01597244,0.01804491,1.004274,16.3445,-26.90033,-34.34371,1010.555
0.661343098,0.1976999,0.0615045,-0.2209152,0.02374879,0.01808167,1.002784,16.3445,-26.90033,-34.34371,1010.555
0.663820267,0.1364664,0.1220172,-0.09859026,0.01696362,0.01415221,1.003283,16.71433,-26.90357,-34.72512,1010.555
0.666296959,0.1976999,0.2430426,-0.1597527,0.01793847,0.01464768,1.004729,16.71433,-26.90357,-34.72512,1010.555
0.668774128,0.1364664,0.1220172,-0.09859026,0.01402765,0.01705748,1.002832,16.71433,-26.90357,-34.72512,1010.555
0.671250820,0.07523298,0.1220172,-0.09859026,0.01602421,0.008793348,1.004226,16.71433,-26.90357,-34.72512,1010.555
0.673728466,0.1976999,0.2430426,-0.3432401,0.0203543,0.01660445,1.003277,16.71433,-26.90357,-34.72512,1010.555
0.676204682,0.2589334,0.1825299,-0.1597527,0.01743246,0.0146311,0.998939,16.71433,-26.90357,-34.72512,1010.555
0.678681374,0.3201669,0.2430426,-0.1597527,0.01404451,0.01169194,0.9989425,16.71433,-26.90357,-34.72512,1010.555
0.681159020,0.1364664,0.4850934,-0.2820776,0.01696743,0.01317719,1.002796,16.71433,-26.90357,-34.72512,1010.555
0.683635712,0.0139995,0.1825299,-0.1597527,0.01744777,0.01513092,1.004251,16.71433,-26.90357,-34.72512,1010.554
0.686112881,0.2589334,0.0009917939,-0.1597527,0.02327116,0.01564102,1.001326,16.71433,-26.90357,-34.72512,1010.554
0.688589573,0.0139995,0.0009917939,-0.2820776,0.01937672,0.0165959,1.001835,16.71433,-26.90357,-34.72512,1010.554
0.691066742,0.07523298,0.1220172,-0.2820776,0.01841279,0.01561936,1.0028,16.71433,-26.90357,-34.72512,1010.554
0.693543434,0.1364664,0.1220172,-0.03742781,0.0203352,0.01854629,1.000874,16.71433,-26.90357,-34.72512,1010.554
0.696020603,0.2589334,0.0615045,-0.2209152,0.01597622,0.01560326,1.001365,16.71433,-26.90357,-34.72512,1010.554
0.698497296,0.1976999,0.0615045,-0.3432401,0.01551393,0.01512905,1.00764,16.71433,-26.90357,-34.72512,1010.554
0.700974465,-0.1084674,0.2430426,-0.03742781,0.01549156,0.01706855,1.004272,16.71433,-26.90357,-34.72512,1010.554
0.703451157,0.1976999,0.2430426,-0.2820776,0.01696634,0.01366528,1.003281,16.71433,-26.90357,-34.72512,1010.554
0.705927849,0.1976999,0.2430426,-0.3432401,0.0179472,0.01367618,1.005689,16.71433,-26.90357,-34.72512,1010.554
0.708405495,0.07523298,0.1825299,-0.3432401,0.01550955,0.01414817,1.004739,16.71433,-26.90357,-34.72512,1010.554
0.710881710,0.1364664,0.0009917939,-0.2209152,0.0160128,0.01318504,1.008111,16.71433,-26.90357,-34.72512,1010.554
0.713359356,0.1976999,0.1825299,-0.2209152,0.01549867,0.0175625,1.00717,16.70929,-26.52965,-34.35158,1010.554
0.715836048,0.1364664,0.2430426,-0.2820776,0.01939256,0.01611835,1.005694,16.70929,-26.52965,-34.35158,1010.554
0.718313217,0.1364664,0.0615045,-0.3432401,0.01840459,0.0156135,1.000387,16.70929,-26.52965,-34.35158,1010.554
0.720789910,0.1976999,-0.1200336,-0.2209152,0.0155041,0.01512202,1.004744,16.70929,-26.52965,-34.35158,1010.554
0.723267079,0.07523298,0.0009917939,-0.2209152,0.01696034,0.01414987,1.002318,16.70929,-26.52965,-34.35158,1010.553
0.725743771,0.0139995,0.1825299,-0.1597527,0.02185201,0.01175096,1.006623,16.70929,-26.52965,-34.35158,1010.553
0.728220940,0.0139995,0.2430426,-0.2209152,0.01890291,0.01318023,0.9998891,16.70929,-26.52965,-34.35158,1010.553
0.730697632,0.1364664,0.1220172,-0.1597527,0.01791882,0.01610025,1.001357,16.70929,-26.52965,-34.35158,1010.553
0.733174324,0.2589334,-0.05952091,-0.2209152,0.01887949,0.01854108,1.001847,16.70929,-26.52965,-34.35158,1010.553
0.735651493,0.1976999,0.0615045,-0.09859026,0.01451613,0.01461717,0.9994377,16.70929,-26.52965,-34.35158,1010.553
0.740605831,0.1364664,0.2430426,-0.09859026,0.01939471,0.01367552,1.002302,16.70929,-26.52965,-34.35158,1010.553
0.740605831,0.1364664,0.2430426,-0.09859026,0.01939471,0.01367552,1.002302,16.70929,-26.52965,-34.35158,1010.553
0.743082047,0.1364664,0.1825299,-0.09859026,0.01793842,0.01171442,0.9998868,16.70929,-26.52965,-34.35158,1010.553
0.745559693,0.1976999,0.1220172,-0.2820776,0.01695923,0.01317133,1.000382,16.70929,-26.52965,-34.35158,1010.553
0.748036385,0.1364664,0.1220172,-0.465565,0.02180837,0.01660848,1.001822,16.70929,-26.52965,-34.35158,1010.553
0.750513554,0.1976999,0.1220172,-0.2209152,0.01989963,0.0141802,1.008577,16.70929,-26.52965,-34.35158,1010.553
0.752990246,-0.04723396,0.2430426,-0.1597527,0.01795759,0.01417248,1.009553,16.70929,-26.52965,-34.35158,1010.553
0.755466938,0.1364664,0.0009917939,-0.2820776,0.01746412,0.01220937,1.004236,16.70929,-26.52965,-34.35158,1010.553
0.760420799,0.1364664,0.1825299,-0.2209152,0.01698272,0.01221037,1.005687,16.70929,-26.52965,-34.35158,1010.553
0.760420799,0.1364664,0.1825299,-0.2209152,0.01698272,0.01221037,1.005687,16.70929,-26.52965,-34.35158,1010.553
0.765374661,0.1364664,0.3035553,-0.3432401,0.0184106,0.01512892,1.00135,16.71504,-26.89635,-34.3451,1010.552
0.767851830,0.07523298,0.3035553,-0.2820776,0.01988215,0.01465658,1.004235,16.71504,-26.89635,-34.3451,1010.552
0.770328522,0.1364664,0.3035553,-0.09859026,0.01839699,0.01903017,1.003783,16.71504,-26.89635,-34.3451,1010.552
0.772806168,0.07523298,0.364068,-0.2209152,0.01742812,0.01658349,1.00088,16.71504,-26.89635,-34.3451,1010.552
0.775282860,-0.04723396,0.2430426,-0.2209152,0.01645108,0.01559758,0.9979841,16.71504,-26.89635,-34.3451,1010.552
0.777760029,0.1976999,0.1825299,-0.2820776,0.01496154,0.01899029,0.9946309,16.71504,-26.89635,-34.3451,1010.552
0.780236721,0.1976999,-0.05952091,-0.2209152,0.01890674,0.01367184,1.001822,16.71504,-26.89635,-34.3451,1010.552
0.782713890,0.3201669,0.0009917939,-0.2209152,0.01695983,0.01659386,1.006192,16.71504,-26.89635,-34.3451,1010.552
0.785190582,0.1364664,0.1220172,-0.2209152,0.01550791,0.014147,1.004257,16.71504,-26.89635,-34.3451,1010.552
0.787667275,0.0139995,0.1825299,-0.1597527,0.01601331,0.01074105,1.004236,16.71504,-26.89635,-34.3451,1010.552
0.790144444,0.1364664,0.2430426,-0.09859026,0.01843572,0.01416913,1.007137,16.71504,-26.89635,-34.3451,1010.552
0.792621136,0.1364664,0.0615045,-0.09859026,0.01742542,0.01853705,1.003303,16.71504,-26.89635,-34.3451,1010.552
0.795098305,0.1364664,0.0009917939,-0.1597527,0.01937397,0.01561619,0.9994162,16.71504,-26.89635,-34.3451,1010.552
0.797574997,0.07523298,0.0615045,-0.1597527,0.017933,0.0141549,1.002313,16.71504,-26.89635,-34.3451,1010.552
0.800052166,0.1364664,0.0615045,-0.1597527,0.01548172,0.01706152,1.001376,16.71504,-26.89635,-34.3451,1010.552
0.802528858,0.07523298,0.2430426,-0.2820776,0.01645057,0.01804157,1.001858,16.71504,-26.89635,-34.3451,1010.553
0.805006504,0.1976999,0.0615045,-0.2209152,0.01793247,0.01513226,1.003766,16.71504,-26.89635,-34.3451,1010.553
0.807483196,0.1364664,0.1220172,-0.2820776,0.01745701,0.01171541,1.001337,16.71504,-26.89635,-34.3451,1010.553
0.809959412,0.1976999,0.0615045,-0.2820776,0.01940127,0.01368021,1.004233,16.71504,-26.89635,-34.3451,1010.553
0.812437058,0.1364664,0.0615045,-0.2209152,0.0208406,0.01514033,1.000854,16.71504,-26.89635,-34.3451,1010.553
0.814913750,0.07523298,0.1220172,-0.2209152,0.01842861,0.01367518,1.004238,16.33875,-26.53364,-34.35019,1010.553
0.817390919,0.0139995,0.2430426,-0.2209152,0.01456691,0.01172023,1.009559,16.33875,-26.53364,-34.35019,1010.553
0.819867611,-0.1084674,0.2430426,-0.1597527,0.0198794,0.01367687,1.001817,16.33875,-26.53364,-34.35019,1010.553
0.822344780,0.07523298,0.1220172,-0.2209152,0.01986467,0.01513296,0.9998938,16.33875,-26.53364,-34.35019,1010.553
0.824821472,0.07523298,0.1220172,-0.2209152,0.0150232,0.01267902,1.002321,16.33875,-26.53364,-34.35019,1010.553
0.827298641,0.3201669,0.1220172,-0.2209152,0.02087282,0.01320787,1.007118,16.33875,-26.53364,-34.35019,1010.553
0.829775334,0.2589334,0.2430426,-0.1597527,0.01894059,0.01174054,1.00857,16.33875,-26.53364,-34.35019,1010.553
0.832252979,0.07523298,0.1220172,-0.09859026,0.01742431,0.01755851,1.001368,16.33875,-26.53364,-34.35019,1010.553
0.834729195,0.1976999,-0.05952091,-0.1597527,0.01986688,0.01709003,1.003765,16.33875,-26.53364,-34.35019,1010.553
0.837205887,0.3201669,0.1220172,-0.09859026,0.0227941,0.01368963,1.000836,16.33875,-26.53364,-34.35019,1010.553
0.839683533,0.1976999,0.3035553,-0.2820776,0.01841877,0.01366815,1.001342,16.33875,-26.53364,-34.35019,1010.553
0.842160225,0.2589334,0.0615045,-0.2820776,0.01791226,0.01609557,0.9994267,16.33875,-26.53364,-34.35019,1010.55
0.844637394,0.1364664,0.0009917939,-0.2820776,0.0154959,0.01511616,1.002331,16.33875,-26.53364,-34.35019,1010.55
0.847114086,0.1364664,0.1825299,-0.2209152,0.01693579,0.01706555,0.9999198,16.33875,-26.53364,-34.35019,1010.55
0.849591255,0.3201669,0.3035553,-0.09859026,0.01646419,0.01560695,1.001846,16.33875,-26.53364,-34.35019,1010.55
0.852067948,0.2589334,0.0009917939,-0.2209152,0.01743683,0.01414535,0.9994193,16.33875,-26.53364,-34.35019,1010.55
0.854545117,0.1364664,0.1220172,-0.2209152,0.01697724,0.01171759,1.003271,16.33875,-26.53364,-34.35019,1010.55
0.857021809,0.07523298,0.1220172,-0.1597527,0.02183183,0.01418089,1.004705,16.33875,-26.53364,-34.35019,1010.55
0.859498978,0.0139995,0.0615045,-0.3432401,0.01549098,0.01511265,1.000883,16.33875,-26.53364,-34.35019,1010.55
0.861975670,0.1364664,0.0615045,-0.2820776,0.02087003,0.009294895,0.9998583,16.33875,-26.53364,-34.35019,1010.55
0.864452362,0.0139995,-0.05952091,-0.3432401,0.0203903,0.01223033,1.006633,16.70354,-26.16296,-34.35806,1010.55
0.866929531,0.0139995,0.0615045,-0.2820776,0.01650348,0.01123517,1.006167,16.70354,-26.16296,-34.35806,1010.55
0.869406223,0.0139995,0.2430426,0.02373465,0.01990182,0.01467064,1.010027,16.70354,-26.16296,-34.35806,1010.55
0.871883869,-0.04723396,0.1825299,-0.09859026,0.01891332,0.01514316,1.006174,16.70354,-26.16296,-34.35806,1010.55
0.874360562,0.1976999,0.1220172,-0.2209152,0.02037284,0.01417334,1.004713,16.70354,-26.16296,-34.35806,1010.55
0.876837731,0.1976999,0.1825299,-0.2209152,0.02376022,0.01515661,1.00132,16.70354,-26.16296,-34.35806,1010.55
0.879314423,0.1364664,0.1825299,-0.2820776,0.01893022,0.01271088,1.007127,16.70354,-26.16296,-34.35806,1010.55
0.881791592,0.0139995,0.1220172,-0.2820776,0.01209654,0.01656869,1.006218,16.70354,-26.16296,-34.35806,1010.551
0.884268284,0.1976999,0.1825299,-0.1597527,0.01646641,0.01756402,1.005717,16.70354,-26.16296,-34.35806,1010.551
0.886745453,0.07523298,0.1825299,-0.1597527,0.02084388,0.01514268,1.001819,16.70354,-26.16296,-34.35806,1010.551
0.889222145,0.0139995,0.2430426,-0.1597527,0.01840408,0.0180575,1.004261,16.70354,-26.16296,-34.35806,1010.551
0.891698837,0.07523298,0.0615045,-0.2820776,0.01695322,0.01365591,0.9994195,16.70354,-26.16296,-34.35806,1010.551
0.894176007,0.2589334,0.1825299,-0.4044026,0.01985704,0.017083,1.000869,16.70354,-26.16296,-34.35806,1010.551
0.896652699,0.3201669,0.1220172,-0.1597527,0.01796304,0.01319863,1.009548,16.70354,-26.16296,-34.35806,1010.551
0.899130345,0.07523298,0.1825299,-0.2209152,0.01746793,0.01123435,1.003748,16.70354,-26.16296,-34.35806,1010.551
0.901606560,-0.04723396,0.1220172,-0.2209152,0.01646038,0.01658197,1.002333,16.70354,-26.16296,-34.35806,1010.551
0.904084206,0.1364664,0.0009917939,-0.1597527,0.01889914,0.01708851,1.005219,16.70354,-26.16296,-34.35806,1010.551
0.906560898,0.1364664,0.1220172,-0.2209152,0.02131497,0.01904528,1.003767,16.70354,-26.16296,-34.35806,1010.551
0.909038067,0.07523298,0.3035553,-0.09859026,0.01841769,0.01415624,1.001827,16.70354,-26.16296,-34.35806,1010.551
0.911514759,0.1364664,0.0615045,-0.2209152,0.01646528,0.01511885,1.00136,16.70354,-26.16296,-34.35806,1010.551
0.913991451,0.1976999,0.1825299,-0.1597527,0.02084441,0.01416531,1.000366,16.70354,-26.16296,-34.35806,1010.551
0.916468621,0.1976999,0.1220172,-0.09859026,0.02279031,0.01613128,1.003744,16.71587,-26.88793,-33.90175,1010.551
0.918945313,0.1364664,0.0009917939,-0.03742781,0.02133894,0.01417369,1.002777,16.71587,-26.88793,-33.90175,1010.551
0.921422482,0.1364664,0.1220172,-0.09859026,0.01942686,0.007343162,1.001304,16.71587,-26.88793,-33.90175,1010.55
0.923899174,0.1364664,0.1220172,-0.2209152,0.01795969,0.008796385,1.00132,16.71587,-26.88793,-33.90175,1010.55
0.926376343,0.07523298,0.0615045,-0.4044026,0.01698431,0.009278276,1.001327,16.71587,-26.88793,-33.90175,1010.55
0.928853035,0.0139995,0.0615045,-0.2209152,0.01648327,0.01219848,1.001828,16.71587,-26.88793,-33.90175,1010.55
0.931330681,0.1364664,0.1825299,-0.2209152,0.01990614,0.01125162,1.005666,16.71587,-26.88793,-33.90175,1010.55
0.933806896,0.1976999,0.1825299,-0.2209152,0.02133675,0.01368325,1.001326,16.71587,-26.88793,-33.90175,1010.55
0.936284542,0.07523298,0.1220172,-0.1597527,0.02033681,0.01708083,0.9989358,16.71587,-26.88793,-33.90175,1010.55
0.938761235,0.07523298,0.1220172,-0.1597527,0.01748486,0.0102687,1.007122,16.71587,-26.88793,-33.90175,1010.55
0.941237927,0.1364664,0.364068,-0.2209152,0.01698599,0.01221271,1.006652,16.71587,-26.88793,-33.90175,1010.55
0.943715096,0.1364664,0.3035553,-0.465565,0.0154932,0.01706972,1.004754,16.71587,-26.88793,-33.90175,1010.55
0.946191788,0.1364664,0.0615045,-0.2209152,0.01358065,0.01561646,1.011998,16.71587,-26.88793,-33.90175,1010.55
0.948668957,0.1364664,0.364068,-0.2209152,0.01650518,0.01563624,1.013912,16.71587,-26.88793,-33.90175,1010.55
0.951145649,0.3201669,0.1220172,-0.3432401,0.02425038,0.01565073,1.003251,16.71587,-26.88793,-33.90175,1010.55
0.953622818,0.2589334,0.1825299,-0.3432401,0.02036684,0.01465792,1.00375,16.71587,-26.88793,-33.90175,1010.55
0.956099510,0.0139995,0.0615045,-0.3432401,0.01987885,0.0131876,1.000849,16.71587,-26.88793,-33.90175,1010.55
0.958576679,0.1364664,0.0009917939,-0.1597527,0.01648657,0.01366745,1.005214,16.71587,-26.88793,-33.90175,1010.55
0.961053372,0.1976999,0.0615045,-0.2209152,0.01598223,0.01511868,1.002328,16.71587,-26.88793,-33.90175,1010.55
0.963531018,0.1364664,0.0615045,-0.1597527,0.01256645,0.01509286,0.9989681,16.71587,-26.88793,-33.90175,1010.549
0.966007710,0.1364664,0.1220172,-0.2820776,0.01891441,0.01465506,1.005689,16.33382,-26.15852,-33.91332,1010.549
0.968483925,0.07523298,0.2430426,-0.2820776,0.02229142,0.01660866,1.000853,16.33382,-26.15852,-33.91332,1010.549
0.970961571,0.2589334,0.1220172,-0.2209152,0.02279738,0.01369197,1.001801,16.33382,-26.15852,-33.91332,1010.549
0.973438263,0.1976999,0.0615045,-0.2820776,0.0213564,0.01223068,1.004697,16.33382,-26.15852,-33.91332,1010.549
0.975915432,0.2589334,0.1220172,-0.2820776,0.01844062,0.01270602,1.006164,16.33382,-26.15852,-33.91332,1010.549
0.978392124,0.2589334,0.0009917939,-0.3432401,0.01745867,0.01318322,1.004241,16.33382,-26.15852,-33.91332,1010.549
0.980869293,0.1364664,0.1220172,-0.2209152,0.0218258,0.01319884,1.001321,16.33382,-26.15852,-33.91332,1010.549
0.983345985,0.2589334,0.1220172,-0.2209152,0.01988215,0.01465658,1.004235,16.33382,-26.15852,-33.91332,1010.549
0.985823154,0.1364664,0.1825299,-0.1597527,0.02035645,0.01416162,0.9998862,16.33382,-26.15852,-33.91332,1010.549
0.988299847,0.1364664,0.1825299,-0.2209152,0.02039522,0.01223385,1.008082,16.33382,-26.15852,-33.91332,1010.549
0.990777016,0.1364664,0.1825299,-0.2209152,0.01408275,0.01074152,1.008591,16.33382,-26.15852,-33.91332,1010.549
0.993253708,0.1364664,0.1825299,-0.2820776,0.01500299,0.01364233,0.997982,16.33382,-26.15852,-33.91332,1010.549
0.995730400,0.1976999,0.1220172,-0.1597527,0.01890406,0.01709202,1.006667,16.33382,-26.15852,-33.91332,1010.549
0.998208046,0.1364664,0.2430426,-0.1597527,0.01842316,0.01464903,1.004243,16.33382,-26.15852,-33.91332,1010.549
1.000684261,0.07523298,0.0615045,-0.09859026,0.01550299,0.01414349,1.002809,16.33382,-26.15852,-33.91332,1010.549
1.003161907,0.07523298,0.2430426,-0.2209152,0.01744013,0.01561433,1.002805,16.33382,-26.15852,-33.91332,1010.551
1.005638599,0.1364664,0.1220172,-0.2820776,0.02182044,0.02003922,1.01101,16.33382,-26.15852,-33.91332,1010.551
1.008115768,0.07523298,0.0009917939,-0.2209152,0.01792865,0.01610728,1.004253,16.33382,-26.15852,-33.91332,1010.551
1.010592937,0.0139995,-0.05952091,-0.1597527,0.01791995,0.01854542,1.005714,16.33382,-26.15852,-33.91332,1010.551
1.013069630,0.1364664,0.1220172,-0.3432401,0.01939799,0.01367787,1.003268,16.33382,-26.15852,-33.91332,1010.551
1.015546322,0.3201669,0.0615045,-0.3432401,0.02033735,0.01610346,0.9974828,16.33382,-26.15852,-33.91332,1010.551
1.018023491,0.1976999,0.0615045,-0.3432401,0.01789591,0.01901711,0.9994418,16.33229,-26.17416,-34.73669,1010.551
1.020500183,0.1976999,0.1220172,-0.1597527,0.01645764,0.01560226,0.9999149,16.33229,-26.17416,-34.73669,1010.551
1.022976875,0.1364664,0.1220172,-0.2209152,0.01501393,0.01462789,1.002814,16.33229,-26.17416,-34.73669,1010.551
1.025454044,0.07523298,0.1220172,-0.1597527,0.01696087,0.0131725,1.000865,16.33229,-26.17416,-34.73669,1010.551
1.027930737,0.2589334,0.1220172,-0.03742781,0.01891709,0.01123487,1.000844,16.33229,-26.17416,-34.73669,1010.551
1.030408382,0.1364664,0.3035553,-0.1597527,0.0222865,0.01660514,0.9994054,16.33229,-26.17416,-34.73669,1010.551
1.035362244,0.2589334,0.0009917939,-0.3432401,0.01503687,0.01317767,1.00715,16.33229,-26.17416,-34.73669,1010.551
1.037838936,0.2589334,0.2430426,-0.2209152,0.01694782,0.01756302,1.004266,16.33229,-26.17416,-34.73669,1010.551
1.040316105,0.0139995,0.1825299,-0.2820776,0.02083899,0.01660579,1.002792,16.33229,-26.17416,-34.73669,1010.551
1.042792797,0.1976999,0.1220172,-0.2209152,0.01596202,0.01608198,0.9979892,16.33229,-26.17416,-34.73669,1010.552
1.045269966,0.07523298,0.2430426,-0.09859026,0.01308335,0.01316174,1.004748,16.33229,-26.17416,-34.73669,1010.552
1.047746658,0.1364664,0.2430426,-0.1597527,0.01794066,0.01513812,1.006179,16.33229,-26.17416,-34.73669,1010.552
1.050223827,0.2589334,0.1825299,-0.1597527,0.01795699,0.01074994,1.003743,16.33229,-26.17416,-34.73669,1010.552
1.052700520,0.1976999,0.1220172,-0.1597527,0.01405488,0.0107216,1.000386,16.33229,-26.17416,-34.73669,1010.552
1.055177212,0.1364664,0.1825299,-0.2820776,0.01887566,0.01804947,0.9999142,16.33229,-26.17416,-34.73669,1010.552
1.057654381,0.1976999,0.3035553,-0.2209152,0.01648876,0.01415789,1.006665,16.33229,-26.17416,-34.73669,1010.552
1.060131073,0.1364664,0.1220172,-0.2209152,0.01985924,0.01757344,1.00232,16.33229,-26.17416,-34.73669,1010.552
1.062608719,0.0139995,0.1825299,-0.3432401,0.01352984,0.01704676,0.9994556,16.33229,-26.17416,-34.73669,1010.552
1.065085411,0.1364664,0.1825299,-0.3432401,0.02036356,0.01465558,1.002785,16.33229,-26.17416,-34.73669,1010.552
1.067562580,0.1364664,0.0615045,-0.1597527,0.02088534,0.009794709,1.00517,16.33382,-26.15852,-33.91332,1010.552
1.070039272,0.2589334,0.3035553,-0.09859026,0.01743683,0.01414535,0.9994193,16.33382,-26.15852,-33.91332,1010.552
1.072516441,0.07523298,0.1220172,-0.03742781,0.02036411,0.01514485,1.003752,16.33382,-26.15852,-33.91332,1010.552
1.074993134,0.0139995,-0.05952091,-0.1597527,0.0140331,0.01608363,1.002827,16.33382,-26.15852,-33.91332,1010.552
1.077470303,0.1364664,0.0615045,-0.2209152,0.01547791,0.01803654,1.001863,16.33382,-26.15852,-33.91332,1010.552
1.079946995,0.1364664,0.1220172,-0.2209152,0.01890727,0.01269447,1.000369,16.33382,-26.15852,-33.91332,1010.552
1.082423687,0.1976999,0.0615045,-0.2820776,0.02182363,0.01417503,1.002292,16.33382,-26.15852,-33.91332,1010.549
1.084900856,0.07523298,0.1220172,-0.2820776,0.02035263,0.01513665,1.000374,16.33382,-26.15852,-33.91332,1010.549
1.087377548,0.07523298,0.1825299,-0.09859026,0.01941219,0.01319915,1.006644,16.33382,-26.15852,-33.91332,1010.549
1.089855194,0.3201669,0.1825299,-0.1597527,0.01893623,0.0122263,1.00809,16.33382,-26.15852,-33.91332,1010.549
1.092331409,0.2589334,0.1220172,-0.4044026,0.01939032,0.01269464,0.9994012,16.33382,-26.15852,-33.91332,1010.549
1.094809055,0.0139995,0.0009917939,-0.2820776,0.02134224,0.01564267,1.006163,16.33382,-26.15852,-33.91332,1010.549
1.097285748,0.07523298,0.1220172,-0.09859026,0.02330777,0.01468943,1.010492,16.33382,-26.15852,-33.91332,1010.549
1.099762917,0.1976999,0.2430426,-0.1597527,0.01938272,0.01611132,1.002797,16.33382,-26.15852,-33.91332,1010.549
1.102239609,0.1976999,0.0009917939,-0.3432401,0.01501883,0.01316478,1.001841,16.33382,-26.15852,-33.91332,1010.549
1.104716778,0.2589334,0.0615045,-0.2209152,0.02281867,0.01224057,1.005655,16.33382,-26.15852,-33.91332,1010.549
1.107193470,0.3201669,0.1220172,-0.03742781,0.02136023,0.01272229,1.006631,16.33382,-26.15852,-33.91332,1010.549
1.109670162,0.3201669,0.0615045,-0.09859026,0.01550678,0.01170183,0.9999,16.33382,-26.15852,-33.91332,1010.549
1.112147331,0.1364664,0.1825299,-0.2820776,0.01745923,0.01367249,1.005209,16.33382,-26.15852,-33.91332,1010.549
1.114624023,0.1364664,0.2430426,-0.1597527,0.01501996,0.01560995,1.006198,16.33382,-26.15852,-33.91332,1010.549
1.117101193,0.2589334,0.0615045,-0.1597527,0.01405,0.01365135,1.003779,16.33371,-26.15972,-33.97666,1010.549
1.119577885,0.1364664,0.2430426,-0.09859026,0.01456472,0.01122979,1.008108,16.33371,-26.15972,-33.97666,1010.549
1.122055531,0.1364664,0.1825299,-0.1597527,0.01402765,0.01705748,1.002832,16.33371,-26.15972,-33.97666,1010.554
1.124531746,0.07523298,0.1825299,-0.2820776,0.0223083,0.01270975,0.9993852,16.33371,-26.15972,-33.97666,1010.554
1.127009392,0.07523298,-0.05952091,-0.1597527,0.02329135,0.01321108,1.003244,16.33371,-26.15972,-33.97666,1010.554
1.129486084,0.3201669,0.1220172,-0.2209152,0.01841771,0.01562288,1.004248,16.33371,-26.15972,-33.97666,1010.554
1.131963253,0.2589334,0.0615045,-0.2209152,0.0188893,0.01708148,1.002323,16.33371,-26.15972,-33.97666,1010.554
1.134439945,0.1364664,0.0615045,-0.2209152,0.02181377,0.01270137,0.9969745,16.33371,-26.15972,-33.97666,1010.554
1.136916637,0.1976999,0.2430426,-0.2209152,0.02377167,0.01369818,1.002278,16.33371,-26.15972,-33.97666,1010.554
1.139393806,0.1364664,0.1220172,-0.2209152,0.01548283,0.01804005,1.003312,16.33371,-26.15972,-33.97666,1010.554
1.141870499,0.2589334,0.1825299,-0.2820776,0.0154992,0.01658514,1.005717,16.33371,-26.15972,-33.97666,1010.554
1.144347668,0.3201669,0.1220172,-0.2820776,0.01742651,0.01804895,1.002818,16.33371,-26.15972,-33.97666,1010.554
1.146824360,0.1976999,0.1825299,-0.2209152,0.02132587,0.01709758,1.003757,16.33371,-26.15972,-33.97666,1010.554
1.149301529,0.1364664,0.4245807,-0.2209152,0.01744507,0.01708447,1.006675,16.33371,-26.15972,-33.97666,1010.554
1.151778221,0.1364664,0.0615045,-0.4044026,0.01549916,0.01365187,1.000875,16.33371,-26.15972,-33.97666,1010.554
1.154255867,0.07523298,-0.05952091,-0.2820776,0.0179608,0.009774921,1.003255,16.33371,-26.15972,-33.97666,1010.554
1.156732559,0.1364664,0.0009917939,-0.2820776,0.02084933,0.01416883,1.001814,16.33371,-26.15972,-33.97666,1010.554
1.159209728,0.07523298,0.0009917939,-0.09859026,0.01989575,0.01075532,1.001802,16.33371,-26.15972,-33.97666,1010.554
1.161686420,0.07523298,0.2430426,-0.09859026,0.01791826,0.01561099,1.000389,16.33371,-26.15972,-33.97666,1010.553
1.164163590,0.07523298,0.0615045,-0.2209152,0.01698819,0.01270315,1.008103,16.33371,-26.15972,-33.97666,1010.553
1.166640282,0.1976999,0.0615045,-0.2209152,0.01942092,0.01222764,1.007604,16.33371,-26.15972,-33.97666,1010.553
1.169116974,0.1976999,0.1220172,-0.09859026,0.01647676,0.01512706,1.004739,16.71,-26.52244,-33.97157,1010.553
1.171594143,0.1364664,0.1220172,-0.03742781,0.01402548,0.01803367,1.003802,16.71,-26.52244,-33.97157,1010.553
1.174070835,0.07523298,0.1825299,-0.1597527,0.0218313,0.01515826,1.006158,16.71,-26.52244,-33.97157,1010.553
1.176548004,0.0139995,0.0615045,-0.09859026,0.02230449,0.01368477,0.999873,16.71,-26.52244,-33.97157,1010.553
1.179024696,0.2589334,0.0615045,-0.1597527,0.01938383,0.01708985,1.004733,16.71,-26.52244,-33.97157,1010.553
1.181501865,0.07523298,0.1825299,-0.1597527,0.01938817,0.01513747,1.002792,16.71,-26.52244,-33.97157,1010.553
1.183978558,0.0139995,0.2430426,-0.2209152,0.01648978,0.009269901,0.9989167,16.71,-26.52244,-33.97157,1010.553
1.186456204,0.1976999,0.0615045,-0.03742781,0.01208776,0.01460693,1.000416,16.71,-26.52244,-33.97157,1010.553
1.188932896,0.2589334,0.0009917939,-0.2209152,0.0203597,0.01269733,0.9984306,16.71,-26.52244,-33.97157,1010.553
1.191410065,0.2589334,0.3035553,-0.2820776,0.01743685,0.01561198,1.00184,16.71,-26.52244,-33.97157,1010.553
1.193886757,0.1976999,0.3035553,-0.1597527,0.01646473,0.01462958,1.000392,16.71,-26.52244,-33.97157,1010.553
1.196363449,0.1976999,0.0615045,-0.2209152,0.02034231,0.01904024,1.003773,16.71,-26.52244,-33.97157,1010.553
1.198840618,0.1364664,0.1220172,-0.09859026,0.0189324,0.01173468,1.006156,16.71,-26.52244,-33.97157,1010.553
1.201317310,0.07523298,0.2430426,-0.09859026,0.02327114,0.01417438,0.9989048,16.71,-26.52244,-33.97157,1010.554
1.203794479,0.1976999,0.1220172,-0.1597527,0.02085266,0.01710444,1.007621,16.71,-26.52244,-33.97157,1010.554
1.206271172,0.1364664,0.0009917939,-0.1597527,0.01840896,0.01512775,1.000867,16.71,-26.52244,-33.97157,1010.554
1.208748341,0.07523298,0.0615045,-0.2209152,0.01596475,0.01559506,0.9979867,16.71,-26.52244,-33.97157,1010.554
1.211225033,0.1364664,0.3035553,-0.2820776,0.01791392,0.01756337,1.00233,16.71,-26.52244,-33.97157,1010.554
1.213702679,0.1364664,0.364068,-0.09859026,0.02084009,0.01758433,1.004728,16.71,-26.52244,-33.97157,1010.554
1.216178894,0.07523298,0.1825299,0.02373465,0.01500354,0.01413159,0.9989498,16.71,-26.52244,-33.97157,1010.554
1.218656540,0.1976999,0.1220172,-0.1597527,0.01746579,0.01367717,1.00714,16.71,-26.52244,-33.97157,1010.554
1.221133232,0.3201669,0.364068,-0.1597527,0.02135206,0.01418306,1.006638,16.71,-26.52244,-33.97157,1010.554
1.223609924,-0.04723396,0.3035553,-0.1597527,0.01645983,0.0160927,1.001365,16.71,-26.52244,-33.97157,1010.554
1.226087093,0.1364664,0.1220172,-0.1597527,0.01552701,0.01220516,1.00666,16.71,-26.52244,-33.97157,1010.554
1.228563786,0.3201669,0.0009917939,-0.03742781,0.01602042,0.011235,1.007135,16.71,-26.52244,-33.97157,1010.554
1.231040955,0.3201669,0.0615045,-0.09859026,0.01842752,0.01416327,1.004723,16.71,-26.52244,-33.97157,1010.554
1.233517647,0.1976999,0.0615045,-0.3432401,0.01744503,0.01415121,1.001833,16.71,-26.52244,-33.97157,1010.554
1.235994816,0.1976999,0.0615045,-0.1597527,0.02036139,0.01563177,1.003755,16.71,-26.52244,-33.97157,1010.554
1.238471508,0.1976999,0.1825299,-0.03742781,0.01890399,0.01269213,0.9994038,16.71,-26.52244,-33.97157,1010.554
1.240948677,0.1976999,0.1825299,-0.2209152,0.02132091,0.0141608,0.9974675,16.71,-26.52244,-33.97157,1010.554
1.243425369,-0.04723396,0.0615045,-0.2820776,0.02130407,0.02099298,1.003777,16.71,-26.52244,-33.97157,1010.551
1.245903015,0.07523298,0.1825299,-0.2209152,0.02134767,0.01320218,1.003737,16.71,-26.52244,-33.97157,1010.551
1.248379231,0.1364664,0.0615045,-0.2209152,0.01600842,0.01220416,1.005209,16.71,-26.52244,-33.97157,1010.551
1.250855923,0.07523298,0.0009917939,-0.2209152,0.01744394,0.01463931,1.002318,16.71,-26.52244,-33.97157,1010.551
1.253333569,0.1364664,0.2430426,-0.1597527,0.01891549,0.01416696,1.005203,16.71,-26.52244,-33.97157,1010.551
1.255810261,0.07523298,0.1220172,-0.2209152,0.01697235,0.0131807,1.004244,16.71,-26.52244,-33.97157,1010.551
1.258287430,0.1976999,0.3035553,-0.2820776,0.0232995,0.01028367,1.000816,16.71,-26.52244,-33.97157,1010.551
1.260764122,0.07523298,0.1825299,-0.1597527,0.01793953,0.01269295,1.001823,16.71,-26.52244,-33.97157,1010.551
1.263241291,0.07523298,0.2430426,-0.1597527,0.01499539,0.017059,1.001378,16.71,-26.52244,-33.97157,1010.551
1.265717983,0.0139995,0.3035553,-0.2209152,0.01503848,0.01171221,1.005212,16.71,-26.52244,-33.97157,1010.551
1.268195152,0.1364664,0.1825299,-0.1597527,0.01550678,0.01170183,0.9999,16.333,-26.16694,-34.35667,1010.551
1.270671845,0.1976999,0.0615045,-0.09859026,0.01744558,0.01464048,1.0028,16.333,-26.16694,-34.35667,1010.551
1.273149014,0.2589334,0.2430426,-0.2209152,0.01549809,0.0156066,1.003781,16.333,-26.16694,-34.35667,1010.551
1.275625706,0.0139995,0.1220172,-0.2209152,0.01402659,0.01901221,1.005738,16.333,-26.16694,-34.35667,1010.551
1.278102398,0.1976999,0.1825299,-0.2820776,0.01989584,0.01662185,1.011486,16.333,-26.16694,-34.35667,1010.551
1.280580044,0.1364664,0.1220172,-0.1597527,0.01890568,0.01562656,1.004728,16.333,-26.16694,-34.35667,1010.551
1.283056259,0.07523298,0.0615045,-0.1597527,0.01403201,0.01657173,1.003312,16.333,-26.16694,-34.35667,1010.552
1.285533905,0.1364664,0.1220172,-0.1597527,0.01502483,0.0126802,1.002804,16.333,-26.16694,-34.35667,1010.552
1.288010597,0.07523298,0.1220172,-0.09859026,0.01697401,0.01464851,1.007147,16.333,-26.16694,-34.35667,1010.552
1.290487766,0.1364664,0.1220172,-0.2209152,0.01698761,0.01074725,1.004714,16.333,-26.16694,-34.35667,1010.552
1.292964459,0.07523298,0.1825299,-0.2209152,0.0184215,0.01318122,1.00134,16.333,-26.16694,-34.35667,1010.552
1.295441628,0.0139995,0.1825299,-0.09859026,0.02035372,0.01464855,0.9998887,16.333,-26.16694,-34.35667,1010.552
1.300395489,0.2589334,0.1825299,-0.2209152,0.01497791,0.01753538,0.9970368,16.333,-26.16694,-34.35667,1010.552
1.300395489,0.2589334,0.1825299,-0.2209152,0.01497791,0.01753538,0.9970368,16.333,-26.16694,-34.35667,1010.552
1.305349350,0.1364664,0.0615045,-0.3432401,0.01648271,0.01170921,1.00086,16.333,-26.16694,-34.35667,1010.552
1.307826042,0.07523298,0.0615045,-0.09859026,0.01844445,0.01319763,1.008097,16.333,-26.16694,-34.35667,1010.552
1.310302734,0.1976999,0.0009917939,-0.09859026,0.0227723,0.01758502,1.000856,16.333,-26.16694,-34.35667,1010.552
1.312780380,0.1976999,0.1825299,-0.09859026,0.01938704,0.0126923,0.9984359,16.333,-26.16694,-34.35667,1010.552
1.315256596,0.2589334,0.0615045,-0.2820776,0.01939309,0.01514099,1.00424,16.333,-26.16694,-34.35667,1010.552
1.317734242,0.07523298,0.2430426,-0.2820776,0.01500084,0.01608515,1.001373,16.333,-26.16694,-34.35667,1010.552
1.320210934,0.0139995,0.1825299,-0.2820776,0.01791986,0.01267889,0.9960304,16.33875,-26.53364,-34.35019,1010.552
1.322688103,0.07523298,0.1220172,-0.2209152,0.01747228,0.009281965,1.001808,16.33875,-26.53364,-34.35019,1010.552
1.325164795,0.07523298,0.2430426,-0.1597527,0.0135582,0.01315605,1.001366,16.33875,-26.53364,-34.35019,1010.552
1.327641964,0.2589334,0.2430426,-0.1597527,0.01940397,0.01172666,1.00181,16.33875,-26.53364,-34.35019,1010.552
1.330118656,0.1976999,0.1825299,-0.1597527,0.02232851,0.01174644,1.003724,16.33875,-26.53364,-34.35019,1010.552
1.332595825,0.1364664,0.1220172,-0.09859026,0.01941979,0.009782472,1.003247,16.33875,-26.53364,-34.35019,1010.552
1.335072517,0.1364664,0.0615045,-0.3432401,0.01646798,0.0131653,0.9989368,16.33875,-26.53364,-34.35019,1010.552
1.337549210,0.1976999,0.1220172,-0.2209152,0.01551333,0.01170652,1.001831,16.33875,-26.53364,-34.35019,1010.552
1.340026379,0.1364664,0.1220172,-0.1597527,0.02037938,0.0127114,1.004223,16.33875,-26.53364,-34.35019,1010.552
1.342503071,0.1976999,0.1825299,-0.09859026,0.01649364,0.01122814,1.003271,16.33875,-26.53364,-34.35019,1010.552
1.344980717,0.1364664,0.0615045,-0.1597527,0.0213422,0.0127094,1.001321,16.33875,-26.53364,-34.35019,1010.552
1.347457409,0.1976999,0.0615045,-0.1597527,0.01694673,0.01805112,1.004751,16.33875,-26.53364,-34.35019,1010.552
1.349934578,0.1364664,0.1825299,-0.09859026,0.01649313,0.01367214,1.007145,16.33875,-26.53364,-34.35019,1010.552
1.352411270,0.07523298,0.3035553,-0.1597527,0.02133349,0.01514754,1.002782,16.33875,-26.53364,-34.35019,1010.552
1.354888439,-0.1084674,0.1825299,-0.03742781,0.01793627,0.01415724,1.003278,16.33875,-26.53364,-34.35019,1010.552
1.357365131,-0.04723396,0.0009917939,-0.2209152,0.01258448,0.01510575,1.004278,16.33875,-26.53364,-34.35019,1010.552
1.359842300,0.1364664,0.0009917939,-0.2209152,0.01307571,0.01364515,1.003302,16.33875,-26.53364,-34.35019,1010.552
1.362318993,0.1364664,0.0615045,-0.2820776,0.0145391,0.01610021,1.008616,16.33875,-26.53364,-34.35019,1010.555
1.364796162,0.0139995,0.1220172,-0.1597527,0.0198827,0.01514585,1.005203,16.33875,-26.53364,-34.35019,1010.555
1.367272854,0.07523298,0.0615045,-0.03742781,0.01988432,0.01368039,1.003265,16.33875,-26.53364,-34.35019,1010.555
1.369749546,0.2589334,0.1220172,-0.1597527,0.01941489,0.01124559,1.00422,16.33875,-26.53364,-34.35019,1010.555
1.372226715,0.1976999,0.2430426,-0.3432401,0.01943512,0.01174892,1.01098,16.33875,-26.53364,-34.35019,1010.555
1.374703407,0.1364664,0.0615045,-0.4044026,0.02134495,0.01368911,1.00374,16.33875,-26.53364,-34.35019,1010.555
1.377181053,0.0139995,0.0615045,-0.1597527,0.01355984,0.01315723,1.001849,16.33875,-26.53364,-34.35019,1010.555
1.379657745,-0.04723396,0.1220172,-0.2820776,0.01743851,0.01707979,1.004744,16.33875,-26.53364,-34.35019,1010.555
1.382134914,0.07523298,0.0615045,-0.03742781,0.01841064,0.01806219,1.006192,16.33875,-26.53364,-34.35019,1010.555
1.384611607,0.1364664,0.1220172,-0.09859026,0.01889203,0.01659456,1.00232,16.33875,-26.53364,-34.35019,1010.555
1.387088776,0.1976999,0.1220172,-0.3432401,0.01740521,0.01950035,0.9989643,16.33875,-26.53364,-34.35019,1010.555
1.389565468,0.0139995,0.1825299,-0.2209152,0.01547354,0.01852229,1.001383,16.33875,-26.53364,-34.35019,1010.555
1.392042637,-0.1084674,0.1825299,-0.2209152,0.01357021,0.01218689,1.003292,16.33875,-26.53364,-34.35019,1010.555
1.394519329,0.1364664,0.0615045,-0.2820776,0.01842695,0.01220737,1.001335,16.33875,-26.53364,-34.35019,1010.555
1.396996021,0.07523298,0.0009917939,-0.1597527,0.01988598,0.01514819,1.006168,16.33875,-26.53364,-34.35019,1010.555
1.399473190,0.1364664,0.1825299,-0.1597527,0.01842371,0.0151383,1.005211,16.33875,-26.53364,-34.35019,1010.555
1.401949883,0.1364664,0.0615045,-0.09859026,0.01647075,0.01561164,1.003776,16.33875,-26.53364,-34.35019,1010.559
1.404427528,0.1976999,0.2430426,-0.1597527,0.01693523,0.01657628,0.9989518,16.33875,-26.53364,-34.35019,1010.559
1.406903744,0.0139995,0.3035553,-0.3432401,0.01699142,0.009772232,1.004226,16.33875,-26.53364,-34.35019,1010.559
1.409381390,-0.1084674,0.0009917939,-0.3432401,0.01936307,0.01756389,0.9994263,16.33875,-26.53364,-34.35019,1010.559
1.411858082,0.0139995,0.0615045,-0.2209152,0.0174396,0.01659169,1.004259,16.33875,-26.53364,-34.35019,1010.559
1.414335251,0.1976999,0.1825299,-0.2209152,0.0169647,0.01366411,1.002798,16.33875,-26.53364,-34.35019,1010.559
1.416811943,0.1364664,0.0615045,-0.2820776,0.01647946,0.0131735,1.002316,16.33875,-26.53364,-34.35019,1010.559
1.419289112,0.07523298,0.0615045,-0.2820776,0.01354786,0.01559302,1.002344,16.333,-26.16694,-34.35667,1010.559
1.421765804,0.07523298,-0.05952091,-0.09859026,0.01648059,0.01561867,1.006672,16.333,-26.16694,-34.35667,1010.559
1.424242973,0.1364664,0.0009917939,-0.2209152,0.01989848,0.0102684,1.001799,16.333,-26.16694,-34.35667,1010.559
1.426719666,0.1976999,0.0009917939,-0.2209152,0.02135913,0.01174375,1.004695,16.333,-26.16694,-34.35667,1010.559
1.429196358,0.1976999,0.1220172,-0.3432401,0.01893078,0.01320015,1.008095,16.333,-26.16694,-34.35667,1010.559
1.431673527,0.1364664,0.364068,-0.2209152,0.01505047,0.009276411,1.004717,16.333,-26.16694,-34.35667,1010.559
1.434150219,0.07523298,0.2430426,-0.1597527,0.0155286,0.009273069,1.002301,16.333,-26.16694,-34.35667,1010.559
1.436627865,0.0139995,0.1825299,-0.2209152,0.01501285,0.01511599,1.003299,16.333,-26.16694,-34.35667,1010.559
1.439104080,0.0139995,0.2430426,-0.2209152,0.01891549,0.01416696,1.005203,16.333,-26.16694,-34.35667,1010.559
1.441581726,0.07523298,0.1220172,-0.2209152,0.02085478,0.01319498,1.001809,16.333,-26.16694,-34.35667,1010.557
1.444058418,0.1976999,0.0615045,-0.1597527,0.01791445,0.01658601,1.000877,16.333,-26.16694,-34.35667,1010.557
1.446535587,0.1364664,0.0009917939,-0.1597527,0.01456088,0.01073818,1.006175,16.333,-26.16694,-34.35667,1010.557
1.449012280,0.1976999,0.1220172,-0.2820776,0.01504229,0.01073718,1.004724,16.333,-26.16694,-34.35667,1010.557
1.451489449,0.2589334,0.2430426,-0.09859026,0.01841334,0.01610863,1.003768,16.333,-26.16694,-34.35667,1010.557
1.453966141,0.1364664,0.1825299,-0.1597527,0.02038485,0.01320418,1.006639,16.333,-26.16694,-34.35667,1010.557
1.456442833,0.1364664,0.0615045,-0.09859026,0.01550952,0.01268154,1.002319,16.333,-26.16694,-34.35667,1010.557
1.458920002,0.07523298,0.0009917939,-0.03742781,0.01840461,0.01708013,1.002808,16.333,-26.16694,-34.35667,1010.557
1.461396694,0.07523298,0.0009917939,-0.3432401,0.01597403,0.01511282,0.999915,16.333,-26.16694,-34.35667,1010.557
1.463873863,0.1364664,0.0615045,-0.1597527,0.01454781,0.01366207,1.007155,16.333,-26.16694,-34.35667,1010.557
1.466350556,0.1364664,0.0615045,-0.09859026,0.01647292,0.01463544,1.002806,16.333,-26.16694,-34.35667,1010.557
1.468828201,0.2589334,0.1220172,-0.2209152,0.01789263,0.01901477,0.9984765,16.333,-26.16694,-34.35667,1010.557
1.471304894,0.1364664,0.0009917939,-0.2209152,0.01938653,0.0151363,1.00231,15.97467,-26.8971,-33.96231,1010.557
1.473782063,0.3814003,0.0009917939,-0.1597527,0.0193854,0.01269113,0.9979531,15.97467,-26.8971,-33.96231,1010.557
1.476258755,0.1976999,0.364068,-0.09859026,0.01744611,0.01366311,1.001347,15.97467,-26.8971,-33.96231,1010.557
1.478735924,0.1364664,0.1220172,-0.1597527,0.01454125,0.01365739,1.005225,15.97467,-26.8971,-33.96231,1010.557
1.481212616,0.07523298,0.1220172,-0.2209152,0.01453855,0.01561094,1.007648,15.97467,-26.8971,-33.96231,1010.559
1.483689785,0.07523298,0.0009917939,-0.3432401,0.01404511,0.01511447,1.004752,15.97467,-26.8971,-33.96231,1010.559
1.486166477,0.0139995,0.1220172,-0.4044026,0.01599966,0.01170904,1.001828,15.97467,-26.8971,-33.96231,1010.559
1.488643170,0.0139995,0.1220172,-0.2209152,0.01938325,0.01513395,1.001344,15.97467,-26.8971,-33.96231,1010.559
1.491120339,-0.04723396,0.2430426,-0.1597527,0.01841662,0.01611097,1.004733,15.97467,-26.8971,-33.96231,1010.559
1.493597031,0.07523298,0.1825299,-0.09859026,0.01503957,0.01122411,1.004727,15.97467,-26.8971,-33.96231,1010.559
1.496074677,0.07523298,0.2430426,-0.2209152,0.02088584,0.007350713,1.001296,15.97467,-26.8971,-33.96231,1010.559
1.498551846,0.07523298,-0.05952091,-0.03742781,0.02035263,0.01513665,1.000374,15.97467,-26.8971,-33.96231,1010.559
1.501028538,0.1364664,-0.1200336,-0.3432401,0.01793572,0.01366797,1.00231,15.97467,-26.8971,-33.96231,1010.559
1.503505230,0.2589334,-0.05952091,-0.465565,0.01986633,0.01660076,1.002797,15.97467,-26.8971,-33.96231,1010.559
1.505982399,0.1976999,-0.05952091,-0.2820776,0.01987783,0.01807559,1.008597,15.97467,-26.8971,-33.96231,1010.559
1.508459091,-0.04723396,0.1220172,-0.2209152,0.01938108,0.01611015,1.002315,15.97467,-26.8971,-33.96231,1010.559
1.510936260,-0.1084674,0.1825299,-0.09859026,0.01551393,0.01512905,1.00764,15.97467,-26.8971,-33.96231,1010.559
1.513412953,0.1364664,0.1220172,-0.03742781,0.0203685,0.01612573,1.006654,15.97467,-26.8971,-33.96231,1010.559
1.515890122,0.1364664,0.0615045,-0.2209152,0.01938875,0.01709337,1.006181,15.97467,-26.8971,-33.96231,1010.559
1.518366814,0.3201669,0.1825299,-0.2820776,0.01793734,0.01220251,1.000372,15.97467,-26.8971,-33.96231,1010.559
1.520843506,0.1364664,0.1220172,-0.09859026,0.01501611,0.0136517,1.001843,16.34379,-26.90755,-34.72373,1010.559
1.523320675,0.1364664,0.0009917939,-0.2820776,0.01746466,0.01123201,1.002783,16.34379,-26.90755,-34.72373,1010.556
1.525797367,0.1976999,0.1220172,-0.09859026,0.01599257,0.01268171,1.00135,16.34379,-26.90755,-34.72373,1010.556
1.528275013,0.0139995,0.0009917939,-0.2209152,0.01841385,0.01366463,0.9998942,16.34379,-26.90755,-34.72373,1010.556
1.530751228,0.07523298,0.0615045,-0.2820776,0.01453467,0.01218607,1.000873,16.34379,-26.90755,-34.72373,1010.556
1.533228874,0.2589334,0.364068,-0.2820776,0.01793958,0.01562622,1.006664,16.34379,-26.90755,-34.72373,1010.556
1.535705567,0.2589334,0.0009917939,-0.2209152,0.01938764,0.01611483,1.004246,16.34379,-26.90755,-34.72373,1010.556
1.538182736,0.1364664,0.0009917939,-0.1597527,0.01987559,0.01465189,1.002305,16.34379,-26.90755,-34.72373,1010.556
1.540659428,0.1976999,0.1220172,-0.09859026,0.01890459,0.01611466,1.005213,16.34379,-26.90755,-34.72373,1010.556
1.543136597,0.1364664,0.0009917939,-0.1597527,0.01986958,0.01513647,1.001342,16.34379,-26.90755,-34.72373,1010.556
1.545613289,0.1976999,0.0009917939,-0.2209152,0.01354509,0.01314668,0.9975048,16.34379,-26.90755,-34.72373,1010.556
1.548090458,0.1364664,0.1825299,-0.3432401,0.01650022,0.01269946,1.007622,16.34379,-26.90755,-34.72373,1010.556
1.550567150,0.07523298,0.1825299,-0.2820776,0.01648493,0.01366628,1.004731,16.34379,-26.90755,-34.72373,1010.556
1.553043842,0.1976999,0.1220172,-0.03742781,0.01986845,0.0126913,0.9969851,16.34379,-26.90755,-34.72373,1010.556
1.555521011,0.1976999,0.1220172,-0.1597527,0.01988868,0.01319463,1.003745,16.34379,-26.90755,-34.72373,1010.556
1.557997704,0.1976999,0.3035553,-0.1597527,0.0160013,0.01171021,1.002311,16.34379,-26.90755,-34.72373,1010.556
1.560475350,0.1364664,0.2430426,-0.2820776,0.01599971,0.0146423,1.00667,16.34379,-26.90755,-34.72373,1010.556
1.562952042,0.0139995,0.1220172,-0.09859026,0.01888711,0.01659104,1.000872,16.34379,-26.90755,-34.72373,1010.561
1.567905903,0.3201669,0.3035553,-0.1597527,0.01891547,0.01270033,1.002782,16.34379,-26.90755,-34.72373,1010.561
1.570383072,0.07523298,0.1220172,-0.2820776,0.01794556,0.01367501,1.005206,16.34379,-26.90755,-34.72373,1010.561
1.572859764,0.0139995,0.0615045,-0.2209152,0.01405275,0.01463106,1.006198,15.96892,-26.5304,-33.96879,1010.561
1.575336933,0.1976999,0.0009917939,-0.03742781,0.0174674,0.01221171,1.005201,15.96892,-26.5304,-33.96879,1010.561
1.577813625,0.07523298,0.0615045,-0.1597527,0.01743902,0.01463579,1.00087,15.96892,-26.5304,-33.96879,1010.561
1.580290795,0.1976999,0.1220172,-0.3432401,0.01743627,0.01365608,0.9984515,15.96892,-26.5304,-33.96879,1010.561
1.582767487,0.1364664,0.1825299,-0.2209152,0.01739263,0.01851361,0.9936498,15.96892,-26.5304,-33.96879,1010.561
1.585244179,0.1364664,0.1825299,-0.1597527,0.01937122,0.01463648,0.9969978,15.96892,-26.5304,-33.96879,1010.561
1.587721348,0.1364664,0.1220172,-0.2209152,0.01790736,0.01755868,1.0004,15.96892,-26.5304,-33.96879,1010.561
1.590198040,0.07523298,0.1825299,-0.09859026,0.01598283,0.01854121,1.008138,15.96892,-26.5304,-33.96879,1010.561
1.592675686,0.1976999,0.2430426,-0.09859026,0.0198936,0.01319815,1.005193,15.96892,-26.5304,-33.96879,1010.561
1.595152378,0.07523298,0.2430426,-0.3432401,0.01644452,0.01559289,0.9960535,15.96892,-26.5304,-33.96879,1010.561
1.597629547,0.1976999,0.2430426,-0.1597527,0.01552102,0.01415638,1.008118,15.96892,-26.5304,-33.96879,1010.561
1.600106239,0.2589334,0.0009917939,-0.09859026,0.02328156,0.01613731,1.00519,15.96892,-26.5304,-33.96879,1010.561
1.602583408,0.1364664,-0.05952091,-0.2209152,0.01889365,0.01512909,1.000382,15.96892,-26.5304,-33.96879,1010.559
1.605060101,0.1976999,0.1220172,-0.2820776,0.01939961,0.01221241,1.001329,15.96892,-26.5304,-33.96879,1010.559
1.607537270,0.1364664,0.0009917939,-0.1597527,0.01796844,0.009291513,1.004701,15.96892,-26.5304,-33.96879,1010.559
1.610013962,0.07523298,0.2430426,-0.2209152,0.0165122,0.01026367,1.007127,15.96892,-26.5304,-33.96879,1010.559
1.612490654,0.0139995,0.0615045,-0.2820776,0.01504613,0.0112288,1.006658,15.96892,-26.5304,-33.96879,1010.559
1.614967823,0.1364664,0.0615045,-0.09859026,0.01892473,0.01075146,1.00229,15.96892,-26.5304,-33.96879,1010.559
1.617444515,0.2589334,0.1220172,-0.09859026,0.0198549,0.01952582,1.00426,15.96892,-26.5304,-33.96879,1010.559
1.619922161,0.1976999,0.1220172,-0.2209152,0.01986684,0.01415676,0.9989233,15.96892,-26.5304,-33.96879,1010.559
1.622398377,0.0139995,-0.1200336,-0.1597527,0.01939961,0.01221241,1.001329,15.59767,-26.5416,-34.34742,1010.559
1.624876022,0.0139995,-0.05952091,-0.1597527,0.01937291,0.01757092,1.002322,15.59767,-26.5416,-34.34742,1010.559
1.627352715,0.1364664,0.2430426,-0.09859026,0.01990233,0.01222664,1.006153,15.59767,-26.5416,-34.34742,1010.559
1.629829884,0.2589334,0.1825299,-0.1597527,0.02088099,0.0117471,1.007111,15.59767,-26.5416,-34.34742,1010.559
1.632306576,0.2589334,0.0615045,-0.03742781,0.01987122,0.01513764,1.001824,15.59767,-26.5416,-34.34742,1010.559
1.634783745,0.1364664,0.0615045,-0.2820776,0.01452652,0.01511347,1.003302,15.59767,-26.5416,-34.34742,1010.559
1.637260437,0.07523298,0.0615045,-0.09859026,0.01890134,0.01757895,1.006669,15.59767,-26.5416,-34.34742,1010.559
1.639737606,0.07523298,0.1825299,-0.1597527,0.02039413,0.01272194,1.008567,15.59767,-26.5416,-34.34742,1010.559
1.642214298,0.1364664,0.1825299,-0.09859026,0.01748976,0.008805587,1.006149,15.59767,-26.5416,-34.34742,1010.558
1.644690991,0.1364664,0.2430426,-0.09859026,0.02083518,0.01758081,1.00328,15.59767,-26.5416,-34.34742,1010.558
1.647168160,0.1364664,0.2430426,-0.1597527,0.01940184,0.01563611,1.007622,15.59767,-26.5416,-34.34742,1010.558
1.649644852,0.1976999,0.1220172,-0.4044026,0.01599424,0.01414952,1.004254,15.59767,-26.5416,-34.34742,1010.558
1.652122498,0.07523298,0.2430426,-0.2209152,0.01598876,0.01365674,1.001838,15.59767,-26.5416,-34.34742,1010.558
1.654598713,-0.04723396,0.1825299,-0.2209152,0.01548553,0.0160865,1.000888,15.59767,-26.5416,-34.34742,1010.558
1.657076359,0.1364664,0.1220172,-0.03742781,0.01888877,0.01805884,1.003775,15.59767,-26.5416,-34.34742,1010.558
1.659553051,0.1364664,0.3035553,-0.2209152,0.01939688,0.01269933,1.001332,15.59767,-26.5416,-34.34742,1010.558
1.662030220,0.1364664,0.2430426,-0.1597527,0.01499486,0.01803636,1.002831,15.59767,-26.5416,-34.34742,1010.558
1.664506912,0.1976999,0.0615045,-0.2209152,0.01747285,0.01123787,1.005196,15.59767,-26.5416,-34.34742,1010.558
1.666984081,0.07523298,0.0615045,-0.1597527,0.01744013,0.01561433,1.002805,15.59767,-26.5416,-34.34742,1010.558
1.669460774,0.1976999,-0.05952091,-0.1597527,0.01600079,0.01415421,1.006185,15.59767,-26.5416,-34.34742,1010.558
1.671937943,0.1364664,0.2430426,-0.2820776,0.01842475,0.01171693,0.9998841,16.3445,-26.90033,-34.34371,1010.558
1.674414635,0.2589334,0.1220172,-0.1597527,0.01743306,0.01805364,1.004749,16.3445,-26.90033,-34.34371,1010.558
1.676891327,0.0139995,0.1220172,-0.2820776,0.01450638,0.02047667,1.006225,16.3445,-26.90033,-34.34371,1010.558
1.679368496,0.07523298,0.0009917939,-0.1597527,0.01503301,0.01121942,1.002796,16.3445,-26.90033,-34.34371,1010.558
1.681845188,0.2589334,0.0615045,-0.09859026,0.01647946,0.0131735,1.002316,16.3445,-26.90033,-34.34371,1010.559
1.684322834,0.1364664,0.2430426,-0.09859026,0.01744995,0.01415472,1.003281,16.3445,-26.90033,-34.34371,1010.559
1.686799526,0.1976999,0.1825299,-0.2820776,0.01505377,0.01074539,1.008103,16.3445,-26.90033,-34.34371,1010.559
1.689276695,0.1976999,0.0615045,-0.2820776,0.01649151,0.0151376,1.009083,16.3445,-26.90033,-34.34371,1010.559
1.691753388,0.1364664,0.1220172,-0.2820776,0.01696313,0.01806284,1.009578,16.3445,-26.90033,-34.34371,1010.559
1.694230557,0.1364664,0.1220172,-0.2209152,0.01793627,0.01415724,1.003278,16.3445,-26.90033,-34.34371,1010.559
1.696707249,0.07523298,0.1220172,-0.03742781,0.01451887,0.01559688,1.001856,16.3445,-26.90033,-34.34371,1010.559
1.699184418,0.1976999,0.0615045,-0.03742781,0.01405984,0.01365839,1.006675,16.3445,-26.90033,-34.34371,1010.559
1.701661110,0.1364664,0.0615045,-0.2209152,0.01697837,0.01416275,1.007627,16.3445,-26.90033,-34.34371,1010.559
1.704138279,0.07523298,0.0615045,-0.4044026,0.01795482,0.01172614,1.004713,16.3445,-26.90033,-34.34371,1010.559
1.706614971,0.0139995,0.1220172,-0.2820776,0.01501611,0.0136517,1.001843,16.3445,-26.90033,-34.34371,1010.559
1.709091664,0.1364664,0.0615045,-0.2209152,0.01985868,0.01708417,1.001352,16.3445,-26.90033,-34.34371,1010.559
1.711568833,0.1976999,0.0009917939,-0.2209152,0.02178493,0.02050271,1.001359,16.3445,-26.90033,-34.34371,1010.559
1.714045525,0.1364664,0.1220172,-0.1597527,0.0164702,0.01512237,1.002808,16.3445,-26.90033,-34.34371,1010.559
1.716523171,0.07523298,0.0615045,-0.09859026,0.01452816,0.01511464,1.003784,16.3445,-26.90033,-34.34371,1010.559
1.718999863,0.2589334,0.0009917939,-0.1597527,0.01501065,0.01462555,1.001848,16.3445,-26.90033,-34.34371,1010.559
1.721477032,0.1976999,0.1825299,-0.1597527,0.01840568,0.01512541,0.9999018,16.3445,-26.90033,-34.34371,1010.556
1.723953724,0.07523298,0.0009917939,-0.2209152,0.01744558,0.01464048,1.0028,16.71,-26.52244,-33.97157,1010.556
1.726430893,0.1976999,0.1220172,-0.3432401,0.01548336,0.01706269,1.001858,16.71,-26.52244,-33.97157,1010.556
1.728907585,0.1976999,0.1220172,-0.2820776,0.01306587,0.01363812,1.000406,16.71,-26.52244,-33.97157,1010.556
1.731384754,0.1976999,0.1220172,-0.1597527,0.0169565,0.01365825,1.000385,16.71,-26.52244,-33.97157,1010.556
1.733861447,-0.04723396,0.0615045,-0.2209152,0.01743087,0.0175632,1.003298,16.71,-26.52244,-33.97157,1010.556
1.736338616,0.0139995,0.0009917939,-0.3432401,0.01550248,0.01658748,1.006683,16.71,-26.52244,-33.97157,1010.556
1.738815308,0.07523298,0.0615045,-0.4044026,0.01551449,0.01561832,1.008608,16.71,-26.52244,-33.97157,1010.556
1.741292000,0.1976999,0.1220172,-0.1597527,0.01646255,0.01560578,1.001363,16.71,-26.52244,-33.97157,1010.556
1.743769646,0.07523298,0.1220172,-0.2209152,0.01645272,0.01559875,0.9984668,16.71,-26.52244,-33.97157,1010.556
1.746245861,0.1364664,0.1825299,-0.2820776,0.0174554,0.01318088,1.003276,16.71,-26.52244,-33.97157,1010.556
1.748723507,0.1976999,0.2430426,-0.03742781,0.01792919,0.01512992,1.0028,16.71,-26.52244,-33.97157,1010.556
1.751200199,0.0139995,0.1220172,-0.3432401,0.01600354,0.01513391,1.008603,16.71,-26.52244,-33.97157,1010.556
1.753677368,0.1364664,0.2430426,-0.2209152,0.01991106,0.01125514,1.007114,16.71,-26.52244,-33.97157,1010.556
1.756154061,0.1976999,0.2430426,-0.2209152,0.02282197,0.01370955,1.009041,16.71,-26.52244,-33.97157,1010.556
1.758631230,0.2589334,0.0009917939,-0.1597527,0.01841443,0.01562053,1.003283,16.71,-26.52244,-33.97157,1010.556
1.761107922,0.2589334,0.1220172,-0.1597527,0.01890344,0.01220286,0.998436,16.71,-26.52244,-33.97157,1010.557
1.763585091,-0.04723396,0.1825299,-0.1597527,0.02328043,0.01369214,1.000833,16.71,-26.52244,-33.97157,1010.557
1.766061783,0.0139995,0.1220172,-0.2820776,0.02134714,0.01417955,1.00519,16.71,-26.52244,-33.97157,1010.557
1.768538952,0.3201669,0.0615045,-0.2820776,0.01890727,0.01269447,1.000369,16.71,-26.52244,-33.97157,1010.557
1.771015644,0.0139995,0.1825299,-0.2209152,0.02181437,0.0161239,1.002784,16.71,-26.52244,-33.97157,1010.557
1.773492336,0.07523298,0.1825299,-0.4044026,0.01890619,0.01318257,1.000854,16.33945,-26.52642,-33.97018,1010.557
1.775969982,0.1364664,0.1220172,-0.2209152,0.02087986,0.009301926,1.002754,16.33945,-26.52642,-33.97018,1010.557
1.778446198,0.07523298,0.1220172,-0.2209152,0.01694343,0.01658214,1.001365,16.33945,-26.52642,-33.97018,1010.557
1.780923844,0.2589334,0.1220172,-0.2209152,0.01838769,0.01804578,0.9994341,16.33945,-26.52642,-33.97018,1010.557
1.783400536,0.1976999,0.1220172,-0.2209152,0.01840293,0.0141457,0.9974833,16.33945,-26.52642,-33.97018,1010.557
1.785877705,0.07523298,0.1220172,-0.09859026,0.01695108,0.01609873,1.002811,16.33945,-26.52642,-33.97018,1010.557
1.788354397,0.1976999,0.2430426,-0.2820776,0.01355114,0.01559536,1.003309,16.33945,-26.52642,-33.97018,1010.557
1.790831566,0.07523298,0.1825299,-0.2820776,0.01357134,0.01463206,1.007648,16.33945,-26.52642,-33.97018,1010.557
1.793308258,0.0139995,0.0615045,-0.09859026,0.01403636,0.01461934,1.001371,16.33945,-26.52642,-33.97018,1010.557
1.795785427,0.07523298,0.1220172,-0.2209152,0.0174439,0.01170604,0.997476,16.33945,-26.52642,-33.97018,1010.557
1.798262119,0.07523298,0.1220172,-0.2209152,0.01308607,0.01267481,1.004745,16.33945,-26.52642,-33.97018,1010.557
1.800739765,0.1364664,0.0009917939,-0.1597527,0.01647616,0.01170452,0.9989293,16.33945,-26.52642,-33.97018,1010.557
1.803215981,0.2589334,-0.1805463,-0.2209152,0.01449544,0.01949111,1.001394,16.33945,-26.52642,-33.97018,1010.552
1.805692673,0.1976999,0.2430426,-0.2820776,0.01063699,0.01607187,1.005259,16.33945,-26.52642,-33.97018,1010.552
1.808170319,0.1364664,0.1825299,-0.09859026,0.01308827,0.01316526,1.006196,16.33945,-26.52642,-33.97018,1010.552
1.810647011,0.0139995,0.0615045,-0.2820776,0.01891219,0.01269799,1.001817,16.33945,-26.52642,-33.97018,1010.552
1.813124180,0.0139995,0.1825299,-0.2820776,0.01743741,0.01610125,1.002808,16.33945,-26.52642,-33.97018,1010.552
1.815600872,0.0139995,0.2430426,-0.2209152,0.01743029,0.0156073,0.9999096,16.33945,-26.52642,-33.97018,1010.552
1.818078041,0.1976999,0.1220172,-0.2209152,0.01694068,0.01560244,0.9989467,16.33945,-26.52642,-33.97018,1010.552
1.820554733,0.0139995,0.0009917939,-0.2209152,0.01504015,0.01318001,1.008116,16.33945,-26.52642,-33.97018,1010.552
1.823031903,0.0139995,0.0615045,-0.2820776,0.01358769,0.01171051,1.007633,16.3445,-26.90033,-34.34371,1010.552
1.827985764,0.1976999,0.0615045,-0.2209152,0.02279465,0.0141789,1.001804,16.3445,-26.90033,-34.34371,1010.552
1.827985764,0.1976999,0.0615045,-0.2209152,0.02279465,0.0141789,1.001804,16.3445,-26.90033,-34.34371,1010.552
1.830462456,0.1364664,0.1220172,-0.2209152,0.01989252,0.01368624,1.005678,16.3445,-26.90033,-34.34371,1010.552
1.832940102,0.07523298,0.1825299,-0.2820776,0.01793955,0.01415959,1.004243,16.3445,-26.90033,-34.34371,1010.552
1.837893009,0.07523298,0.1220172,-0.09859026,0.01549916,0.01365187,1.000875,16.3445,-26.90033,-34.34371,1010.552
1.837893009,0.07523298,0.1220172,-0.09859026,0.01549916,0.01365187,1.000875,16.3445,-26.90033,-34.34371,1010.552
1.842847347,0.1364664,-0.05952091,-0.1597527,0.02134005,0.01515223,1.004713,16.3445,-26.90033,-34.34371,1010.551
1.845324516,0.0139995,0.1220172,-0.2209152,0.02085261,0.01417117,1.002779,16.3445,-26.90033,-34.34371,1010.551
1.847801209,0.0139995,0.3035553,-0.03742781,0.01454178,0.01268002,1.003772,16.3445,-26.90033,-34.34371,1010.551
1.850278378,0.1364664,0.2430426,-0.09859026,0.01697184,0.0156247,1.008118,16.3445,-26.90033,-34.34371,1010.551
1.852755070,0.3201669,0.0615045,-0.2209152,0.01794777,0.01563208,1.009078,16.3445,-26.90033,-34.34371,1010.551
1.855232239,0.07523298,0.1825299,-0.1597527,0.01454559,0.011705,1.003284,16.3445,-26.90033,-34.34371,1010.551
1.857708931,0.2589334,0.1825299,-0.2209152,0.01746627,0.009766545,1.000845,16.3445,-26.90033,-34.34371,1010.551
1.860186100,0.1976999,0.0615045,-0.2209152,0.01843408,0.01416796,1.006654,16.3445,-26.90033,-34.34371,1010.551
1.862662792,0.1976999,0.0009917939,-0.2209152,0.01502324,0.01561229,1.007163,16.3445,-26.90033,-34.34371,1010.551
1.865140438,0.1364664,0.0615045,-0.1597527,0.01791718,0.01609908,1.000875,16.3445,-26.90033,-34.34371,1010.551
1.867617130,0.3201669,0.0615045,-0.1597527,0.01888928,0.01561485,0.9999017,16.3445,-26.90033,-34.34371,1010.551
1.870093346,0.1364664,0.1825299,0.02373465,0.0164702,0.01512237,1.002808,16.3445,-26.90033,-34.34371,1010.551
1.872570992,0.07523298,0.3035553,-0.1597527,0.01696036,0.0156165,1.004739,16.3445,-26.90033,-34.34371,1010.551
1.875047684,0.0139995,0.3035553,-0.3432401,0.01501943,0.01658731,1.007651,16.3445,-26.90033,-34.34371,1010.551
1.877524853,0.07523298,0.2430426,-0.2209152,0.01651387,0.01173147,1.010031,16.3445,-26.90033,-34.34371,1010.551
1.880001545,0.1976999,0.1220172,-0.03742781,0.01598659,0.01463293,1.002808,16.3445,-26.90033,-34.34371,1010.551
1.882478714,0.2589334,0.1220172,-0.09859026,0.01596368,0.01754979,1.000893,16.3445,-26.90033,-34.34371,1010.547
1.884955406,0.1976999,0.2430426,-0.1597527,0.01746251,0.01367483,1.006174,16.3445,-26.90033,-34.34371,1010.547
1.887432575,0.2589334,0.1220172,-0.1597527,0.0188882,0.01610294,1.000387,16.3445,-26.90033,-34.34371,1010.547
1.889909268,0.2589334,0.2430426,-0.09859026,0.01501941,0.01512068,1.00523,16.3445,-26.90033,-34.34371,1010.547
1.892386914,0.1976999,0.1220172,-0.2209152,0.01649202,0.0126936,1.005209,16.3445,-26.90033,-34.34371,1010.547
1.894863129,0.1364664,0.0009917939,-0.2820776,0.02038591,0.01124945,1.003732,16.3445,-26.90033,-34.34371,1010.547
1.897340775,0.0139995,0.0009917939,-0.1597527,0.02136513,0.01125917,1.005658,16.3445,-26.90033,-34.34371,1010.547
1.899817467,0.07523298,0.1825299,-0.09859026,0.01892533,0.01417399,1.0081,16.3445,-26.90033,-34.34371,1010.547
1.902293682,0.1976999,0.1825299,-0.1597527,0.01745325,0.0156237,1.006667,16.3445,-26.90033,-34.34371,1010.547
1.904771328,0.1364664,0.1220172,-0.3432401,0.01987668,0.01416379,1.001819,16.3445,-26.90033,-34.34371,1010.547
1.907248020,0.3201669,0.0615045,-0.2209152,0.01407566,0.0117142,1.008114,16.3445,-26.90033,-34.34371,1010.547
1.909725189,0.1976999,0.1220172,-0.1597527,0.02084716,0.01514502,1.002784,16.3445,-26.90033,-34.34371,1010.547
1.912201882,0.1364664,0.0615045,-0.1597527,0.01790408,0.01755634,0.9994342,16.3445,-26.90033,-34.34371,1010.547
1.914679051,0.07523298,0.2430426,-0.2209152,0.01648489,0.01073302,0.9998897,16.3445,-26.90033,-34.34371,1010.547
1.917155743,0.2589334,0.1825299,-0.2820776,0.01451832,0.01510761,1.000888,16.3445,-26.90033,-34.34371,1010.547
1.919632912,0.1364664,0.1825299,-0.3432401,0.01453573,0.01023134,0.997967,16.3445,-26.90033,-34.34371,1010.547
1.922109604,0.0139995,-0.05952091,-0.3432401,0.01307677,0.01169042,1.000396,16.3445,-26.90033,-34.34371,1010.546
1.924587250,0.1364664,0.1825299,-0.3432401,0.01938596,0.0131804,0.9989209,15.97467,-26.8971,-33.96231,1010.546
1.927063465,0.1976999,0.1220172,-0.1597527,0.01743796,0.01659052,1.003776,15.97467,-26.8971,-33.96231,1010.546
1.929541111,0.1364664,0.0615045,-0.1597527,0.01793955,0.01415959,1.004243,15.97467,-26.8971,-33.96231,1010.546
1.932017803,0.1976999,0.2430426,-0.09859026,0.01452326,0.01657776,1.004757,15.97467,-26.8971,-33.96231,1010.546
1.934494972,0.2589334,0.1825299,-0.2209152,0.01646477,0.01756285,1.005234,15.97467,-26.8971,-33.96231,1010.546
1.936971665,0.1976999,0.1825299,-0.2209152,0.0193734,0.01366029,0.9960275,15.97467,-26.8971,-33.96231,1010.546
1.939448357,0.2589334,0.1825299,-0.09859026,0.01746302,0.01123083,1.0023,15.97467,-26.8971,-33.96231,1010.546
1.941925526,0.1364664,0.1825299,-0.1597527,0.01598932,0.014146,1.002806,15.97467,-26.8971,-33.96231,1010.546
1.944402218,0.0139995,0.1220172,-0.2209152,0.01791828,0.01707762,1.00281,15.97467,-26.8971,-33.96231,1010.546
1.946879387,0.1976999,0.1825299,-0.09859026,0.01744613,0.01512975,1.003768,15.97467,-26.8971,-33.96231,1010.546
1.949356079,0.1976999,0.0009917939,-0.1597527,0.01600461,0.01317918,1.005697,15.97467,-26.8971,-33.96231,1010.546
1.951833248,0.1364664,-0.1200336,-0.2209152,0.01938108,0.01611015,1.002315,15.97467,-26.8971,-33.96231,1010.546
1.954309941,0.1364664,0.0615045,-0.1597527,0.01600678,0.01220299,1.004727,15.97467,-26.8971,-33.96231,1010.546
1.956787586,0.1364664,0.1825299,-0.1597527,0.01548555,0.01755313,1.003309,15.97467,-26.8971,-33.96231,1010.546
1.959264279,0.1976999,0.1825299,-0.2820776,0.0164762,0.01463779,1.003771,15.97467,-26.8971,-33.96231,1010.546
1.961741448,0.07523298,0.3035553,-0.2209152,0.01890293,0.01464686,1.00231,15.97467,-26.8971,-33.96231,1010.547
1.964218140,0.0139995,0.2430426,-0.2209152,0.0164762,0.01463779,1.003771,15.97467,-26.8971,-33.96231,1010.547
1.966695309,0.2589334,0.1825299,-0.3432401,0.02084333,0.01465341,1.000851,15.97467,-26.8971,-33.96231,1010.547
1.969172001,0.0139995,0.1220172,-0.2209152,0.01988764,0.01661599,1.009072,15.97467,-26.8971,-33.96231,1010.547
1.971648693,-0.04723396,0.1220172,-0.2820776,0.0150074,0.01608984,1.003304,15.97467,-26.8971,-33.96231,1010.547
1.974125862,0.1976999,0.1220172,-0.2820776,0.01355605,0.01559888,1.004757,16.70929,-26.52965,-34.35158,1010.547
1.976602555,0.07523298,0.3035553,-0.1597527,0.01748158,0.01026636,1.006157,16.70929,-26.52965,-34.35158,1010.547
1.979079723,0.07523298,0.1220172,-0.09859026,0.02083354,0.01757964,1.002797,16.70929,-26.52965,-34.35158,1010.547
1.981556416,0.07523298,0.0615045,-0.09859026,0.01355712,0.01364415,1.001851,16.70929,-26.52965,-34.35158,1010.547
1.984033585,0.2589334,0.2430426,-0.03742781,0.01894547,0.008810793,1.005176,16.70929,-26.52965,-34.35158,1010.547
1.986510277,0.1976999,0.2430426,-0.09859026,0.0135604,0.01364649,1.002817,16.70929,-26.52965,-34.35158,1010.547
1.988987923,0.1976999,0.1220172,-0.09859026,0.01547405,0.01607829,0.9975093,16.70929,-26.52965,-34.35158,1010.547
1.991464615,0.1976999,0.0615045,-0.09859026,0.01936529,0.01952096,1.003298,16.70929,-26.52965,-34.35158,1010.547
1.993941784,0.1364664,0.1220172,0.08489711,0.01938383,0.01708985,1.004733,16.70929,-26.52965,-34.35158,1010.547
1.996418476,0.1976999,0.0009917939,-0.09859026,0.01841551,0.01513244,1.002798,16.70929,-26.52965,-34.35158,1010.547
1.998895645,0.0139995,0.0009917939,-0.2209152,0.01501994,0.01414331,1.003777,16.70929,-26.52965,-34.35158,1010.547
2.001372337,0.07523298,0.1220172,-0.2209152,0.01841281,0.01708599,1.005221,16.70929,-26.52965,-34.35158,1010.546
2.003849506,0.1364664,0.1825299,-0.2209152,0.01937125,0.01610312,0.9994187,16.70929,-26.52965,-34.35158,1010.546
2.006326199,0.1364664,0.1825299,-0.2820776,0.01453139,0.01218372,0.9999079,16.70929,-26.52965,-34.35158,1010.546
2.008802891,0.2589334,0.2430426,-0.03742781,0.01648331,0.01513174,1.00667,16.70929,-26.52965,-34.35158,1010.546
2.011280060,0.07523298,0.1825299,-0.09859026,0.02035868,0.01758533,1.006178,16.70929,-26.52965,-34.35158,1010.546
2.013756752,0.0139995,0.2430426,-0.2209152,0.01742817,0.01951675,1.005722,16.70929,-26.52965,-34.35158,1010.546
2.016234398,0.1364664,0.1825299,-0.09859026,0.02182199,0.01417386,1.001809,16.70929,-26.52965,-34.35158,1010.546
2.018710613,0.1976999,0.0009917939,-0.1597527,0.01988106,0.01514467,1.00472,16.70929,-26.52965,-34.35158,1010.546
2.021188259,0.1364664,-0.05952091,-0.2820776,0.01891877,0.01416931,1.006169,16.70929,-26.52965,-34.35158,1010.546
2.023664951,0.07523298,0.1220172,-0.1597527,0.01406527,0.0112179,1.004249,16.70929,-26.52965,-34.35158,1010.546
2.026142120,0.0139995,0.1825299,-0.09859026,0.01940182,0.01416948,1.005201,16.70858,-26.53687,-34.7316,1010.546
2.028618813,0.1364664,0.1825299,-0.2820776,0.01841826,0.01611214,1.005216,16.70858,-26.53687,-34.7316,1010.546
2.031095982,0.07523298,-0.05952091,-0.3432401,0.02182693,0.01564401,1.005678,16.70858,-26.53687,-34.7316,1010.546
2.033572674,0.07523298,-0.05952091,-0.1597527,0.01888162,0.01463162,0.9960352,16.70858,-26.53687,-34.7316,1010.546
2.036049843,0.1364664,0.0009917939,-0.1597527,0.01791715,0.01463245,0.9984539,16.70858,-26.53687,-34.7316,1010.546
2.038526535,0.1976999,-0.05952091,-0.2209152,0.01796244,0.009776093,1.003738,16.70858,-26.53687,-34.7316,1010.546
2.041003227,0.1976999,0.1220172,-0.3432401,0.02330394,0.01419782,1.008558,16.70858,-26.53687,-34.7316,1010.546
2.043480396,0.07523298,0.3035553,-0.2209152,0.01987668,0.01416379,1.001819,16.70858,-26.53687,-34.7316,1010.546
2.045957088,0.07523298,0.2430426,-0.2209152,0.01597073,0.01364384,0.9965286,16.70858,-26.53687,-34.7316,1010.546
2.048434734,0.07523298,0.0009917939,-0.2209152,0.01699144,0.01123886,1.006647,16.70858,-26.53687,-34.7316,1010.546
2.050910950,0.1976999,0.0615045,-0.1597527,0.02085208,0.01514854,1.004233,16.70858,-26.53687,-34.7316,1010.546
2.053388596,0.2589334,0.1825299,-0.3432401,0.01549862,0.01462924,1.002329,16.70858,-26.53687,-34.7316,1010.546
2.055865288,0.1364664,0.0615045,-0.09859026,0.01744341,0.01561667,1.003771,16.70858,-26.53687,-34.7316,1010.546
2.058342457,0.07523298,0.1220172,-0.2209152,0.01599098,0.01561381,1.00571,16.70858,-26.53687,-34.7316,1010.546
2.060819149,-0.04723396,0.1220172,-0.2209152,0.01747288,0.0127045,1.007617,16.70858,-26.53687,-34.7316,1010.546
2.063296318,-0.1084674,0.1825299,-0.09859026,0.01842371,0.0151383,1.005211,16.70858,-26.53687,-34.7316,1010.546
2.065773010,0.1976999,0.1825299,-0.1597527,0.01601717,0.01269929,1.00859,16.70858,-26.53687,-34.7316,1010.546
2.068250179,0.1976999,0.0615045,-0.2209152,0.018916,0.01172297,1.001329,16.70858,-26.53687,-34.7316,1010.546
2.070726872,0.1976999,0.0615045,-0.1597527,0.01889147,0.01610529,1.001352,16.70858,-26.53687,-34.7316,1010.546
2.073204517,0.1364664,0.1220172,-0.1597527,0.01597627,0.01853653,1.006207,16.70858,-26.53687,-34.7316,1010.546
2.075680733,0.07523298,0.1220172,-0.1597527,0.02182306,0.01221913,0.9989026,16.3445,-26.90033,-34.34371,1010.546
2.078157425,0.0139995,0.0009917939,-0.1597527,0.02085476,0.01172835,0.9993882,16.3445,-26.90033,-34.34371,1010.546
2.080635071,0.1364664,0.1825299,-0.09859026,0.01890129,0.01464568,1.001827,16.3445,-26.90033,-34.34371,1010.546
2.083111763,0.1364664,0.1825299,-0.1597527,0.01451617,0.01755044,1.004279,16.3445,-26.90033,-34.34371,1010.543
2.085588932,0.07523298,0.0009917939,-0.03742781,0.012603,0.01120801,1.003292,16.3445,-26.90033,-34.34371,1010.543
2.088065624,0.0139995,0.1825299,-0.03742781,0.01695981,0.01512723,1.003771,16.3445,-26.90033,-34.34371,1010.543
2.090542793,0.1364664,0.1825299,-0.2820776,0.02083079,0.01659993,1.000379,16.3445,-26.90033,-34.34371,1010.543
2.093019485,0.1364664,0.1825299,-0.09859026,0.01937836,0.01659707,1.002317,16.3445,-26.90033,-34.34371,1010.543
2.095496655,0.1976999,0.2430426,-0.2820776,0.01596366,0.01608315,0.998472,16.3445,-26.90033,-34.34371,1010.543
2.097973347,0.07523298,0.0615045,-0.2820776,0.01698597,0.01074608,1.004231,16.3445,-26.90033,-34.34371,1010.543
2.100450516,0.07523298,-0.05952091,-0.2209152,0.01892967,0.01222161,1.006159,16.3445,-26.90033,-34.34371,1010.543
2.102927208,0.1364664,0.3035553,-0.1597527,0.01502486,0.01414683,1.005225,16.3445,-26.90033,-34.34371,1010.543
2.107881069,0.0139995,0.3035553,-0.3432401,0.01793029,0.01610846,1.004736,16.3445,-26.90033,-34.34371,1010.543
2.110358715,0.1976999,0.0615045,-0.2820776,0.01547246,0.01901039,1.001868,16.3445,-26.90033,-34.34371,1010.543
2.112835407,0.1364664,0.0615045,-0.09859026,0.01598004,0.01462824,1.000878,16.3445,-26.90033,-34.34371,1010.543
2.115312099,0.2589334,0.0009917939,-0.1597527,0.01792919,0.01512992,1.0028,16.3445,-26.90033,-34.34371,1010.543
2.117789269,0.1976999,0.1220172,-0.09859026,0.01844168,0.01075129,1.003258,16.3445,-26.90033,-34.34371,1010.543
2.120265961,0.2589334,0.3035553,-0.1597527,0.02131818,0.01464772,0.99747,16.3445,-26.90033,-34.34371,1010.543
2.122743130,0.3201669,0.1220172,-0.4044026,0.01597731,0.01511517,1.00088,16.3445,-26.90033,-34.34371,1010.544
2.125219822,0.1976999,0.1825299,-0.2209152,0.02085806,0.01319732,1.002774,16.3445,-26.90033,-34.34371,1010.544
2.127696991,-0.04723396,0.0615045,-0.2820776,0.01987725,0.01611969,1.005208,16.33875,-26.53364,-34.35019,1010.544
2.130173683,0.1976999,0.0615045,-0.1597527,0.01745921,0.01220585,1.002788,16.33875,-26.53364,-34.35019,1010.544
2.132650852,0.3201669,0.1825299,-0.2209152,0.01551114,0.01121608,1.00038,16.33875,-26.53364,-34.35019,1010.544
2.135127544,0.07523298,0.0615045,-0.1597527,0.01746849,0.01172362,1.004716,16.33875,-26.53364,-34.35019,1010.544
2.137605190,0.07523298,0.0615045,-0.03742781,0.01648763,0.01171273,1.002308,16.33875,-26.53364,-34.35019,1010.544
2.140081883,0.1364664,0.2430426,-0.2209152,0.01649477,0.01367331,1.007627,16.33875,-26.53364,-34.35019,1010.544
2.142559052,0.1364664,-0.05952091,-0.09859026,0.01647678,0.01659369,1.00716,16.33875,-26.53364,-34.35019,1010.544
2.145035744,0.1364664,-0.1200336,-0.1597527,0.0203712,0.01417217,1.00423,16.33875,-26.53364,-34.35019,1010.544
2.147512913,0.1364664,0.0009917939,-0.09859026,0.02036848,0.01465909,1.004233,16.33875,-26.53364,-34.35019,1010.544
2.149989605,0.1364664,0.0615045,-0.1597527,0.01598551,0.01512102,1.003294,16.33875,-26.53364,-34.35019,1010.544
2.152466297,0.1364664,0.3035553,-0.2820776,0.01595442,0.01949866,1.001386,16.33875,-26.53364,-34.35019,1010.544
2.154943466,0.1976999,0.3035553,-0.09859026,0.01453631,0.01218724,1.001356,16.33875,-26.53364,-34.35019,1010.544
2.157420158,0.1976999,0.0615045,-0.4044026,0.01308171,0.01316057,1.004265,16.33875,-26.53364,-34.35019,1010.544
2.159897327,0.1976999,0.1220172,-0.2209152,0.01893567,0.01173703,1.007122,16.33875,-26.53364,-34.35019,1010.544
2.162374020,0.1364664,0.0009917939,-0.2209152,0.01843678,0.0122144,1.004231,16.33875,-26.53364,-34.35019,1010.543
2.164851189,0.07523298,0.2430426,-0.3432401,0.01551227,0.01366125,1.004737,16.33875,-26.53364,-34.35019,1010.543
2.167327881,0.07523298,0.0009917939,-0.2820776,0.01747068,0.01221406,1.006167,16.33875,-26.53364,-34.35019,1010.543
2.169805527,0.1976999,0.1220172,-0.1597527,0.01937125,0.01610312,0.9994187,16.33875,-26.53364,-34.35019,1010.543
2.172282219,0.1976999,0.0615045,-0.1597527,0.01697994,0.009764029,1.000847,16.33875,-26.53364,-34.35019,1010.543
2.174759388,0.1364664,-0.05952091,-0.09859026,0.01307954,0.01413676,1.005235,16.33875,-26.53364,-34.35019,1010.543
2.177236080,0.07523298,0.1220172,-0.2209152,0.01893237,0.01026805,1.003735,16.70929,-26.52965,-34.35158,1010.543
2.179712772,0.1364664,0.1220172,-0.2820776,0.0164669,0.01365339,0.9994221,16.70929,-26.52965,-34.35158,1010.543
2.182189941,0.0139995,-0.05952091,-0.09859026,0.01889746,0.01415407,0.9998941,16.70929,-26.52965,-34.35158,1010.543
2.184666634,-0.04723396,0.0615045,-0.09859026,0.02085478,0.01319498,1.001809,16.70929,-26.52965,-34.35158,1010.543
2.187143803,0.3201669,0.4245807,-0.2209152,0.01597897,0.01658297,1.003784,16.70929,-26.52965,-34.35158,1010.543
2.189620495,0.1364664,0.364068,-0.09859026,0.02134546,0.01124511,0.9998657,16.70929,-26.52965,-34.35158,1010.543
2.192097664,0.07523298,-0.05952091,-0.09859026,0.01988215,0.01465658,1.004235,16.70929,-26.52965,-34.35158,1010.543
2.194574356,0.2589334,0.1220172,-0.1597527,0.01452324,0.01511113,1.002336,16.70929,-26.52965,-34.35158,1010.543
2.197052002,0.07523298,0.1825299,-0.2209152,0.01549971,0.01414114,1.001843,16.70929,-26.52965,-34.35158,1010.543
2.199528217,0.07523298,0.1825299,-0.2209152,0.01551936,0.01268857,1.005214,16.70929,-26.52965,-34.35158,1010.543
2.202005863,0.1364664,0.1825299,-0.09859026,0.01745978,0.01416176,1.006177,16.70929,-26.52965,-34.35158,1010.542
2.204482555,0.07523298,0.0615045,-0.09859026,0.01794939,0.01416662,1.007139,16.70929,-26.52965,-34.35158,1010.542
2.206959724,0.07523298,0.0615045,-0.1597527,0.01697128,0.01513543,1.00715,16.70929,-26.52965,-34.35158,1010.542
2.209436417,-0.04723396,0.0615045,-0.2209152,0.02137118,0.01370786,1.011462,16.70929,-26.52965,-34.35158,1010.542
2.211913586,0.1976999,0.1220172,-0.2820776,0.02134495,0.01368911,1.00374,16.70929,-26.52965,-34.35158,1010.542
2.214390278,0.1976999,0.1825299,-0.09859026,0.0223138,0.01466916,1.004222,16.70929,-26.52965,-34.35158,1010.542
2.216866970,0.2589334,0.364068,-0.09859026,0.01696145,0.0151284,1.004254,16.70929,-26.52965,-34.35158,1010.542
2.219344139,0.2589334,0.2430426,-0.1597527,0.01646311,0.01609505,1.002331,16.70929,-26.52965,-34.35158,1010.542
2.221820831,0.1976999,0.1825299,-0.2209152,0.01501885,0.01463141,1.004262,16.70929,-26.52965,-34.35158,1010.542
2.224298000,0.1976999,0.1825299,-0.2209152,0.01647676,0.01512706,1.004739,16.70929,-26.52965,-34.35158,1010.542
2.226774693,0.1364664,0.1220172,-0.1597527,0.01841332,0.014642,1.001347,16.70354,-26.16296,-34.35806,1010.542
2.229252338,0.1364664,0.1220172,-0.1597527,0.0164838,0.01122111,1.000375,16.70354,-26.16296,-34.35806,1010.542
2.231728554,0.0139995,0.1220172,-0.2209152,0.0169778,0.01220685,1.004239,16.70354,-26.16296,-34.35806,1010.542
2.234206200,0.0139995,0.0615045,-0.2820776,0.01792591,0.01512758,1.001835,16.70354,-26.16296,-34.35806,1010.542
2.236682892,0.0139995,0.1825299,-0.2820776,0.01940125,0.01221358,1.001812,16.70354,-26.16296,-34.35806,1010.542
2.239160061,-0.2309344,0.1220172,-0.03742781,0.01841332,0.014642,1.001347,16.70354,-26.16296,-34.35806,1010.542
2.241636753,0.1976999,0.1220172,-0.2209152,0.01648108,0.01170804,1.000377,16.70354,-26.16296,-34.35806,1010.541
2.244113922,0.1976999,0.1220172,-0.2820776,0.01601116,0.01318387,1.007628,16.70354,-26.16296,-34.35806,1010.541
2.246590614,0.1976999,0.3035553,-0.1597527,0.01550846,0.01463627,1.005224,16.70354,-26.16296,-34.35806,1010.541
2.249067783,0.1976999,0.1220172,-0.09859026,0.01746634,0.01416644,1.008108,16.70354,-26.16296,-34.35806,1010.541
2.251544476,0.1364664,0.1220172,-0.09859026,0.01402876,0.01803602,1.004767,16.70354,-26.16296,-34.35806,1010.541
2.254021168,0.1364664,0.0615045,-0.1597527,0.01795262,0.0112357,1.003263,16.70354,-26.16296,-34.35806,1010.541
2.256498337,0.1976999,0.2430426,-0.1597527,0.01648819,0.01220199,1.003276,16.70354,-26.16296,-34.35806,1010.541
2.258975029,0.1364664,0.0615045,-0.2209152,0.01549428,0.01658162,1.004269,16.70354,-26.16296,-34.35806,1010.541
2.261452675,0.1364664,0.2430426,-0.1597527,0.0174281,0.01511686,0.998459,16.70354,-26.16296,-34.35806,1010.541
2.263929367,0.1364664,0.2430426,-0.2820776,0.01647073,0.014145,1.001355,16.70354,-26.16296,-34.35806,1010.541
2.266406536,0.0139995,0.2430426,-0.1597527,0.01986854,0.01855783,1.006669,16.70354,-26.16296,-34.35806,1010.541
2.268883228,0.1364664,0.1825299,-0.03742781,0.01598604,0.01414366,1.001841,16.70354,-26.16296,-34.35806,1010.541
2.271360397,0.07523298,0.2430426,-0.1597527,0.01306266,0.01803567,1.006703,16.70354,-26.16296,-34.35806,1010.541
2.273837090,0.1364664,0.2430426,-0.2820776,0.01891168,0.01514198,1.005691,16.70354,-26.16296,-34.35806,1010.541
2.276314259,-0.04723396,0.1220172,-0.2209152,0.01744503,0.01415121,1.001833,16.70354,-26.16296,-34.35806,1010.541
2.278790951,0.0139995,0.1825299,-0.1597527,0.01742436,0.02049178,1.006209,16.70929,-26.52965,-34.35158,1010.541
2.281268120,0.07523298,0.1220172,-0.1597527,0.0193882,0.0166041,1.005213,16.70929,-26.52965,-34.35158,1010.542
2.283744812,0.1976999,0.0615045,-0.2209152,0.01983303,0.01902132,0.9970178,16.70929,-26.52965,-34.35158,1010.542
2.286222458,0.1364664,0.0009917939,-0.2820776,0.0179554,0.01368204,1.008102,16.70929,-26.52965,-34.35158,1010.542
2.288698673,0.07523298,0.0615045,-0.2820776,0.01554172,0.009282444,1.006162,16.70929,-26.52965,-34.35158,1010.542
2.291176319,0.0139995,0.0009917939,-0.09859026,0.0189324,0.01173468,1.006156,16.70929,-26.52965,-34.35158,1010.542
2.293653011,-0.04723396,0.0009917939,-0.1597527,0.0150183,0.01414214,1.003294,16.70929,-26.52965,-34.35158,1010.542
2.296129704,0.0139995,0.1825299,-0.2820776,0.01258282,0.01363794,1.001374,16.70929,-26.52965,-34.35158,1010.542
2.298606873,0.0139995,0.1220172,-0.1597527,0.01937455,0.01757209,1.002805,16.70929,-26.52965,-34.35158,1010.542
2.301083565,0.1976999,0.1220172,-0.1597527,0.01938711,0.0170922,1.005699,16.70929,-26.52965,-34.35158,1010.542
2.303560734,0.07523298,0.1825299,-0.2209152,0.01845916,0.01027491,1.007599,16.70929,-26.52965,-34.35158,1010.542
2.306037426,0.1364664,0.2430426,-0.2209152,0.01647731,0.01561632,1.005707,16.70929,-26.52965,-34.35158,1010.542
2.308514595,0.1364664,0.0615045,-0.09859026,0.02181326,0.01514537,1.000849,16.70929,-26.52965,-34.35158,1010.542
2.310991287,0.1976999,0.0615045,-0.09859026,0.02131931,0.01709289,1.001827,16.70929,-26.52965,-34.35158,1010.542
2.313468456,0.1976999,0.1825299,-0.09859026,0.01649038,0.01269243,1.004726,16.70929,-26.52965,-34.35158,1010.542
2.315945149,0.2589334,0.0009917939,-0.2209152,0.01504668,0.01171806,1.007625,16.70929,-26.52965,-34.35158,1010.542
2.318422794,0.3814003,0.1220172,-0.2820776,0.01791609,0.01658718,1.00136,16.70929,-26.52965,-34.35158,1010.542
2.320899487,0.2589334,0.0009917939,-0.2209152,0.01986358,0.01562105,1.000379,16.70929,-26.52965,-34.35158,1010.541
2.323376656,0.1976999,0.0615045,-0.2820776,0.01986249,0.01610915,1.000864,16.70929,-26.52965,-34.35158,1010.541
2.325853348,-0.04723396,0.2430426,-0.1597527,0.02185585,0.01224257,1.008556,16.70929,-26.52965,-34.35158,1010.541
2.328330040,-0.04723396,0.1220172,-0.09859026,0.01938928,0.01611601,1.004728,16.35096,-27.25981,-33.95722,1010.541
2.330807209,0.07523298,0.0615045,-0.2820776,0.01501832,0.01560877,1.005715,16.35096,-27.25981,-33.95722,1010.541
2.333283901,0.0139995,0.0009917939,-0.1597527,0.01501883,0.01316478,1.001841,16.35096,-27.25981,-33.95722,1010.541
2.335761070,-0.04723396,0.0009917939,-0.09859026,0.01646145,0.01462724,0.9994271,16.35096,-27.25981,-33.95722,1010.541
2.338237763,0.1976999,0.1220172,-0.1597527,0.01549151,0.01413528,0.9994299,16.35096,-27.25981,-33.95722,1010.541
2.340714932,0.1364664,0.2430426,-0.2209152,0.02037229,0.01368407,1.003745,16.35096,-27.25981,-33.95722,1010.541
2.343191624,0.1364664,0.1825299,-0.1597527,0.01791554,0.01609791,1.000392,16.35096,-27.25981,-33.95722,1010.541
2.345669270,0.1364664,0.1220172,-0.2209152,0.0154959,0.01511616,1.002331,16.35096,-27.25981,-33.95722,1010.541
2.348145485,0.1364664,0.1220172,-0.2209152,0.01649636,0.01074122,1.003268,16.35096,-27.25981,-33.95722,1010.541
2.350623131,0.1976999,-0.05952091,-0.3432401,0.01744339,0.01415004,1.00135,16.35096,-27.25981,-33.95722,1010.541
2.353099823,0.07523298,0.0009917939,-0.2209152,0.02423073,0.01710331,0.99988,16.35096,-27.25981,-33.95722,1010.541
2.355576992,0.07523298,0.0615045,-0.1597527,0.01598825,0.01610073,1.005712,16.35096,-27.25981,-33.95722,1010.541
2.358053684,0.07523298,0.1220172,0.02373465,0.01405331,0.01512033,1.007166,16.35096,-27.25981,-33.95722,1010.541
2.360530853,0.1976999,0.1220172,-0.1597527,0.01697893,0.01465202,1.008595,16.35096,-27.25981,-33.95722,1010.541
2.363007546,0.1976999,0.1220172,-0.1597527,0.01694616,0.01609522,1.001363,16.35096,-27.25981,-33.95722,1010.541
2.365484238,0.1976999,0.1825299,-0.1597527,0.01552643,0.01024926,1.003271,16.35096,-27.25981,-33.95722,1010.541
2.367961407,0.1364664,0.1220172,-0.2820776,0.01796191,0.01075346,1.005191,16.35096,-27.25981,-33.95722,1010.541
2.370438099,0.1364664,0.1825299,-0.1597527,0.01792482,0.01561567,1.00232,16.35096,-27.25981,-33.95722,1010.541
2.375391960,0.0139995,0.1220172,-0.2209152,0.01888822,0.01756958,1.002808,16.35096,-27.25981,-33.95722,1010.541
2.377869606,0.1364664,0.1220172,-0.2820776,0.02036956,0.014171,1.003747,15.96892,-26.5304,-33.96879,1010.541
2.380345821,0.07523298,0.0009917939,-0.1597527,0.01843406,0.01270133,1.004233,15.96892,-26.5304,-33.96879,1010.541
2.382823467,0.1976999,0.1825299,-0.1597527,0.01599585,0.01268406,1.002316,15.96892,-26.5304,-33.96879,1010.541
2.385300160,0.1364664,0.1825299,-0.1597527,0.02135913,0.01174375,1.004695,15.96892,-26.5304,-33.96879,1010.541
2.387777329,-0.04723396,0.0009917939,-0.09859026,0.01744997,0.01562136,1.005702,15.96892,-26.5304,-33.96879,1010.541
2.390254021,0.1976999,0.0009917939,-0.09859026,0.01744613,0.01512975,1.003768,15.96892,-26.5304,-33.96879,1010.541
2.392731190,0.1364664,0.0009917939,-0.1597527,0.02087171,0.01222933,1.005183,15.96892,-26.5304,-33.96879,1010.541
2.395207882,0.07523298,-0.05952091,-0.2820776,0.01647403,0.01561398,1.004742,15.96892,-26.5304,-33.96879,1010.541
2.397685051,0.1976999,0.1220172,-0.09859026,0.01598551,0.01512102,1.003294,15.96892,-26.5304,-33.96879,1010.541
2.400161743,0.07523298,0.0615045,-0.1597527,0.01405273,0.01316443,1.003777,15.96892,-26.5304,-33.96879,1010.541
2.402639389,0.07523298,0.0615045,-0.2209152,0.01647294,0.01610208,1.005227,15.96892,-26.5304,-33.96879,1010.536
2.405115604,0.1364664,0.0615045,-0.1597527,0.01891822,0.01368004,1.005201,15.96892,-26.5304,-33.96879,1010.536
2.407592297,0.2589334,0.1825299,-0.2209152,0.01941762,0.01075866,1.004218,15.96892,-26.5304,-33.96879,1010.536
2.410069943,0.07523298,0.0615045,-0.09859026,0.01890997,0.01074091,0.9979457,15.96892,-26.5304,-33.96879,1010.536
2.412546635,0.07523298,0.1825299,-0.09859026,0.0193958,0.01318743,1.001817,15.96892,-26.5304,-33.96879,1010.536
2.415023804,0.07523298,0.1825299,-0.2209152,0.01307517,0.01462251,1.004755,15.96892,-26.5304,-33.96879,1010.536
2.417500496,0.1364664,-0.05952091,-0.2820776,0.01846189,0.009787984,1.007597,15.96892,-26.5304,-33.96879,1010.536
2.419977665,0.2589334,0.1825299,-0.2820776,0.02083245,0.01806774,1.003282,15.96892,-26.5304,-33.96879,1010.536
2.422454357,0.2589334,0.0615045,-0.2209152,0.02034718,0.01611049,1.000379,15.96892,-26.5304,-33.96879,1010.536
2.424931526,0.1364664,0.0615045,-0.2209152,0.01889471,0.01317437,0.9974757,15.96892,-26.5304,-33.96879,1010.536
2.427408218,0.0139995,0.0615045,-0.2820776,0.01548881,0.01608884,1.001853,15.96892,-26.5304,-33.96879,1010.536
2.429885388,-0.04723396,0.0615045,-0.09859026,0.01599204,0.01365908,1.002803,16.70858,-26.53687,-34.7316,1010.536
2.432362080,0.1976999,0.0615045,-0.1597527,0.01550569,0.01218993,1.000385,16.70858,-26.53687,-34.7316,1010.536
2.434839726,0.3201669,0.2430426,-0.2209152,0.01841168,0.01464082,1.000865,16.70858,-26.53687,-34.7316,1010.536
2.437315941,0.07523298,0.0615045,-0.03742781,0.01548715,0.01462104,0.9989496,16.70858,-26.53687,-34.7316,1010.536
2.439793587,0.07523298,0.0009917939,-0.09859026,0.01695052,0.01560947,1.001843,16.70858,-26.53687,-34.7316,1010.536
2.442270279,0.07523298,0.1220172,-0.03742781,0.02474761,0.01370555,1.003239,16.70858,-26.53687,-34.7316,1010.537
2.444746971,0.0139995,0.1220172,-0.03742781,0.02085319,0.01612707,1.006168,16.70858,-26.53687,-34.7316,1010.537
2.447224140,0.1364664,0.1220172,-0.1597527,0.01939252,0.01318508,1.000852,16.70858,-26.53687,-34.7316,1010.537
2.449700832,0.0139995,0.2430426,-0.1597527,0.02087009,0.01369479,1.007121,16.70858,-26.53687,-34.7316,1010.537
2.452178002,-0.04723396,-0.1200336,-0.2209152,0.02086896,0.01124963,1.002764,16.70858,-26.53687,-34.7316,1010.537
2.454654694,0.1364664,0.0615045,-0.1597527,0.01405437,0.0131656,1.004259,16.70858,-26.53687,-34.7316,1010.537
2.457131863,0.0139995,0.4850934,-0.1597527,0.0115982,0.01753534,1.004295,16.70858,-26.53687,-34.7316,1010.537
2.459608555,0.07523298,0.3035553,-0.3432401,0.01988871,0.01466126,1.006166,16.70858,-26.53687,-34.7316,1010.537
2.462085724,0.0139995,-0.05952091,-0.3432401,0.01743196,0.0170751,1.002813,16.70858,-26.53687,-34.7316,1010.537
2.464562416,0.1364664,-0.05952091,-0.1597527,0.01842586,0.01269547,1.00182,16.70858,-26.53687,-34.7316,1010.537
2.467040062,-0.04723396,0.3035553,-0.09859026,0.01989467,0.01124342,1.002287,16.70858,-26.53687,-34.7316,1010.537
2.469516754,0.1976999,0.0615045,-0.2820776,0.01698761,0.01074725,1.004714,16.70858,-26.53687,-34.7316,1010.537
2.471993923,0.1976999,-0.1200336,-0.2209152,0.01988215,0.01465658,1.004235,16.70858,-26.53687,-34.7316,1010.537
2.474470615,0.07523298,0.0009917939,-0.09859026,0.01600246,0.01562201,1.009088,16.70858,-26.53687,-34.7316,1010.537
2.476947785,0.07523298,0.0615045,-0.09859026,0.0174565,0.01415941,1.005211,16.70858,-26.53687,-34.7316,1010.537
2.479424477,0.1364664,0.1220172,-0.2209152,0.01986522,0.01562222,1.000862,17.01807,-26.52633,-34.35274,1010.537
2.481901169,0.1976999,0.1220172,-0.2209152,0.01890237,0.01415759,1.001342,17.01807,-26.52633,-34.35274,1010.538
2.484378338,0.2589334,0.0009917939,-0.1597527,0.01600948,0.01024943,1.002303,17.01807,-26.52633,-34.35274,1010.538
2.486855030,0.07523298,0.2430426,-0.2820776,0.01794115,0.01122749,0.9998843,17.01807,-26.52633,-34.35274,1010.538
2.489332199,0.07523298,0.4245807,-0.2820776,0.01549867,0.0175625,1.00717,17.01807,-26.52633,-34.35274,1010.538
2.491808891,0.07523298,0.1825299,-0.09859026,0.01794286,0.01562856,1.00763,17.01807,-26.52633,-34.35274,1010.538
2.494286060,0.1976999,0.3035553,-0.09859026,0.01889254,0.01415056,0.998446,17.01807,-26.52633,-34.35274,1010.538
2.496762753,-0.1084674,0.0615045,-0.1597527,0.0183942,0.0151172,0.996523,17.01807,-26.52633,-34.35274,1010.538
2.499240399,0.0139995,0.1220172,-0.2209152,0.01744235,0.0175714,1.006677,17.01807,-26.52633,-34.35274,1010.538
2.501717091,0.2589334,0.0009917939,-0.3432401,0.01305499,0.01705245,1.002837,17.01807,-26.52633,-34.35274,1010.538
2.504194260,0.1364664,0.2430426,-0.09859026,0.01500959,0.01658028,1.004755,17.01807,-26.52633,-34.35274,1010.538
2.506670952,0.1364664,0.1220172,-0.3432401,0.01647844,0.01806149,1.010064,17.01807,-26.52633,-34.35274,1010.538
2.509148121,0.0139995,0.0009917939,-0.1597527,0.01795267,0.01416896,1.008105,17.01807,-26.52633,-34.35274,1010.538
2.511624813,-0.04723396,-0.05952091,-0.1597527,0.01451945,0.01755278,1.005245,17.01807,-26.52633,-34.35274,1010.538
2.514101982,0.1976999,0.0615045,-0.3432401,0.01649202,0.0126936,1.005209,17.01807,-26.52633,-34.35274,1010.538
2.516578674,0.1976999,-0.05952091,-0.2820776,0.02135257,0.01173907,1.002764,17.01807,-26.52633,-34.35274,1010.538
2.519055367,0.1364664,0.0615045,-0.1597527,0.0169789,0.01318539,1.006174,17.01807,-26.52633,-34.35274,1010.538
2.521532536,0.1976999,0.1825299,-0.2820776,0.01599368,0.01366025,1.003286,17.01807,-26.52633,-34.35274,1010.537
2.524009228,0.1976999,0.3035553,-0.2209152,0.01551719,0.01366476,1.006185,17.01807,-26.52633,-34.35274,1010.537
2.526486874,0.1976999,0.3035553,-0.1597527,0.01405984,0.01365839,1.006675,17.01807,-26.52633,-34.35274,1010.537
2.528963089,0.1976999,0.1220172,-0.3432401,0.01888873,0.01512558,0.9989336,15.96821,-26.53762,-34.3488,1010.537
2.531440735,0.07523298,0.0009917939,-0.2820776,0.01745212,0.01317853,1.00231,15.96821,-26.53762,-34.3488,1010.537
2.533917427,0.1364664,0.364068,-0.3432401,0.01450904,0.01558985,0.99896,15.96821,-26.53762,-34.3488,1010.537
2.536394596,0.07523298,0.2430426,-0.2209152,0.01647618,0.01317116,1.00135,15.96821,-26.53762,-34.3488,1010.537
2.538871288,0.07523298,0.0615045,-0.2820776,0.01842154,0.01611449,1.006181,15.96821,-26.53762,-34.3488,1010.537
2.541348457,0.1976999,0.1825299,-0.2820776,0.0159828,0.01707458,1.005717,15.96821,-26.53762,-34.3488,1010.537
2.543825150,0.1364664,0.1220172,-0.2209152,0.01644507,0.01608216,0.9970213,15.96821,-26.53762,-34.3488,1010.537
2.546302319,0.0139995,0.1825299,-0.2820776,0.0188991,0.01415525,1.000377,15.96821,-26.53762,-34.3488,1010.537
2.548779011,0.1976999,0.0615045,-0.1597527,0.0184466,0.0107548,1.004706,15.96821,-26.53762,-34.3488,1010.537
2.551256180,0.2589334,0.1220172,-0.2209152,0.0184526,0.01027022,1.005669,15.96821,-26.53762,-34.3488,1010.537
2.553732872,0.07523298,0.0615045,-0.2209152,0.01841334,0.01610863,1.003768,15.96821,-26.53762,-34.3488,1010.537
2.556210518,0.07523298,0.1220172,-0.03742781,0.01744939,0.01366546,1.002313,15.96821,-26.53762,-34.3488,1010.537
2.558687210,-0.04723396,0.1220172,-0.09859026,0.01599368,0.01366025,1.003286,15.96821,-26.53762,-34.3488,1010.537
2.561163426,0.0139995,0.0615045,-0.2209152,0.02326791,0.0171053,1.002781,15.96821,-26.53762,-34.3488,1010.536
2.563641071,0.07523298,0.0009917939,-0.1597527,0.02182363,0.01417503,1.002292,15.96821,-26.53762,-34.3488,1010.536
2.566117764,0.1364664,0.0615045,-0.2209152,0.01988593,0.01221492,1.001327,15.96821,-26.53762,-34.3488,1010.536
2.568594933,0.1364664,0.2430426,-0.2209152,0.01940399,0.01319329,1.00423,15.96821,-26.53762,-34.3488,1010.536
2.571071625,0.1976999,0.2430426,-0.1597527,0.01936693,0.01952213,1.00378,15.96821,-26.53762,-34.3488,1010.536
2.573548794,0.1364664,0.0009917939,-0.3432401,0.01743357,0.01560964,1.000875,15.96821,-26.53762,-34.3488,1010.536
2.576025486,0.1364664,0.0615045,-0.1597527,0.02228927,0.01905148,1.004245,15.96821,-26.53762,-34.3488,1010.536
2.578502655,0.1976999,0.1825299,-0.1597527,0.01643581,0.01803103,0.9975141,15.96821,-26.53762,-34.3488,1010.536
2.580979347,0.1976999,0.1220172,-0.2209152,0.01938928,0.01611601,1.004728,15.97467,-26.8971,-33.96231,1010.536
2.583456993,0.1364664,0.1220172,-0.03742781,0.01941489,0.01124559,1.00422,15.97467,-26.8971,-33.96231,1010.536
2.585933209,0.1976999,0.0009917939,-0.1597527,0.01551172,0.01317198,1.003769,15.97467,-26.8971,-33.96231,1010.536
2.588410854,0.1364664,-0.05952091,-0.3432401,0.01890187,0.01660158,1.005216,15.97467,-26.8971,-33.96231,1010.536
2.590887547,0.07523298,0.1220172,-0.09859026,0.01162111,0.01461848,1.006211,15.97467,-26.8971,-33.96231,1010.536
2.593364716,0.1364664,0.0009917939,-0.1597527,0.01502809,0.01121591,1.001348,15.97467,-26.8971,-33.96231,1010.536
2.595841408,0.1364664,0.1220172,-0.1597527,0.01502045,0.01169932,0.9999027,15.97467,-26.8971,-33.96231,1010.536
2.598318100,0.1976999,0.2430426,-0.2820776,0.01983356,0.01804396,0.9955648,15.97467,-26.8971,-33.96231,1010.536
2.600795269,0.2589334,0.1220172,-0.2820776,0.02330063,0.01272884,1.005172,15.97467,-26.8971,-33.96231,1010.532
2.603271961,0.0139995,0.1220172,-0.2820776,0.01743029,0.0156073,0.9999096,15.97467,-26.8971,-33.96231,1010.532
2.605749130,0.1976999,0.1825299,-0.2209152,0.01790572,0.01755751,0.999917,15.97467,-26.8971,-33.96231,1010.532
2.608225823,0.1364664,0.2430426,-0.2209152,0.01746526,0.01465454,1.008593,15.97467,-26.8971,-33.96231,1010.532
2.610702992,0.1976999,0.3035553,-0.09859026,0.01548281,0.01657342,1.000891,15.97467,-26.8971,-33.96231,1010.532
2.613179684,0.1364664,0.1220172,-0.09859026,0.01890351,0.01660276,1.005699,15.97467,-26.8971,-33.96231,1010.532
2.615657330,0.1364664,0.0009917939,-0.2209152,0.01599426,0.01561615,1.006675,15.97467,-26.8971,-33.96231,1010.532
2.618133545,0.2589334,0.0615045,-0.1597527,0.01696634,0.01366528,1.003281,15.97467,-26.8971,-33.96231,1010.532
2.620611191,0.1976999,0.1825299,-0.2209152,0.01648057,0.01415204,1.004251,15.97467,-26.8971,-33.96231,1010.532
2.623087883,0.1364664,0.1220172,-0.03742781,0.01406146,0.01219292,1.004737,15.97467,-26.8971,-33.96231,1010.532
2.625565052,0.1364664,0.0615045,-0.2209152,0.01844059,0.01123938,1.003743,15.97467,-26.8971,-33.96231,1010.532
2.628041744,0.1976999,0.1825299,-0.2209152,0.01696472,0.01513075,1.005219,15.97467,-26.8971,-33.96231,1010.532
2.630518913,0.07523298,0.3035553,-0.1597527,0.01743745,0.01903452,1.00765,16.71575,-26.88913,-33.96508,1010.532
2.632995606,0.1976999,0.0615045,-0.09859026,0.01938762,0.0146482,1.001825,16.71575,-26.88913,-33.96508,1010.532
2.635472775,0.1364664,0.1825299,-0.2820776,0.01791115,0.01511703,0.997491,16.71575,-26.88913,-33.96508,1010.532
2.637949467,0.1976999,0.1825299,-0.1597527,0.01794394,0.01514047,1.007144,16.71575,-26.88913,-33.96508,1010.532
2.640426159,0.0139995,0.2430426,-0.1597527,0.01844445,0.01319763,1.008097,16.71575,-26.88913,-33.96508,1010.532
2.642903328,0.1364664,0.1825299,-0.09859026,0.0174281,0.01511686,0.998459,16.71575,-26.88913,-33.96508,1010.533
2.647857666,-0.1084674,0.1825299,-0.09859026,0.01842316,0.01464903,1.004243,16.71575,-26.88913,-33.96508,1010.533
2.650334358,0.07523298,0.1220172,-0.2209152,0.01502324,0.01561229,1.007163,16.71575,-26.88913,-33.96508,1010.533
2.652811527,0.1976999,0.0615045,-0.2209152,0.01744503,0.01415121,1.001833,16.71575,-26.88913,-33.96508,1010.533
2.655288220,0.1364664,-0.1200336,-0.1597527,0.01744068,0.0161036,1.003773,16.71575,-26.88913,-33.96508,1010.533
2.657765389,0.1976999,0.3035553,-0.2209152,0.01843133,0.01318825,1.004236,16.71575,-26.88913,-33.96508,1010.533
2.660242081,0.07523298,0.1825299,-0.2209152,0.01696902,0.01024509,0.9984365,16.71575,-26.88913,-33.96508,1010.533
2.662719250,-0.04723396,0.1220172,-0.2209152,0.01937455,0.01757209,1.002805,16.71575,-26.88913,-33.96508,1010.533
2.665195942,0.1364664,0.0615045,-0.03742781,0.0223067,0.01564184,1.003744,16.71575,-26.88913,-33.96508,1010.533
2.667673111,0.3201669,0.1220172,-0.09859026,0.01889201,0.01512792,0.9998991,16.71575,-26.88913,-33.96508,1010.533
2.670149803,0.3201669,0.0615045,-0.09859026,0.01792374,0.01610377,1.002805,16.71575,-26.88913,-33.96508,1010.533
