Time (s),Gyroscope X (deg/s),Gyroscope Y (deg/s),Gyroscope Z (deg/s),Accelerometer X (g),Accelerometer Y (g),Accelerometer Z (g),Magnetometer X (uT),Magnetometer Y (uT),Magnetometer Z (uT),Barometer (hPa)
0.000000000,3.19814,-0.7856733,0.2683845,0.04586168,0.06934444,1.011132,22.98642,11.32011,-28.26556,1006.11
0.002476692,3.38184,-1.209262,0.6353592,0.04387062,0.07956798,1.014574,22.98642,11.32011,-28.26556,1006.11
0.004953861,3.320607,-1.088237,0.8800091,0.04488096,0.07813334,1.023249,22.98642,11.32011,-28.26556,1006.112
0.007430553,3.19814,-1.209262,1.246984,0.04683392,0.07765999,1.024684,22.98642,11.32011,-28.26556,1006.112
0.009908199,3.259373,-1.3908,1.491634,0.04289851,0.08005223,1.015547,22.98796,11.33575,-27.44219,1006.112
0.012384892,3.443074,-1.693364,1.491634,0.03994241,0.0883207,1.018019,22.98796,11.33575,-27.44219,1006.112
0.014862061,3.626774,-1.995928,1.491634,0.03604905,0.08878749,1.018042,22.98796,11.33575,-27.44219,1006.112
0.017338753,3.871708,-2.237978,1.613959,0.03314582,0.08878294,1.022403,22.98796,11.33575,-27.44219,1006.112
0.019815922,4.177875,-2.480029,1.675121,0.03314421,0.0902484,1.024341,22.98796,11.33575,-27.44219,1006.112
0.022292614,4.177875,-2.782593,1.552796,0.03116074,0.09705527,1.024387,22.98796,11.33575,-27.44219,1006.112
0.024769783,3.994175,-2.843105,1.430471,0.02970443,0.09362753,1.01955,22.98796,11.33575,-27.44219,1006.112
0.027246475,3.871708,-2.903618,1.430471,0.03992936,0.09271122,1.02142,22.98796,11.33575,-27.44219,1006.112
0.029723167,3.749241,-2.903618,1.552796,0.03408467,0.09365252,1.020492,22.98796,11.33575,-27.44219,1006.112
0.032200336,3.688008,-3.024643,1.736283,0.03546723,0.09849416,1.006029,22.98796,11.33575,-27.44219,1006.112
0.037154198,6.19858,-3.932334,0.6965217,0.0288081,0.08145524,1.021906,22.98796,11.33575,-27.44219,1006.112
0.037154198,6.19858,-3.932334,0.6965217,0.0288081,0.08145524,1.021906,22.98796,11.33575,-27.44219,1006.112
0.039630890,6.443513,-3.508745,0.8188466,0.03217859,0.08633742,1.019982,22.98796,11.33575,-27.44219,1006.112
0.042108536,6.014879,-3.448232,1.736283,0.02578645,0.09261011,1.009913,22.98796,11.33575,-27.44219,1006.112
0.044585228,5.708712,-3.569258,2.286746,0.02675581,0.09114617,1.006521,22.98796,11.33575,-27.44219,1006.109
0.049539089,5.463778,-4.05336,2.714883,0.03018951,0.08385172,1.003086,22.98796,11.33575,-27.44219,1006.109
0.049539089,5.463778,-4.05336,2.714883,0.03018951,0.08385172,1.003086,22.98796,11.33575,-27.44219,1006.109
0.052016258,5.402544,-4.476948,2.959532,0.03310645,0.08728819,1.008397,22.98796,11.33575,-27.44219,1006.109
0.054492950,5.647479,-4.779512,3.265345,0.03409329,0.08534785,1.009347,22.98796,11.33575,-27.44219,1006.109
0.056970119,5.769945,-4.96105,3.448832,0.03115688,0.09509702,1.020033,22.98796,11.33575,-27.44219,1006.109
0.061923504,5.892412,-4.29541,3.999295,0.03946439,0.0956572,1.032539,22.98796,11.33575,-27.44219,1006.109
0.061923504,5.892412,-4.29541,3.999295,0.03946439,0.0956572,1.032539,22.98796,11.33575,-27.44219,1006.109
0.064400673,5.218844,-3.629771,3.815807,0.03847701,0.09857489,1.033043,22.98796,11.33575,-27.44219,1006.109
0.066877365,4.667743,-2.964131,3.693482,0.03749567,0.1024746,1.036929,22.98796,11.33575,-27.44219,1006.109
0.069355011,3.626774,-2.419516,3.38767,0.04185354,0.1044391,1.034502,22.98796,11.33575,-27.44219,1006.109
0.071831226,2.953206,-1.995928,3.204182,0.03900041,0.09224856,1.03349,22.98796,11.33575,-27.44219,1006.109
0.074308872,2.340871,-1.693364,3.204182,0.04142712,0.09079099,1.029608,22.98796,11.33575,-27.44219,1006.109
0.076785564,1.60607,-1.330288,3.326507,0.04482207,0.08689096,1.020398,22.98796,11.33575,-27.44219,1006.109
0.079262733,1.299902,-1.209262,3.509995,0.04432479,0.08590287,1.015569,22.98796,11.33575,-27.44219,1006.109
0.084216595,1.177435,-1.027724,3.938132,0.04525044,0.08489656,1.000113,22.98796,11.33575,-27.44219,1006.111
0.084216595,1.177435,-1.027724,3.938132,0.04525044,0.08489656,1.000113,22.98796,11.33575,-27.44219,1006.111
0.086693287,0.7488011,-0.4831098,3.938132,0.04667506,0.0892794,0.9972317,22.98796,11.33575,-27.44219,1006.111
0.089170456,0.1976999,-0.05952091,4.182782,0.04420462,0.08972795,0.9866287,22.98796,11.33575,-27.44219,1006.111
0.091647148,-0.4758682,0.364068,4.305107,0.04414345,0.0921286,0.9726437,22.98796,11.33575,-27.44219,1006.111
0.096601009,-0.2921678,1.271759,3.938132,0.02025685,0.08120974,0.9384482,22.98796,11.33575,-27.44219,1006.111
0.096601009,-0.2921678,1.271759,3.938132,0.02025685,0.08120974,0.9384482,22.98796,11.33575,-27.44219,1006.111
0.099077702,1.544836,2.179449,3.509995,0.03104057,0.06617045,0.9383119,22.98796,11.33575,-27.44219,1006.111
0.101555347,2.034704,2.179449,3.754644,0.05196246,0.05895254,0.9289894,22.98796,11.33575,-27.44219,1006.111
0.104031563,1.544836,1.029708,4.366269,0.03190716,0.06365531,0.9030588,22.98796,11.33575,-27.44219,1006.111
0.108985901,2.463338,0.0615045,4.855569,0.02806062,0.05193376,0.8967448,22.98725,11.32853,-27.82221,1006.111
0.108985901,2.463338,0.0615045,4.855569,0.02806062,0.05193376,0.8967448,22.98725,11.32853,-27.82221,1006.111
0.111463070,2.157171,-0.846186,5.283706,0.02993871,0.05189579,0.8769445,22.98725,11.32853,-27.82221,1006.111
0.113939762,2.279638,-1.632851,5.711843,0.03049755,0.04070606,0.87978,22.98725,11.32853,-27.82221,1006.111
0.116416931,2.830739,-2.601054,6.445793,0.02912477,0.03147156,0.8898764,22.98725,11.32853,-27.82221,1006.111
0.121370792,4.361576,-3.085156,7.913692,0.01992708,0.02705431,0.8952134,22.98725,11.32853,-27.82221,1006.111
0.121370792,4.361576,-3.085156,7.913692,0.01992708,0.02705431,0.8952134,22.98725,11.32853,-27.82221,1006.111
0.123847485,5.341311,-3.266694,8.341829,0.0165627,0.02902071,0.9102049,22.98725,11.32853,-27.82221,1006.112
0.126324177,6.259813,-3.266694,9.014616,0.0175327,0.03391257,0.917465,22.98725,11.32853,-27.82221,1006.112
0.131278038,7.300782,-2.419516,9.993216,0.01519123,0.03396443,0.9440254,22.98725,11.32853,-27.82221,1006.112
0.131278038,7.300782,-2.419516,9.993216,0.01519123,0.03396443,0.9440254,22.98725,11.32853,-27.82221,1006.112
0.133755684,7.545716,-1.269775,10.36019,0.01134274,0.03788539,0.962891,22.98725,11.32853,-27.82221,1006.112
0.136232376,7.484482,-0.05952091,10.36019,0.009418759,0.03935719,0.9715973,22.98725,11.32853,-27.82221,1006.112
0.138709545,7.362016,1.150733,10.48252,0.006033066,0.04130837,0.980314,22.98725,11.32853,-27.82221,1006.112
0.143663406,6.56598,3.813292,10.11554,0.006129802,0.0413775,1.008792,22.98725,11.32853,-27.82221,1006.112
0.143663406,6.56598,3.813292,10.11554,0.006129802,0.0413775,1.008792,22.98725,11.32853,-27.82221,1006.112
0.146140099,6.137346,4.963033,9.993216,0.0017654,0.04087495,1.011709,22.98725,11.32853,-27.82221,1006.112
0.148617268,5.647479,6.2338,9.932053,0.002809001,0.03408648,1.021322,22.98725,11.32853,-27.82221,1006.112
0.151093960,5.402544,7.686105,9.870891,0.003850455,0.02974083,1.034327,22.98725,11.32853,-27.82221,1006.112
0.156047821,4.97391,9.925075,10.05438,-0.00442576,0.03800271,1.045516,22.98725,11.32853,-27.82221,1006.112
0.156047821,4.97391,9.925075,10.05438,-0.00442576,0.03800271,1.045516,22.98725,11.32853,-27.82221,1006.112
0.158524513,4.422809,11.13533,9.748566,-0.003938254,0.04338366,1.054712,22.98725,11.32853,-27.82221,1006.112
0.161001682,3.994175,11.86148,9.320428,-0.008345125,0.05311707,1.062026,22.993,10.96183,-27.81573,1006.112
0.163478375,3.688008,12.58763,8.647641,-0.007843001,0.04970878,1.061041,22.993,10.96183,-27.81573,1006.111
0.168432713,3.136906,13.43481,7.11858,-0.01122814,0.05214922,1.070725,22.993,10.96183,-27.81573,1006.111
0.168432713,3.136906,13.43481,7.11858,-0.01122814,0.05214922,1.070725,22.993,10.96183,-27.81573,1006.111
0.170909882,2.953206,13.25327,6.323468,-0.01366743,0.05262005,1.069293,22.993,10.96183,-27.81573,1006.111
0.173386574,2.647039,12.64815,5.89533,-0.002914746,0.04489165,1.07209,22.993,10.96183,-27.81573,1006.111
0.178340435,2.095937,10.40918,5.711843,0.007820504,0.0405729,1.075388,22.993,10.96183,-27.81573,1006.111
0.178340435,2.095937,10.40918,5.711843,0.007820504,0.0405729,1.075388,22.993,10.96183,-27.81573,1006.111
0.180817604,1.60607,9.017385,5.650681,0.007299812,0.04494568,1.072517,22.993,10.96183,-27.81573,1006.111
0.183294296,1.116202,7.746618,5.711843,0.01161414,0.05910086,1.077393,22.993,10.96183,-27.81573,1006.111
0.185771465,0.5038673,6.415338,5.650681,0.02084517,0.06256419,1.080257,22.993,10.96183,-27.81573,1006.111
0.190724850,-0.4146348,3.873805,5.039056,0.02377025,0.06307324,1.083139,22.993,10.96183,-27.81573,1006.111
0.190724850,-0.4146348,3.873805,5.039056,0.02377025,0.06307324,1.083139,22.993,10.96183,-27.81573,1006.111
0.193202496,-0.2921678,2.905602,4.733244,0.02377621,0.05965539,1.07926,22.993,10.96183,-27.81573,1006.111
0.195678711,-0.4146348,1.937398,4.794406,0.02762595,0.06551277,1.076856,22.993,10.96183,-27.81573,1006.111
0.198156357,-0.4758682,1.150733,4.733244,0.02662054,0.06841756,1.072049,22.993,10.96183,-27.81573,1006.111
0.203110218,-1.02697,-0.4831098,5.100219,0.03394923,0.05919086,1.066653,22.993,10.96183,-27.81573,1006.114
0.203110218,-1.02697,-0.4831098,5.100219,0.03394923,0.05919086,1.066653,22.993,10.96183,-27.81573,1006.114
0.205586910,-1.333137,-1.088237,5.283706,0.03490382,0.05771637,1.058917,22.993,10.96183,-27.81573,1006.114
0.208064079,-1.700538,-1.753877,5.589519,0.04022227,0.05625516,1.047296,22.993,10.96183,-27.81573,1006.114
0.210540772,-1.945472,-2.601054,6.017655,0.03294752,0.05378747,1.049254,22.99946,10.60236,-27.42923,1006.114
0.217971802,-2.129172,-3.750796,7.057417,0.02706727,0.052259,1.033833,22.99946,10.60236,-27.42923,1006.114
0.217971802,-2.129172,-3.750796,7.057417,0.02706727,0.052259,1.033833,22.99946,10.60236,-27.42923,1006.114
0.222925186,-2.006705,-4.537461,7.546717,0.01538551,0.05072493,1.028579,22.99946,10.60236,-27.42923,1006.114
0.222925186,-2.006705,-4.537461,7.546717,0.01538551,0.05072493,1.028579,22.99946,10.60236,-27.42923,1006.114
0.227879047,-2.190405,-5.324126,7.913692,0.006609155,0.04968585,1.020416,22.99946,10.60236,-27.42923,1006.114
0.230356693,-2.190405,-5.747715,7.974854,0.005675157,0.04041988,1.016512,22.99946,10.60236,-27.42923,1006.114
0.232833386,-2.190405,-6.050279,8.036016,0.007143936,0.0375012,1.014559,22.99946,10.60236,-27.42923,1006.114
0.235310555,-2.006705,-6.473867,8.158341,0.005216145,0.03994802,1.023753,22.99946,10.60236,-27.42923,1006.114
0.237787247,-1.945472,-6.594893,8.219504,-0.002558012,0.0404017,1.026694,22.99946,10.60236,-27.42923,1006.114
0.240264416,-1.823005,-6.473867,8.097179,-0.001096321,0.03845569,1.024262,22.99946,10.60236,-27.42923,1006.114
0.242741108,-2.067938,-6.171304,8.341829,-0.00300783,0.03358107,1.026178,22.99946,10.60236,-27.42923,1006.112
0.245218277,-2.61904,-5.868741,8.341829,-0.00834436,0.03209613,1.027648,22.99946,10.60236,-27.42923,1006.112
0.247694969,-2.80274,-5.566177,8.097179,-0.0112367,0.02867724,1.029577,22.99946,10.60236,-27.42923,1006.112
0.250171661,-2.98644,-5.263614,8.036016,-0.009736791,0.02431419,1.034373,22.99946,10.60236,-27.42923,1006.112
0.255125523,-3.415075,-3.811309,7.913692,-0.01365034,0.02721091,1.032479,22.99946,10.60236,-27.42923,1006.112
0.255125523,-3.415075,-3.811309,7.913692,-0.01365034,0.02721091,1.032479,22.99946,10.60236,-27.42923,1006.112
0.257603169,-3.476308,-2.964131,7.791367,-0.01169904,0.02526977,1.03101,22.99946,10.60236,-27.42923,1006.112
0.260079861,-3.476308,-1.874902,7.60788,-0.01415366,0.02377415,1.021845,23.36354,10.96582,-27.81712,1006.112
0.262557030,-3.476308,-0.7856733,7.11858,-0.02192235,0.02472061,1.027202,23.36354,10.96582,-27.81712,1006.112
0.265033722,-3.353841,-0.05952091,6.812768,-0.02195068,0.03007796,1.027712,23.36354,10.96582,-27.81712,1006.112
0.267510891,-3.292608,0.5456061,6.690443,-0.02343482,0.02956356,1.019512,23.36354,10.96582,-27.81712,1006.112
0.269987583,-3.537542,1.09022,6.506955,-0.0273413,0.03002098,1.015674,23.36354,10.96582,-27.81712,1006.112
0.272464752,-3.782475,1.029708,6.13998,-0.02247475,0.02858186,1.014192,23.36354,10.96582,-27.81712,1006.112
0.274941444,-4.088643,1.392784,5.711843,-0.02005238,0.02907668,1.012251,23.36354,10.96582,-27.81712,1006.112
0.277418613,-4.272344,1.513809,5.467194,-0.02106705,0.03393034,1.007937,23.36354,10.96582,-27.81712,1006.112
0.279895306,-4.21111,1.392784,4.916731,-0.01812134,0.02516557,1.001601,23.36354,10.96582,-27.81712,1006.112
0.282371998,-4.149877,1.271759,4.733244,-0.01275266,0.02031815,0.9991335,23.36354,10.96582,-27.81712,1006.112
0.284849167,-4.21111,1.029708,4.672081,-0.01422197,0.0242142,1.00254,23.36354,10.96582,-27.81712,1006.113
0.289803505,-4.884678,-0.1200336,4.733244,-0.01234106,0.02955583,0.9924213,23.36354,10.96582,-27.81712,1006.113
0.289803505,-4.884678,-0.1200336,4.733244,-0.01234106,0.02955583,0.9924213,23.36354,10.96582,-27.81712,1006.113
0.292280197,-5.313313,-0.4831098,4.610919,-0.0069843,0.0315441,0.9977117,23.36354,10.96582,-27.81712,1006.113
0.294757366,-5.313313,-0.9672114,4.610919,-0.009955739,0.03784613,0.9924508,23.36354,10.96582,-27.81712,1006.113
0.297234058,-5.190845,-1.330288,4.549757,-0.01040928,0.03786705,1.002107,23.36354,10.96582,-27.81712,1006.113
0.302187920,-5.007145,-1.088237,4.243944,-0.00559561,0.04470096,0.998737,23.36354,10.96582,-27.81712,1006.113
0.302187920,-5.007145,-1.088237,4.243944,-0.00559561,0.04470096,0.998737,23.36354,10.96582,-27.81712,1006.113
0.304665089,-4.762211,-0.9066988,3.938132,0.003711712,0.03453039,1.00153,23.36354,10.96582,-27.81712,1006.113
0.307141781,-4.517277,-0.6646479,3.815807,0.002241292,0.03744791,1.003001,23.36354,10.96582,-27.81712,1006.113
0.309618950,-4.39481,-0.4831098,3.754644,0.001717852,0.04084097,0.9977118,23.36354,10.96582,-27.81712,1006.113
0.312095642,-4.456044,-0.3620844,3.876969,0.005578489,0.04475064,0.9952973,22.99863,10.59394,-27.87259,1006.113
0.314572334,-4.639744,-0.4225971,3.754644,0.002639266,0.04912021,0.9963012,22.99863,10.59394,-27.87259,1006.113
0.317049980,-4.639744,-0.4225971,3.754644,-0.0007857776,0.05104325,0.9934337,22.99863,10.59394,-27.87259,1006.113
0.319526196,-4.823445,-0.4831098,3.448832,0.0001868354,0.04811503,0.9885865,22.99863,10.59394,-27.87259,1006.113
0.324480534,-4.823445,-0.9672114,3.14302,-0.0008197234,0.04710802,0.9770026,22.99863,10.59394,-27.87259,1006.112
0.324480534,-4.823445,-0.9672114,3.14302,-0.0008197234,0.04710802,0.9770026,22.99863,10.59394,-27.87259,1006.112
0.326957703,-4.578511,-0.9672114,2.959532,0.0006545072,0.04321549,0.9750439,22.99863,10.59394,-27.87259,1006.112
0.329434395,-4.088643,-1.027724,3.081857,0.0006654074,0.04126779,0.9750338,22.99863,10.59394,-27.87259,1006.112
0.331911564,-3.292608,-0.846186,3.081857,0.000180186,0.04224381,0.9769722,22.99863,10.59394,-27.87259,1006.112
0.336865425,-2.251639,-0.3015717,3.14302,0.004530408,0.0446917,0.9730996,22.99863,10.59394,-27.87259,1006.112
0.336865425,-2.251639,-0.3015717,3.14302,0.004530408,0.0446917,0.9730996,22.99863,10.59394,-27.87259,1006.112
0.339342117,-1.761771,0.0009917939,2.837208,0.003584514,0.04372805,0.9793745,22.99863,10.59394,-27.87259,1006.112
0.341819763,-1.455604,0.364068,2.776045,0.0006616649,0.04664271,0.9827842,22.99863,10.59394,-27.87259,1006.112
0.344295979,-0.965736,0.8481696,2.347908,-0.001261875,0.04127061,0.9803538,22.99863,10.59394,-27.87259,1006.112
0.349250317,-0.2309344,1.513809,2.164421,-0.005666203,0.03878404,0.9682983,22.99863,10.59394,-27.87259,1006.112
0.349250317,-0.2309344,1.513809,2.164421,-0.005666203,0.03878404,0.9682983,22.99863,10.59394,-27.87259,1006.112
0.351726532,-0.04723396,1.574322,2.225583,-0.004625882,0.03199323,0.9769458,22.99863,10.59394,-27.87259,1006.112
0.354204178,0.3201669,1.513809,2.103258,-0.005125904,0.03002543,0.9696984,22.99863,10.59394,-27.87259,1006.112
0.359158039,1.054968,1.695347,2.470233,-0.01188706,0.02415765,0.9740493,22.99863,10.59394,-27.87259,1006.112
0.359158039,1.054968,1.695347,2.470233,-0.01188706,0.02415765,0.9740493,22.99863,10.59394,-27.87259,1006.112
0.361634731,1.483603,1.695347,2.65372,-0.01969172,0.03094487,0.9784709,23.73971,10.6019,-27.87536,1006.112
0.364111900,1.728537,1.937398,2.776045,-0.02406756,0.03336738,0.9828514,23.73971,10.6019,-27.87536,1006.114
0.366588593,1.973471,1.997911,2.959532,-0.02602863,0.0397014,0.9886868,23.73971,10.6019,-27.87536,1006.114
0.371542454,1.667303,2.360987,2.40907,-0.02259481,0.03974011,0.9973565,23.73971,10.6019,-27.87536,1006.114
0.371542454,1.667303,2.360987,2.40907,-0.02259481,0.03974011,0.9973565,23.73971,10.6019,-27.87536,1006.114
0.374020100,1.299902,2.603038,1.980933,-0.02543799,0.03488974,1.011345,23.73971,10.6019,-27.87536,1006.114
0.376496315,1.177435,3.08714,1.797446,-0.02150922,0.0266263,1.008868,23.73971,10.6019,-27.87536,1006.114
0.378973961,1.299902,3.450216,1.491634,-0.0219917,0.02858203,1.013224,23.73971,10.6019,-27.87536,1006.114
0.383927345,0.7488011,4.236881,1.491634,-0.02007631,0.03688153,1.018083,23.73971,10.6019,-27.87536,1006.114
0.383927345,0.7488011,4.236881,1.491634,-0.02007631,0.03688153,1.018083,23.73971,10.6019,-27.87536,1006.114
0.386404514,0.7488011,4.66047,1.430471,-0.01522172,0.03934484,1.019517,23.73971,10.6019,-27.87536,1006.114
0.388881207,0.5038673,4.781495,1.063496,-0.01863859,0.03980711,1.016642,23.73971,10.6019,-27.87536,1006.114
0.391358376,0.3201669,4.781495,0.6965217,-0.01865824,0.04125968,1.013271,23.73971,10.6019,-27.87536,1006.114
0.396312237,-0.1697009,3.934317,-0.03742781,-0.02345336,0.03199467,1.018077,23.73971,10.6019,-27.87536,1006.114
0.396312237,-0.1697009,3.934317,-0.03742781,-0.02345336,0.03199467,1.018077,23.73971,10.6019,-27.87536,1006.114
0.398788929,-0.04723396,3.268678,-0.2209152,-0.02441399,0.03248711,1.022429,23.73971,10.6019,-27.87536,1006.114
0.401266098,-0.1697009,2.663551,-0.2820776,-0.02201236,0.0349226,1.017601,23.73971,10.6019,-27.87536,1006.114
0.403742790,-0.7208021,2.118936,-0.5267274,-0.02348283,0.03490684,1.01423,23.73971,10.6019,-27.87536,1006.117
0.408697128,-1.39437,0.1220172,-0.9548646,-0.02058876,0.04419342,1.022468,23.73971,10.6019,-27.87536,1006.117
0.408697128,-1.39437,0.1220172,-0.9548646,-0.02058876,0.04419342,1.022468,23.73971,10.6019,-27.87536,1006.117
0.411174297,-1.761771,-0.4831098,-1.199515,-0.01572874,0.04421625,1.021476,23.73971,10.6019,-27.87536,1006.117
0.413650990,-1.945472,-0.9672114,-1.566489,-0.008929414,0.04473372,1.019511,23.36917,10.59792,-27.87398,1006.117
0.418604851,-2.006705,-1.632851,-1.994627,-0.004533905,0.04232527,1.020922,23.36917,10.59792,-27.87398,1006.117
0.418604851,-2.006705,-1.632851,-1.994627,-0.004533905,0.04232527,1.020922,23.36917,10.59792,-27.87398,1006.117
0.421081543,-2.006705,-1.814389,-2.239276,-0.006006518,0.04475234,1.020943,23.36917,10.59792,-27.87398,1006.117
0.423558712,-1.823005,-2.177466,-2.422764,-0.004574295,0.04571851,1.014665,23.36917,10.59792,-27.87398,1006.117
0.426035404,-1.761771,-2.903618,-2.361601,0.007597011,0.04285754,1.013618,23.36917,10.59792,-27.87398,1006.117
0.430989266,-2.067938,-4.234898,-1.994627,0.0119374,0.04529841,1.00685,23.36917,10.59792,-27.87398,1006.117
0.430989266,-2.067938,-4.234898,-1.994627,0.0119374,0.04529841,1.00685,23.36917,10.59792,-27.87398,1006.117
0.433466435,-2.374106,-5.203101,-1.566489,0.0172739,0.04531672,1.002959,23.36917,10.59792,-27.87398,1006.117
0.435943127,-2.374106,-5.687202,-1.260677,0.02116239,0.04777968,1.006329,23.36917,10.59792,-27.87398,1006.117
0.438420773,-2.374106,-6.050279,-0.7713773,0.02654197,0.04098457,1.003851,23.36917,10.59792,-27.87398,1006.117
0.443374634,-2.61904,-6.413355,-0.03742781,0.02363498,0.0448883,1.013541,23.36917,10.59792,-27.87398,1006.114
0.443374634,-2.61904,-6.413355,-0.03742781,0.02363498,0.0448883,1.013541,23.36917,10.59792,-27.87398,1006.114
0.445851326,-2.61904,-6.231817,0.3295469,0.02602083,0.05220123,1.012117,23.36917,10.59792,-27.87398,1006.114
0.448328018,-2.61904,-6.110791,0.5130343,0.02409459,0.0487827,1.01211,23.36917,10.59792,-27.87398,1006.114
0.453281880,-2.190405,-5.203101,0.8800091,0.0251054,0.04197079,1.01207,23.36917,10.59792,-27.87398,1006.114
0.453281880,-2.190405,-5.203101,0.8800091,0.0251054,0.04197079,1.01207,23.36917,10.59792,-27.87398,1006.114
0.455759049,-2.006705,-4.476948,1.063496,0.01928037,0.04145952,1.014513,23.36917,10.59792,-27.87398,1006.114
0.458235741,-2.190405,-3.811309,1.185821,0.01923234,0.04533616,1.00681,23.36917,10.59792,-27.87398,1006.114
0.460712910,-2.129172,-3.024643,1.185821,0.01438433,0.04434418,1.009727,23.36917,10.59792,-27.87398,1006.114
0.465667248,-2.557806,-2.05644,1.185821,0.00708334,0.04185774,1.003962,23.36917,10.59792,-27.87398,1006.114
0.465667248,-2.557806,-2.05644,1.185821,0.00708334,0.04185774,1.003962,23.36917,10.59792,-27.87398,1006.114
0.468143463,-2.863973,-1.632851,0.7576842,-0.003155234,0.04374204,0.999684,23.36917,10.59792,-27.87398,1006.114
0.470621109,-3.047674,-1.209262,0.5741968,-0.006587413,0.04370449,0.9914971,23.36917,10.59792,-27.87398,1006.114
0.473097801,-3.047674,-1.088237,0.5741968,-0.009978693,0.03782973,0.9856933,23.36917,10.59792,-27.87398,1006.114
0.478051663,-2.80274,-0.4225971,-0.09859026,-0.01143392,0.03391389,0.9803717,23.36917,10.59792,-27.87398,1006.114
0.478051663,-2.80274,-0.4225971,-0.09859026,-0.01143392,0.03391389,0.9803717,23.36917,10.59792,-27.87398,1006.114
0.483005524,-2.129172,-0.241059,-0.5878899,-0.003634701,0.02810052,0.975955,23.36917,10.59792,-27.87398,1006.115
0.483005524,-2.129172,-0.241059,-0.5878899,-0.003634701,0.02810052,0.975955,23.36917,10.59792,-27.87398,1006.115
0.485482216,-1.884238,-0.1805463,-0.5267274,-0.001717188,0.03249056,0.9750018,23.36917,10.59792,-27.87398,1006.115
0.490436077,-1.516837,0.0615045,-0.5878899,-0.0002588001,0.02907558,0.9691842,23.36917,10.59792,-27.87398,1006.115
0.490436077,-1.516837,0.0615045,-0.5878899,-0.0002588001,0.02907558,0.9691842,23.36917,10.59792,-27.87398,1006.115
0.492913246,-1.149436,0.1220172,-0.5267274,-0.003208414,0.03294885,0.966324,23.36917,10.59792,-27.87398,1006.115
0.495390892,-0.7820356,-0.1200336,-0.5267274,-0.001270163,0.03539822,0.9682568,23.36917,10.59792,-27.87398,1006.115
0.500343800,0.1364664,-0.05952091,-0.7102148,-0.003694076,0.04076876,0.9793992,23.36917,10.59792,-27.87398,1006.115
0.502821446,0.1976999,-0.1200336,-0.7102148,0.002639683,0.04080968,0.9827434,23.36917,10.59792,-27.87398,1006.115
0.505298138,0.3814003,-0.1805463,-0.7713773,0.006045029,0.03740594,0.977398,23.36917,10.59792,-27.87398,1006.115
0.507775307,0.5651007,-0.4225971,-0.6490523,0.009005544,0.03158497,0.9802478,23.36917,10.59792,-27.87398,1006.115
0.510251999,0.4426338,-0.6041352,-0.4044026,0.009487023,0.03598388,0.9860601,23.36917,10.59792,-27.87398,1006.115
0.512729168,0.3201669,-0.7251607,-0.465565,0.007050548,0.04183431,0.994309,23.00521,10.23566,-27.42275,1006.115
0.515205860,0.2589334,-0.6646479,-0.2209152,0.004591142,0.04913496,0.9982213,23.00521,10.23566,-27.42275,1006.115
0.517682552,0.1364664,-0.6041352,-0.09859026,0.008496047,0.05307627,1.008839,23.00521,10.23566,-27.42275,1006.115
0.520159721,0.1364664,-0.1200336,-0.3432401,0.005622317,0.05162618,1.019466,23.00521,10.23566,-27.42275,1006.115
0.522636414,0.07523298,0.5456061,-0.6490523,0.0114288,0.05456855,1.015588,23.00521,10.23566,-27.42275,1006.115
0.525113583,-0.1697009,1.332271,-0.8937021,0.01245333,0.05118855,1.025219,23.00521,10.23566,-27.42275,1006.112
0.527590275,-0.4758682,2.058424,-0.7102148,0.01539588,0.04975459,1.030022,23.00521,10.23566,-27.42275,1006.112
0.530067921,-0.6595686,2.360987,-0.6490523,0.01201887,0.047801,1.034857,23.00521,10.23566,-27.42275,1006.112
0.532544613,-1.02697,2.905602,-0.4044026,0.01740456,0.04785446,1.045447,23.00521,10.23566,-27.42275,1006.112
0.535021782,-1.578071,3.32919,-0.1597527,0.01931607,0.05272909,1.043531,23.00521,10.23566,-27.42275,1006.112
0.537498474,-2.006705,4.115856,-0.1597527,0.01930953,0.05419103,1.044021,23.00521,10.23566,-27.42275,1006.112
0.539975643,-2.557806,4.599957,0.1460596,0.01785336,0.05956309,1.05371,23.00521,10.23566,-27.42275,1006.112
0.542452335,-2.925207,4.842008,0.3295469,0.01393869,0.06001464,1.047459,23.00521,10.23566,-27.42275,1006.112
0.544929505,-3.047674,4.781495,0.5741968,0.01538615,0.05708073,1.039231,23.00521,10.23566,-27.42275,1006.112
0.547406197,-3.170141,4.418419,0.8188466,0.01443481,0.05709093,1.045511,23.00521,10.23566,-27.42275,1006.112
0.549883366,-3.231374,4.055343,0.7576842,0.01146393,0.06388222,1.041218,23.00521,10.23566,-27.42275,1006.112
0.552360058,-3.598775,3.692266,0.8188466,0.01094102,0.06629793,1.034475,23.00521,10.23566,-27.42275,1006.112
0.554836750,-3.721242,3.450216,0.9411715,0.01144259,0.06240036,1.032522,23.00521,10.23566,-27.42275,1006.112
0.557313919,-3.966176,2.966114,0.8188466,0.01141855,0.06287204,1.02625,23.00521,10.23566,-27.42275,1006.112
0.559790611,-4.088643,2.4215,0.6965217,0.01483154,0.05898489,1.02235,23.00521,10.23566,-27.42275,1006.112
0.562268257,-3.843709,2.058424,0.7576842,0.01141795,0.05944951,1.02044,23.00521,10.23566,-27.42275,1006.112
0.564744949,-3.843709,1.574322,0.9411715,0.009477504,0.0565097,1.017057,22.99863,10.59394,-27.87259,1006.111
0.567222119,-3.966176,1.211246,1.063496,0.007496184,0.06087375,1.013711,22.99863,10.59394,-27.87259,1006.111
0.569698811,-3.782475,0.4245807,0.9411715,0.00115097,0.06229126,1.009409,22.99863,10.59394,-27.87259,1006.111
0.572175980,-3.966176,0.0009917939,0.9411715,-0.0008080185,0.06178254,1.004591,22.99863,10.59394,-27.87259,1006.111
0.574652672,-4.21111,-0.6041352,0.8188466,-0.004204726,0.05834825,1.001213,22.99863,10.59394,-27.87259,1006.111
0.577129841,-4.456044,-1.3908,0.5130343,-0.0071418,0.06027499,0.9988254,22.99863,10.59394,-27.87259,1006.111
0.579606533,-4.639744,-1.935415,0.1460596,-0.00910192,0.05732111,0.9896501,22.99863,10.59394,-27.87259,1006.111
0.582083702,-4.333577,-2.419516,0.207222,-0.005673042,0.05588968,0.9944508,22.99863,10.59394,-27.87259,1006.111
0.584560394,-3.598775,-2.782593,0.02373465,-0.001732317,0.04372381,0.9890572,22.99863,10.59394,-27.87259,1006.111
0.587038040,-2.925207,-2.480029,0.1460596,0.003157142,0.03936783,0.9894908,22.99863,10.59394,-27.87259,1006.111
0.589514732,-2.374106,-2.177466,0.3907094,-0.001691881,0.04326383,1.000156,22.99863,10.59394,-27.87259,1006.111
0.591990948,-1.761771,-1.693364,0.3907094,-0.0002939301,0.05447182,1.000689,22.99863,10.59394,-27.87259,1006.111
0.594468594,-1.578071,-1.027724,0.3907094,-0.0002808361,0.05301456,1.002129,22.99863,10.59394,-27.87259,1006.111
0.599422455,-1.333137,0.1220172,-0.4044026,-0.002770309,0.05980486,0.9963857,22.99863,10.59394,-27.87259,1006.111
0.601899147,-0.965736,0.7876569,-0.8937021,-0.00465944,0.05299074,1.00167,22.99863,10.59394,-27.87259,1006.111
0.604376316,-0.8432691,1.453297,-1.199515,-0.006141914,0.05394415,0.9963741,22.99863,10.59394,-27.87259,1006.109
0.606853008,-0.5371017,1.937398,-1.505327,-0.002321136,0.06026969,0.9862494,22.99863,10.59394,-27.87259,1006.109
0.609330177,-0.3534013,2.300474,-1.505327,-0.003768692,0.05733708,0.9847942,22.99863,10.59394,-27.87259,1006.109
0.614284039,-0.2309344,2.058424,-1.749977,-0.001328893,0.05442226,0.9823525,23.36917,10.59792,-27.87398,1006.109
0.614284039,-0.2309344,2.058424,-1.749977,-0.001328893,0.05442226,0.9823525,23.36917,10.59792,-27.87398,1006.109
0.616760731,-0.2921678,1.695347,-1.994627,-0.004225623,0.0500225,0.9813804,23.36917,10.59792,-27.87398,1006.109
0.619238377,-0.2921678,1.332271,-1.811139,-0.003761671,0.05196451,0.9780091,23.36917,10.59792,-27.87398,1006.109
0.624192238,0.0139995,0.1220172,-1.872301,-0.007599886,0.0490486,0.9886339,23.36917,10.59792,-27.87398,1006.109
0.624192238,0.0139995,0.1220172,-1.872301,-0.007599886,0.0490486,0.9886339,23.36917,10.59792,-27.87398,1006.109
0.626668930,0.07523298,-0.6041352,-2.116951,-0.00611688,0.04711783,0.9924774,23.36917,10.59792,-27.87398,1006.109
0.631622791,0.2589334,-1.14875,-2.300439,-0.005621198,0.05103801,1.001666,23.36917,10.59792,-27.87398,1006.109
0.631622791,0.2589334,-1.14875,-2.300439,-0.005621198,0.05103801,1.001666,23.36917,10.59792,-27.87398,1006.109
0.641530514,0.6875677,-1.209262,-3.58485,-0.006083374,0.05789696,1.020045,23.36917,10.59792,-27.87398,1006.109
0.641530514,0.6875677,-1.209262,-3.58485,-0.006083374,0.05789696,1.020045,23.36917,10.59792,-27.87398,1006.109
0.644007206,0.4426338,-1.088237,-3.707175,-0.005112377,0.05643419,1.017136,23.36917,10.59792,-27.87398,1006.108
0.646484852,0.07523298,-0.846186,-4.012987,0.002664505,0.05549358,1.014193,23.36917,10.59792,-27.87398,1006.108
0.648961067,-0.2921678,-0.5436226,-4.196475,0.004097882,0.06037155,1.014693,23.36917,10.59792,-27.87398,1006.108
0.653915405,-1.271903,-0.6646479,-4.196475,0.009486233,0.05553819,1.018017,23.36917,10.59792,-27.87398,1006.108
0.653915405,-1.271903,-0.6646479,-4.196475,0.009486233,0.05553819,1.018017,23.36917,10.59792,-27.87398,1006.108
0.656392574,-1.516837,-0.1200336,-4.563449,0.00751579,0.05648791,1.012241,23.36917,10.59792,-27.87398,1006.108
0.658869267,-1.639304,-0.1805463,-4.624612,0.004603218,0.0525657,1.00741,23.36917,10.59792,-27.87398,1006.108
0.663823128,-1.884238,0.0009917939,-4.869262,0.006492812,0.05400255,0.993409,22.99863,10.59394,-27.87259,1006.108
0.663823128,-1.884238,0.0009917939,-4.869262,0.006492812,0.05400255,0.993409,22.99863,10.59394,-27.87259,1006.108
0.666299820,-1.578071,-0.241059,-4.808099,0.004061675,0.05154597,0.9895484,22.99863,10.59394,-27.87259,1006.108
0.668776989,-1.21067,-0.4831098,-4.930424,0.003560057,0.05251028,0.9866599,22.99863,10.59394,-27.87259,1006.108
0.671253681,-0.8432691,-0.846186,-4.991587,-0.0008425182,0.05735804,0.9871917,22.99863,10.59394,-27.87259,1006.108
0.676207543,-0.7208021,-1.14875,-4.808099,0.009804352,0.06324245,0.9813715,22.99863,10.59394,-27.87259,1006.108
0.676207543,-0.7208021,-1.14875,-4.808099,0.009804352,0.06324245,0.9813715,22.99863,10.59394,-27.87259,1006.108
0.678685188,-0.5983351,-1.088237,-4.808099,0.02049214,0.06475624,0.9803553,22.99863,10.59394,-27.87259,1006.108
0.681161404,-0.4146348,-1.209262,-4.991587,0.0239013,0.06037748,0.9745221,22.99863,10.59394,-27.87259,1006.108
0.683639050,-0.2921678,-1.572338,-5.052749,0.0268329,0.05795796,0.9744936,22.99863,10.59394,-27.87259,1006.109
0.688592911,0.1364664,-1.814389,-4.502287,0.03122839,0.05408287,0.9734843,22.99863,10.59394,-27.87259,1006.109
0.688592911,0.1364664,-1.814389,-4.502287,0.03122839,0.05408287,0.9734843,22.99863,10.59394,-27.87259,1006.109
0.691069603,0.07523298,-2.05644,-4.135312,0.03217047,0.05602154,0.9676969,22.99863,10.59394,-27.87259,1006.109
0.693546772,0.1976999,-2.298491,-3.58485,0.03217271,0.05944525,0.9739894,22.99863,10.59394,-27.87259,1006.109
0.696023464,0.1364664,-2.782593,-3.034388,0.03069733,0.05942598,0.9691706,22.99863,10.59394,-27.87259,1006.109
0.700977326,0.07523298,-3.266694,-2.422764,0.02783995,0.05505434,0.9797827,22.99863,10.59394,-27.87259,1006.109
0.700977326,0.07523298,-3.266694,-2.422764,0.02783995,0.05505434,0.9797827,22.99863,10.59394,-27.87259,1006.109
0.703454018,0.6875677,-3.266694,-2.239276,0.02640281,0.05408466,0.9846123,22.99863,10.59394,-27.87259,1006.109
0.705931187,1.238669,-3.206182,-1.933464,0.02105759,0.05650448,0.9899635,22.99863,10.59394,-27.87259,1006.109
0.708407879,1.851004,-2.782593,-1.811139,0.01813915,0.06186664,0.9986953,22.99863,10.59394,-27.87259,1006.109
0.713362217,2.708272,-2.177466,-2.055789,0.02443749,0.06823758,1.002072,22.99863,10.59394,-27.87259,1006.109
0.713362217,2.708272,-2.177466,-2.055789,0.02443749,0.06823758,1.002072,22.99863,10.59394,-27.87259,1006.109
0.715839386,2.524572,-2.05644,-2.116951,0.02302487,0.06288557,1.006879,23.36917,10.59792,-27.87398,1006.109
0.718316078,2.524572,-2.177466,-2.239276,0.02206034,0.05848651,1.002035,23.36917,10.59792,-27.87398,1006.109
0.723269940,2.953206,-1.572338,-2.300439,0.01430519,0.05113182,0.9976957,23.36917,10.59792,-27.87398,1006.107
0.723269940,2.953206,-1.572338,-2.300439,0.01430519,0.05113182,0.9976957,23.36917,10.59792,-27.87398,1006.107
0.725747109,3.259373,-1.451313,-2.667413,0.006532094,0.04963078,0.9977306,23.36917,10.59792,-27.87398,1006.107
0.728223801,3.443074,-1.3908,-2.667413,0.01187405,0.04867525,0.993835,23.36917,10.59792,-27.87398,1006.107
0.730700970,3.320607,-1.572338,-2.973226,0.008490482,0.04671696,0.9967394,23.36917,10.59792,-27.87398,1006.107
0.735654354,3.443074,-2.05644,-3.095551,0.008477367,0.04670759,0.9928781,23.36917,10.59792,-27.87398,1006.107
0.735654354,3.443074,-2.05644,-3.095551,0.008477367,0.04670759,0.9928781,23.36917,10.59792,-27.87398,1006.107
0.738132000,3.320607,-2.298491,-3.156713,0.00411405,0.04571694,0.9953103,23.36917,10.59792,-27.87398,1006.107
0.740608216,3.075673,-2.480029,-3.279038,0.006038584,0.04473441,0.9875718,23.36917,10.59792,-27.87398,1006.107
0.743085861,2.830739,-2.359004,-3.462525,0.006999258,0.04717524,0.9880618,23.36917,10.59792,-27.87398,1006.107
0.748039723,2.524572,-2.05644,-3.768338,0.01042275,0.05111755,1.00013,23.36917,10.59792,-27.87398,1006.107
0.748039723,2.524572,-2.05644,-3.768338,0.01042275,0.05111755,1.00013,23.36917,10.59792,-27.87398,1006.107
0.752993584,2.218405,-1.632851,-3.646013,0.00992767,0.05061991,0.9967517,23.36917,10.59792,-27.87398,1006.107
0.752993584,2.218405,-1.632851,-3.646013,0.00992767,0.05061991,0.9967517,23.36917,10.59792,-27.87398,1006.107
0.757947445,2.402105,-1.330288,-3.217876,0.004112919,0.04327177,0.9909536,23.36917,10.59792,-27.87398,1006.107
0.757947445,2.402105,-1.330288,-3.217876,0.004112919,0.04327177,0.9909536,23.36917,10.59792,-27.87398,1006.107
0.760424137,2.402105,-1.14875,-3.095551,0.005573084,0.04865776,1.000144,23.36917,10.59792,-27.87398,1006.107
0.765377999,2.279638,-0.4831098,-2.973226,-0.0003042533,0.05837542,1.004088,23.36846,10.5907,-28.25399,1006.107
0.767855644,2.157171,0.2430426,-2.973226,0.0006924225,0.05644213,1.007934,23.36846,10.5907,-28.25399,1006.107
0.770332337,1.912237,0.9086823,-3.095551,-0.002701492,0.05692081,1.011816,23.36846,10.5907,-28.25399,1006.107
0.772808552,1.851004,1.513809,-3.58485,-0.002717888,0.05690909,1.006989,23.36846,10.5907,-28.25399,1006.107
0.775286198,1.728537,1.75586,-3.8295,-0.002689551,0.05155175,1.006479,23.36846,10.5907,-28.25399,1006.107
0.777762890,1.667303,2.179449,-3.8295,-0.01047408,0.05297577,1.007977,23.36846,10.5907,-28.25399,1006.107
0.780240059,1.544836,2.360987,-3.951825,-0.009481881,0.04419507,0.9992383,23.36846,10.5907,-28.25399,1006.107
0.782716751,1.483603,2.360987,-4.012987,-0.005561824,0.03836977,0.9982216,23.36846,10.5907,-28.25399,1006.107
0.785193920,1.483603,2.603038,-3.890663,-0.005591245,0.04421521,0.999217,23.36846,10.5907,-28.25399,1006.107
0.787670613,1.483603,2.542525,-3.646013,-0.003618677,0.03935603,0.9991813,23.36846,10.5907,-28.25399,1006.107
0.790147782,1.544836,2.542525,-3.8295,-0.009955647,0.04371266,1.002135,23.36846,10.5907,-28.25399,1006.107
0.792624474,1.544836,2.360987,-3.890663,-0.009487839,0.04761291,1.003117,23.36846,10.5907,-28.25399,1006.107
0.797578335,1.116202,1.574322,-4.257637,-0.01194124,0.05442899,1.007993,23.36846,10.5907,-28.25399,1006.107
0.797578335,1.116202,1.574322,-4.257637,-0.01194124,0.05442899,1.007993,23.36846,10.5907,-28.25399,1006.107
0.800055981,1.054968,1.211246,-4.318799,-0.009537421,0.05735492,1.004616,23.36846,10.5907,-28.25399,1006.107
0.802532673,0.7488011,0.9691951,-4.563449,-0.002730473,0.05592235,1.001675,23.36846,10.5907,-28.25399,1006.107
0.805009842,0.7488011,0.9691951,-4.624612,-0.0022141,0.0549686,1.008907,23.36846,10.5907,-28.25399,1006.106
0.807486534,1.238669,1.09022,-4.808099,-0.005635286,0.05884989,1.010394,23.36846,10.5907,-28.25399,1006.106
0.809963227,1.544836,1.150733,-4.930424,-0.004664777,0.06129775,1.01378,23.36846,10.5907,-28.25399,1006.106
0.812440396,1.973471,1.09022,-5.236237,-0.001776244,0.06569166,1.012339,23.36846,10.5907,-28.25399,1006.106
0.814917088,2.463338,0.6666315,-5.175074,0.0001466502,0.06470795,1.004118,23.36846,10.5907,-28.25399,1006.106
0.817394257,2.524572,0.3035553,-5.419724,0.004019296,0.06764847,1.003629,22.99289,10.96063,-27.87907,1006.106
0.822348118,2.585805,-0.4225971,-5.480886,0.01378295,0.06136996,1.004026,22.99289,10.96063,-27.87907,1006.106
0.822348118,2.585805,-0.4225971,-5.480886,0.01378295,0.06136996,1.004026,22.99289,10.96063,-27.87907,1006.106
0.824824810,2.524572,-0.9066988,-5.358562,0.01428886,0.05552,1.000132,22.99289,10.96063,-27.87907,1006.106
0.827302456,2.647039,-1.511826,-4.991587,0.01581115,0.04921746,1.008297,22.99289,10.96063,-27.87907,1006.106
0.829778671,2.585805,-2.298491,-4.624612,0.01917673,0.05409612,1.004924,22.99289,10.96063,-27.87907,1006.106
0.832256317,2.524572,-2.843105,-4.379962,0.01577736,0.05554865,1.008812,22.99289,10.96063,-27.87907,1006.106
0.834733010,2.708272,-3.327207,-4.196475,0.01477581,0.06041168,1.00836,22.99289,10.96063,-27.87907,1006.106
0.837210179,2.769506,-4.113872,-4.318799,0.01139666,0.06090091,1.016586,22.99289,10.96063,-27.87907,1006.106
0.839686871,2.830739,-4.234898,-4.196475,0.007518052,0.06137825,1.020954,22.99289,10.96063,-27.87907,1006.106
0.844640732,2.585805,-4.779512,-4.012987,0.003135615,0.06086281,1.018562,22.99289,10.96063,-27.87907,1006.104
0.844640732,2.585805,-4.779512,-4.012987,0.003135615,0.06086281,1.018562,22.99289,10.96063,-27.87907,1006.104
0.847117901,2.585805,-4.840024,-4.012987,0.002637854,0.06378535,1.020028,22.99289,10.96063,-27.87907,1006.104
0.849594593,2.157171,-4.96105,-3.8295,0.002647183,0.06623639,1.026798,22.99289,10.96063,-27.87907,1006.104
0.852071285,1.851004,-5.021563,-4.07415,0.003663465,0.05991726,1.029173,22.99289,10.96063,-27.87907,1006.104
0.857025147,1.299902,-4.355923,-4.257637,0.008079735,0.05703477,1.035892,22.99289,10.96063,-27.87907,1006.104
0.857025147,1.299902,-4.355923,-4.257637,0.008079735,0.05703477,1.035892,22.99289,10.96063,-27.87907,1006.104
0.859502793,1.177435,-3.871821,-4.318799,0.01342007,0.05754469,1.033934,22.99289,10.96063,-27.87907,1006.104
0.861979485,0.9325016,-3.145669,-4.318799,0.01194088,0.05850045,1.029603,22.99289,10.96063,-27.87907,1006.104
0.864456654,0.993735,-2.661567,-4.502287,0.0128868,0.06093073,1.025749,22.99289,10.96063,-27.87907,1006.104
0.866933346,0.8100346,-2.237978,-4.563449,0.009517962,0.05751636,1.030577,23.36917,10.59792,-27.87398,1006.104
0.869410515,0.5651007,-1.814389,-4.746937,0.009495607,0.06092248,1.029629,23.36917,10.59792,-27.87398,1006.104
0.871887207,0.3814003,-1.269775,-4.991587,0.01137867,0.06382129,1.016119,23.36917,10.59792,-27.87398,1006.104
0.874364376,-0.04723396,-0.6041352,-4.869262,0.007963414,0.0628181,1.011305,23.36917,10.59792,-27.87398,1006.104
0.876841068,-0.1084674,-0.3015717,-5.175074,0.01087428,0.06233925,1.008391,23.36917,10.59792,-27.87398,1006.104
0.879318238,-0.1084674,0.0009917939,-4.991587,0.009902705,0.06184612,1.007911,23.36917,10.59792,-27.87398,1006.104
0.881794930,0.0139995,0.4245807,-5.175074,0.01081317,0.06913979,1.001669,23.36917,10.59792,-27.87398,1006.104
0.884271622,-0.1084674,0.6666315,-5.052749,0.009347073,0.06863829,0.9987782,23.36917,10.59792,-27.87398,1006.103
0.886748791,0.07523298,0.7876569,-5.113912,0.006426371,0.0691101,0.9987966,23.36917,10.59792,-27.87398,1006.103
0.891703129,0.5038673,0.6061188,-5.175074,0.01470751,0.06085174,0.9890552,23.36917,10.59792,-27.87398,1006.103
0.891703129,0.5038673,0.6061188,-5.175074,0.01470751,0.06085174,0.9890552,23.36917,10.59792,-27.87398,1006.103
0.894179821,0.6263342,0.6666315,-4.991587,0.02149649,0.06380618,0.9880679,23.36917,10.59792,-27.87398,1006.103
0.896656990,0.9325016,0.7271442,-4.563449,0.0229391,0.06526865,0.9856541,23.36917,10.59792,-27.87398,1006.103
0.899133682,1.116202,0.4850934,-4.196475,0.02536096,0.06820747,0.9875866,23.36917,10.59792,-27.87398,1006.103
0.904087544,1.483603,0.0615045,-3.523688,0.02391455,0.06918665,0.9929091,23.36917,10.59792,-27.87398,1006.103
0.904087544,1.483603,0.0615045,-3.523688,0.02391455,0.06918665,0.9929091,23.36917,10.59792,-27.87398,1006.103
0.906564713,1.483603,0.1220172,-3.401363,0.0282675,0.07114764,0.9890338,23.36917,10.59792,-27.87398,1006.103
0.909041405,1.422369,0.0615045,-3.156713,0.02926529,0.07019287,0.9948156,23.36917,10.59792,-27.87398,1006.103
0.911518574,1.483603,-0.1200336,-2.789738,0.02781064,0.06823294,0.9928828,23.36917,10.59792,-27.87398,1006.103
0.916472912,1.667303,-0.4225971,-2.545089,0.02879152,0.06971046,0.9977118,22.99147,10.9462,-28.6391,1006.103
0.916472912,1.667303,-0.4225971,-2.545089,0.02879152,0.06971046,0.9977118,22.99147,10.9462,-28.6391,1006.103
0.918949604,1.728537,-0.7251607,-2.239276,0.02688225,0.06825954,1.00592,22.99147,10.9462,-28.6391,1006.103
0.921426773,1.60607,-0.7251607,-2.116951,0.02445771,0.06874092,1.008832,22.99147,10.9462,-28.6391,1006.103
0.923903465,1.544836,-1.088237,-1.994627,0.02545222,0.06778383,1.013649,22.99147,10.9462,-28.6391,1006.102
0.928857327,1.238669,-1.330288,-1.566489,0.02158071,0.06728847,1.018494,22.99147,10.9462,-28.6391,1006.102
0.928857327,1.238669,-1.330288,-1.566489,0.02158071,0.06728847,1.018494,22.99147,10.9462,-28.6391,1006.102
0.931334019,1.177435,-1.753877,-1.749977,0.02055182,0.07115424,1.008383,22.99147,10.9462,-28.6391,1006.102
0.933811188,1.177435,-1.995928,-1.688814,0.01958844,0.07066696,1.010317,22.99147,10.9462,-28.6391,1006.102
0.938765049,1.054968,-1.874902,-1.749977,0.01624037,0.06677856,1.020451,22.99147,10.9462,-28.6391,1006.102
0.938765049,1.054968,-1.874902,-1.749977,0.01624037,0.06677856,1.020451,22.99147,10.9462,-28.6391,1006.102
0.941241741,1.054968,-2.298491,-1.749977,0.0148163,0.06288498,1.024301,22.99147,10.9462,-28.6391,1006.102
0.943718910,0.6875677,-2.177466,-1.566489,0.01872931,0.06096562,1.027648,22.99147,10.9462,-28.6391,1006.102
0.946195603,0.4426338,-2.237978,-1.566489,0.02256757,0.06681479,1.021865,22.99147,10.9462,-28.6391,1006.102
0.951149941,0.0139995,-2.540542,-1.811139,0.01724413,0.06387258,1.024775,22.99147,10.9462,-28.6391,1006.102
0.951149941,0.0139995,-2.540542,-1.811139,0.01724413,0.06387258,1.024775,22.99147,10.9462,-28.6391,1006.102
0.953627110,-0.1697009,-2.419516,-1.811139,0.01628406,0.06485429,1.030095,22.99147,10.9462,-28.6391,1006.102
0.956103802,-0.2921678,-1.995928,-2.116951,0.01480484,0.06434341,1.023343,22.99147,10.9462,-28.6391,1006.102
0.958580971,-0.1084674,-1.753877,-2.361601,0.01824242,0.06047383,1.026683,22.99147,10.9462,-28.6391,1006.102
0.963534832,-0.4146348,-1.451313,-2.606251,0.02013532,0.06337968,1.016068,22.99147,10.9462,-28.6391,1006.102
0.963534832,-0.4146348,-1.451313,-2.606251,0.02013532,0.06337968,1.016068,22.99147,10.9462,-28.6391,1006.102
0.966011524,-0.4758682,-1.511826,-2.850901,0.02011403,0.06483106,1.012215,22.99147,10.9462,-28.6391,1006.102
0.968488217,-0.5983351,-1.632851,-3.095551,0.01914296,0.06189394,1.007861,22.62738,10.58274,-28.25121,1006.102
0.973442078,-1.088203,-1.874902,-3.034388,0.01673305,0.05358606,1.000591,22.62738,10.58274,-28.25121,1006.102
0.973442078,-1.088203,-1.874902,-3.034388,0.01673305,0.05358606,1.000591,22.62738,10.58274,-28.25121,1006.102
0.975919724,-1.333137,-2.05644,-2.912063,0.02159965,0.05508021,1.003951,22.62738,10.58274,-28.25121,1006.102
0.978395939,-1.39437,-2.05644,-3.034388,0.02057186,0.05992449,0.9957758,22.62738,10.58274,-28.25121,1006.102
0.980873585,-1.455604,-2.237978,-2.789738,0.02103422,0.0647986,0.9967636,22.62738,10.58274,-28.25121,1006.102
0.985827446,-1.700538,-2.419516,-2.667413,0.02491398,0.06823307,0.9991734,22.62738,10.58274,-28.25121,1006.102
0.988304138,-1.823005,-2.359004,-2.667413,0.02393585,0.06773525,0.9967629,22.62738,10.58274,-28.25121,1006.102
0.990781307,-2.006705,-2.298491,-2.728576,0.02537959,0.07164289,0.9987058,22.62738,10.58274,-28.25121,1006.102
0.993257999,-2.251639,-2.480029,-2.728576,0.03267395,0.06972474,0.9952773,22.62738,10.58274,-28.25121,1006.102
0.995735168,-2.190405,-2.359004,-2.606251,0.03754159,0.06779753,0.99331,22.62738,10.58274,-28.25121,1006.102
1.000689507,-2.067938,-1.935415,-2.239276,0.04636314,0.05811371,0.9970734,22.62738,10.58274,-28.25121,1006.102
1.000689507,-2.067938,-1.935415,-2.239276,0.04636314,0.05811371,0.9970734,22.62738,10.58274,-28.25121,1006.102
1.003165722,-2.006705,-1.632851,-1.872301,0.04538831,0.05908487,0.9980491,22.62738,10.58274,-28.25121,1006.103
1.005642414,-1.823005,-1.632851,-1.627652,0.05171987,0.05863535,0.9999429,22.62738,10.58274,-28.25121,1006.103
1.008120060,-1.639304,-0.9672114,-1.321839,0.04879151,0.05812395,0.9960948,22.62738,10.58274,-28.25121,1006.103
1.013073921,-1.761771,-0.9066988,-0.7102148,0.05219747,0.05960937,0.9989798,22.62738,10.58274,-28.25121,1006.103
1.013073921,-1.761771,-0.9066988,-0.7102148,0.05219747,0.05960937,0.9989798,22.62738,10.58274,-28.25121,1006.103
1.015550613,-1.700538,-0.9066988,-0.3432401,0.04638341,0.0615503,1.008675,22.62738,10.58274,-28.25121,1006.103
1.018027782,-2.006705,-0.9672114,-0.2820776,0.04926483,0.06545026,1.004335,22.98418,11.29726,-29.46895,1006.103
1.020504475,-2.312872,-0.9672114,-0.2209152,0.04491454,0.05860246,1.000945,22.98418,11.29726,-29.46895,1006.103
1.025458336,-2.557806,-1.14875,0.08489711,0.04397946,0.04982458,0.9975266,22.98418,11.29726,-29.46895,1006.103
1.025458336,-2.557806,-1.14875,0.08489711,0.04397946,0.04982458,0.9975266,22.98418,11.29726,-29.46895,1006.103
1.030412197,-2.251639,-1.088237,0.3295469,0.03956097,0.05075,0.9869366,22.98418,11.29726,-29.46895,1006.103
1.030412197,-2.251639,-1.088237,0.3295469,0.03956097,0.05075,0.9869366,22.98418,11.29726,-29.46895,1006.103
1.035367012,-2.374106,-1.330288,0.6353592,0.04296253,0.04978791,0.9844996,22.98418,11.29726,-29.46895,1006.103
1.037843704,-2.374106,-1.753877,0.8188466,0.04392644,0.04929782,0.9811131,22.98418,11.29726,-29.46895,1006.103
1.040320396,-2.435339,-2.237978,0.8188466,0.03809644,0.04584976,0.9772659,22.98418,11.29726,-29.46895,1006.103
1.042797565,-2.557806,-2.540542,1.002334,0.04050518,0.04877922,0.9753371,22.98418,11.29726,-29.46895,1006.103
1.045274258,-2.312872,-2.782593,1.124659,0.04586905,0.05126144,0.983526,22.98418,11.29726,-29.46895,1006.102
1.047750950,-2.496573,-2.843105,1.491634,0.0458717,0.04637462,0.9762607,22.98418,11.29726,-29.46895,1006.102
1.050228119,-2.435339,-2.903618,1.613959,0.04534284,0.05220817,0.9733974,22.98418,11.29726,-29.46895,1006.102
1.052704811,-2.557806,-2.661567,1.980933,0.04724998,0.05756854,0.9710011,22.98418,11.29726,-29.46895,1006.102
1.055181980,-2.435339,-2.540542,2.042096,0.04675876,0.05902914,0.9719766,22.98418,11.29726,-29.46895,1006.102
1.057658672,-2.251639,-2.177466,2.042096,0.05161873,0.0561187,0.966143,22.98418,11.29726,-29.46895,1006.102
1.060135841,-2.374106,-1.995928,2.103258,0.05743935,0.05418246,0.9583783,22.98418,11.29726,-29.46895,1006.102
1.062612534,-2.067938,-1.451313,2.225583,0.0482116,0.05072149,0.9564803,22.98418,11.29726,-29.46895,1006.102
1.065090179,-1.761771,-1.14875,2.40907,0.04820066,0.04973591,0.9516486,22.98418,11.29726,-29.46895,1006.102
1.067566872,-1.639304,-0.9672114,2.714883,0.04967157,0.04290777,0.9438826,22.62093,10.94221,-28.63771,1006.102
1.070044041,-1.39437,-1.027724,3.081857,0.04578414,0.03849008,0.9376063,22.62093,10.94221,-28.63771,1006.102
1.072520733,-1.149436,-0.3620844,3.38767,0.04633375,0.03071587,0.9433556,22.62093,10.94221,-28.63771,1006.102
1.074997902,-0.7208021,0.1825299,3.693482,0.03949133,0.03554519,0.9414871,22.62093,10.94221,-28.63771,1006.102
1.077474594,-0.2309344,0.7876569,4.182782,0.03608758,0.03601684,0.9424735,22.62093,10.94221,-28.63771,1006.102
1.079951763,0.4426338,1.453297,4.427432,0.03754167,0.03748751,0.9434385,22.62093,10.94221,-28.63771,1006.102
1.084905624,1.483603,2.966114,4.549757,0.03027728,0.03404949,0.9468393,22.62093,10.94221,-28.63771,1006.101
1.084905624,1.483603,2.966114,4.549757,0.03027728,0.03404949,0.9468393,22.62093,10.94221,-28.63771,1006.101
1.087382317,1.912237,3.389703,4.305107,0.0244223,0.04036102,0.9517306,22.62093,10.94221,-28.63771,1006.101
1.089859009,2.279638,3.631754,4.305107,0.02395724,0.03744048,0.9531662,22.62093,10.94221,-28.63771,1006.101
1.092336178,2.402105,3.99483,3.999295,0.02155836,0.03598469,0.960412,22.62093,10.94221,-28.63771,1006.101
1.097290516,2.463338,4.963033,3.999295,0.02162498,0.0326102,0.9743919,22.62093,10.94221,-28.63771,1006.101
1.097290516,2.463338,4.963033,3.999295,0.02162498,0.0326102,0.9743919,22.62093,10.94221,-28.63771,1006.101
1.099767208,2.647039,5.689186,3.754644,0.0172639,0.03504327,0.9831165,22.62093,10.94221,-28.63771,1006.101
1.102244377,2.769506,6.294313,3.509995,0.01293229,0.03456415,0.9956874,22.62093,10.94221,-28.63771,1006.101
1.104721069,2.891973,7.14149,3.081857,0.01146033,0.04334702,1.006359,22.62093,10.94221,-28.63771,1006.101
1.109674931,3.01444,8.654308,2.164421,0.01340793,0.04971406,1.017483,22.62093,10.94221,-28.63771,1006.101
1.109674931,3.01444,8.654308,2.164421,0.01340793,0.04971406,1.017483,22.62093,10.94221,-28.63771,1006.101
1.112152100,2.953206,9.259436,1.736283,0.01780563,0.04779604,1.020345,22.62093,10.94221,-28.63771,1006.101
1.114628792,2.891973,9.985588,1.246984,0.01830399,0.04829603,1.024689,22.62093,10.94221,-28.63771,1006.101
1.117105961,2.708272,10.28815,0.8800091,0.02513715,0.04541558,1.02705,22.62093,10.94221,-28.63771,1006.101
1.122060299,2.585805,10.77225,0.6353592,0.02418414,0.04395798,1.030427,22.99064,10.93778,-29.08245,1006.101
1.122060299,2.585805,10.77225,0.6353592,0.02418414,0.04395798,1.030427,22.99064,10.93778,-29.08245,1006.101
1.124536991,2.524572,10.83277,0.6353592,0.02609351,0.05127542,1.031902,22.99064,10.93778,-29.08245,1006.1
1.127014160,2.524572,10.59071,0.6965217,0.02411932,0.05760007,1.033876,22.99064,10.93778,-29.08245,1006.1
1.129490852,2.585805,10.40918,0.4518718,0.02118499,0.06050651,1.033907,22.99064,10.93778,-29.08245,1006.1
1.134444714,2.524572,9.743537,-0.03742781,0.03093999,0.0595994,1.040606,22.99064,10.93778,-29.08245,1006.1
1.134444714,2.524572,9.743537,-0.03742781,0.03093999,0.0595994,1.040606,22.99064,10.93778,-29.08245,1006.1
1.136921406,2.708272,9.440973,-0.03742781,0.02844786,0.07127653,1.042128,22.99064,10.93778,-29.08245,1006.1
1.139398575,2.463338,8.714821,-0.1597527,0.0347903,0.06741267,1.041591,22.99064,10.93778,-29.08245,1006.1
1.144352436,2.402105,7.080978,0.1460596,0.03823449,0.06648105,1.051703,22.99064,10.93778,-29.08245,1006.1
1.144352436,2.402105,7.080978,0.1460596,0.03823449,0.06648105,1.051703,22.99064,10.93778,-29.08245,1006.1
1.146829128,2.279638,6.173287,0.3295469,0.04695135,0.0728552,1.051206,22.99064,10.93778,-29.08245,1006.1
1.149306297,2.034704,5.023546,0.4518718,0.05127758,0.07870806,1.045903,22.99064,10.93778,-29.08245,1006.1
1.151782990,1.851004,4.418419,0.4518718,0.05665016,0.07875215,1.052631,22.99064,10.93778,-29.08245,1006.1
1.156737328,1.483603,3.268678,1.002334,0.05908621,0.08121225,1.05794,22.99064,10.93778,-29.08245,1006.1
1.156737328,1.483603,3.268678,1.002334,0.05908621,0.08121225,1.05794,22.99064,10.93778,-29.08245,1006.1
1.159214497,1.422369,2.966114,1.124659,0.06053433,0.08463413,1.060363,22.99064,10.93778,-29.08245,1006.1
1.161691189,1.667303,2.360987,1.430471,0.06634733,0.08464793,1.053574,22.99064,10.93778,-29.08245,1006.1
1.164168358,1.78977,1.75586,1.613959,0.06878007,0.08563905,1.055496,22.99064,10.93778,-29.08245,1006.101
1.169122219,1.361136,0.6666315,1.919771,0.0682871,0.07976531,1.043884,22.99147,10.9462,-28.6391,1006.101
1.169122219,1.361136,0.6666315,1.919771,0.0682871,0.07976531,1.043884,22.99147,10.9462,-28.6391,1006.101
1.171598911,1.116202,-0.4225971,2.103258,0.06439644,0.07827855,1.041485,22.99147,10.9462,-28.6391,1006.101
1.174075604,0.9325016,-1.088237,2.40907,0.07074004,0.0783265,1.047725,22.99147,10.9462,-28.6391,1006.101
1.179029465,0.6263342,-3.266694,3.020695,0.06634283,0.07633389,1.038568,22.99147,10.9462,-28.6391,1006.101
1.179029465,0.6263342,-3.266694,3.020695,0.06634283,0.07633389,1.038568,22.99147,10.9462,-28.6391,1006.101
1.181507111,0.5038673,-4.05336,3.14302,0.06584284,0.07729936,1.036162,22.99147,10.9462,-28.6391,1006.101
1.183983326,0.3814003,-5.021563,3.081857,0.06291623,0.08412229,1.044901,22.99147,10.9462,-28.6391,1006.101
1.186460972,0.2589334,-5.929253,3.14302,0.06392166,0.08268413,1.052129,22.99147,10.9462,-28.6391,1006.101
1.191414833,0.2589334,-6.836944,2.89837,0.06540501,0.06804293,1.035152,22.99147,10.9462,-28.6391,1006.101
1.191414833,0.2589334,-6.836944,2.89837,0.06540501,0.06804293,1.035152,22.99147,10.9462,-28.6391,1006.101
1.193891525,0.3814003,-7.502584,3.020695,0.06682427,0.07926616,1.041959,22.99147,10.9462,-28.6391,1006.101
1.196368694,0.3201669,-7.805147,3.081857,0.06343634,0.07779361,1.044384,22.99147,10.9462,-28.6391,1006.101
1.198845387,0.4426338,-7.623609,3.204182,0.06342163,0.08071634,1.044881,22.99147,10.9462,-28.6391,1006.101
1.203799248,0.6263342,-7.623609,2.837208,0.05316569,0.09041018,1.048366,22.99147,10.9462,-28.6391,1006.102
1.203799248,0.6263342,-7.623609,2.837208,0.05316569,0.09041018,1.048366,22.99147,10.9462,-28.6391,1006.102
1.206276417,0.3814003,-7.321045,2.470233,0.05313184,0.09234148,1.041618,22.99147,10.9462,-28.6391,1006.102
1.208753109,0.1364664,-6.957969,2.347908,0.0555624,0.09284215,1.042091,22.99147,10.9462,-28.6391,1006.102
1.211230755,-0.1084674,-6.715919,2.042096,0.0545908,0.09088238,1.03919,22.99147,10.9462,-28.6391,1006.102
1.216183662,-0.4146348,-5.747715,1.797446,0.05704526,0.08211158,1.031408,22.99147,10.9462,-28.6391,1006.102
1.216183662,-0.4146348,-5.747715,1.797446,0.05704526,0.08211158,1.031408,22.99147,10.9462,-28.6391,1006.102
1.218661308,-0.2921678,-5.445152,1.797446,0.05216722,0.08207586,1.027091,22.99147,10.9462,-28.6391,1006.102
1.221138001,-0.4758682,-4.840024,1.736283,0.05016788,0.08789366,1.020857,23.36846,10.5907,-28.25399,1006.102
1.223615170,-0.4146348,-4.29541,1.736283,0.05213062,0.08302745,1.017925,23.36846,10.5907,-28.25399,1006.102
1.228569031,-0.5983351,-3.569258,1.308146,0.04620947,0.08733622,1.00012,23.36846,10.5907,-28.25399,1006.102
1.228569031,-0.5983351,-3.569258,1.308146,0.04620947,0.08733622,1.00012,23.36846,10.5907,-28.25399,1006.102
1.231045723,-0.7208021,-3.508745,1.185821,0.0481411,0.08538101,0.9928596,23.36846,10.5907,-28.25399,1006.102
1.233522892,-0.7208021,-3.569258,1.124659,0.04763775,0.08047761,0.9798049,23.36846,10.5907,-28.25399,1006.102
1.238477230,-0.8432691,-4.476948,1.369309,0.04086833,0.07020406,0.9744796,23.36846,10.5907,-28.25399,1006.102
1.238477230,-0.8432691,-4.476948,1.369309,0.04086833,0.07020406,0.9744796,23.36846,10.5907,-28.25399,1006.102
1.240953445,-1.02697,-4.900537,1.491634,0.04325905,0.07458726,0.9696624,23.36846,10.5907,-28.25399,1006.102
1.243431091,-1.02697,-5.263614,1.552796,0.03840007,0.07114307,0.9653271,23.36846,10.5907,-28.25399,1006.101
1.245907784,-1.271903,-5.505664,1.736283,0.03498489,0.07453978,0.9677767,23.36846,10.5907,-28.25399,1006.101
1.250861645,-1.271903,-5.929253,1.858608,0.02678877,0.06672612,0.9759869,23.36846,10.5907,-28.25399,1006.101
1.250861645,-1.271903,-5.929253,1.858608,0.02678877,0.06672612,0.9759869,23.36846,10.5907,-28.25399,1006.101
1.253338814,-1.39437,-5.687202,1.736283,0.02288292,0.07207271,0.9803798,23.36846,10.5907,-28.25399,1006.101
1.255815506,-1.21067,-5.384639,1.675121,0.02241841,0.06964142,0.9827833,23.36846,10.5907,-28.25399,1006.101
1.260769367,-0.6595686,-4.234898,0.9411715,0.02052327,0.06331188,0.9871053,23.36846,10.5907,-28.25399,1006.101
1.260769367,-0.6595686,-4.234898,0.9411715,0.02052327,0.06331188,0.9871053,23.36846,10.5907,-28.25399,1006.101
1.263246059,-0.9045025,-3.690283,0.5130343,0.01319014,0.0671578,0.9823384,23.36846,10.5907,-28.25399,1006.101
1.265723229,-0.9045025,-3.206182,0.08489711,0.007827951,0.06761002,0.979474,23.36846,10.5907,-28.25399,1006.101
1.268199921,-0.5983351,-2.72208,-0.7102148,0.001992507,0.06513581,0.9756319,23.36846,10.5907,-28.25399,1006.101
1.273153782,0.0139995,-2.177466,-1.688814,0.009331003,0.05444951,0.97071,22.62738,10.58274,-28.25121,1006.101
1.273153782,0.0139995,-2.177466,-1.688814,0.009331003,0.05444951,0.97071,22.62738,10.58274,-28.25121,1006.101
1.275631428,0.6263342,-2.05644,-2.116951,0.008855043,0.05347665,0.9721556,22.62738,10.58274,-28.25121,1006.101
1.278108120,1.299902,-2.116953,-2.361601,0.0176035,0.05302918,0.9696921,22.62738,10.58274,-28.25121,1006.101
1.280585289,1.544836,-2.177466,-2.483926,0.02049859,0.05742777,0.9701815,22.62738,10.58274,-28.25121,1006.101
1.285539150,1.973471,-2.177466,-2.789738,0.03070996,0.06334598,0.9793268,22.62738,10.58274,-28.25121,1006.101
1.285539150,1.973471,-2.177466,-2.789738,0.03070996,0.06334598,0.9793268,22.62738,10.58274,-28.25121,1006.101
1.288015843,2.095937,-2.05644,-2.422764,0.04186552,0.06582677,0.9744517,22.62738,10.58274,-28.25121,1006.101
1.290493012,2.402105,-1.814389,-2.361601,0.04093872,0.06292129,0.9831301,22.62738,10.58274,-28.25121,1006.101
1.292969704,2.708272,-1.451313,-1.811139,0.03996606,0.06291625,0.9831354,22.62738,10.58274,-28.25121,1006.101
1.297923565,3.136906,-1.511826,-0.8325397,0.04380224,0.07560814,0.9880064,22.62738,10.58274,-28.25121,1006.101
1.297923565,3.136906,-1.511826,-0.8325397,0.04380224,0.07560814,0.9880064,22.62738,10.58274,-28.25121,1006.101
1.302877903,3.320607,-1.088237,-0.465565,0.04622691,0.08392657,0.9996201,22.62738,10.58274,-28.25121,1006.101
1.305354595,2.953206,-1.269775,-0.2820776,0.04430288,0.0824651,1.003485,22.62738,10.58274,-28.25121,1006.101
1.307831764,2.953206,-1.330288,-0.09859026,0.04290013,0.07858676,1.013609,22.62738,10.58274,-28.25121,1006.101
1.310308456,3.136906,-1.330288,-0.03742781,0.0424509,0.07518867,1.018903,22.62738,10.58274,-28.25121,1006.101
1.312785626,3.136906,-1.269775,0.207222,0.03808052,0.07663734,1.023279,22.62738,10.58274,-28.25121,1006.101
1.315262318,3.136906,-1.209262,0.5130343,0.03473899,0.07128698,1.032923,22.62738,10.58274,-28.25121,1006.101
1.317739487,2.953206,-0.9066988,0.6353592,0.03527499,0.06741402,1.041106,22.62738,10.58274,-28.25121,1006.101
1.320216179,2.891973,-0.846186,0.8800091,0.03234613,0.07081325,1.043552,22.99076,10.93898,-29.01912,1006.101
1.322693348,2.524572,-0.6646479,0.8188466,0.02896693,0.06836921,1.046937,22.99076,10.93898,-29.01912,1006.101
1.325170040,2.157171,-0.4225971,0.7576842,0.02068088,0.07662407,1.05523,22.99076,10.93898,-29.01912,1006.104
1.327647686,1.728537,-0.1200336,0.7576842,0.01873614,0.07856989,1.05863,22.99076,10.93898,-29.01912,1006.104
1.330124378,1.177435,0.1220172,0.207222,0.01049962,0.07414948,1.060583,22.99076,10.93898,-29.01912,1006.104
1.332601547,0.9325016,0.4850934,-0.2209152,0.01246122,0.0668381,1.053294,22.99076,10.93898,-29.01912,1006.104
1.335078240,0.5651007,0.9086823,-0.6490523,0.006630789,0.07023394,1.060584,22.99076,10.93898,-29.01912,1006.104
1.337555409,0.1364664,0.8481696,-1.016027,0.001760337,0.06678156,1.05287,22.99076,10.93898,-29.01912,1006.104
1.340032101,-0.1084674,0.9691951,-1.627652,0.008039458,0.06776118,1.041739,22.99076,10.93898,-29.01912,1006.104
1.342509270,-0.3534013,0.8481696,-1.933464,0.006584835,0.06726786,1.042227,22.99076,10.93898,-29.01912,1006.104
1.344985962,-0.8432691,0.6061188,-2.667413,0.01391684,0.06097677,1.042637,22.99076,10.93898,-29.01912,1006.104
1.347463131,-1.149436,0.4245807,-3.156713,0.01343642,0.05462315,1.033919,22.99076,10.93898,-29.01912,1006.104
1.349939823,-1.516837,0.4850934,-3.279038,0.01589257,0.04878678,1.031462,22.99076,10.93898,-29.01912,1006.104
1.352416515,-1.823005,0.7271442,-3.462525,0.02363726,0.05124526,1.024675,22.99076,10.93898,-29.01912,1006.104
1.354893684,-1.884238,0.6666315,-3.523688,0.02943553,0.05271515,1.015963,22.99076,10.93898,-29.01912,1006.104
1.357370377,-1.945472,0.4245807,-3.58485,0.02940763,0.05122859,1.005336,22.99076,10.93898,-29.01912,1006.104
1.359848023,-2.251639,0.364068,-3.523688,0.02992285,0.04636304,1.005791,22.99076,10.93898,-29.01912,1006.104
1.362324715,-2.435339,0.0009917939,-3.58485,0.03378183,0.04880491,1.000473,22.99076,10.93898,-29.01912,1006.104
1.364801884,-2.312872,-0.3015717,-3.462525,0.04055931,0.05028452,0.9936862,22.99076,10.93898,-29.01912,1006.105
1.369755745,-1.884238,-0.4225971,-3.340201,0.04928321,0.05275273,0.9888243,22.99076,10.93898,-29.01912,1006.105
1.372232437,-1.884238,-0.3620844,-2.912063,0.05216736,0.05616575,0.984482,23.37926,9.850094,-28.62105,1006.105
1.374709606,-1.761771,-0.3015717,-2.545089,0.05852237,0.05182201,0.9868383,23.37926,9.850094,-28.62105,1006.105
1.377186298,-1.639304,-0.3620844,-2.116951,0.06043439,0.05425264,0.9810482,23.37926,9.850094,-28.62105,1006.105
1.379663467,-1.516837,-0.4831098,-1.811139,0.0628442,0.05669398,0.9786342,23.37926,9.850094,-28.62105,1006.105
1.382140160,-1.39437,-0.5436226,-1.138352,0.06962769,0.057689,0.97281,23.37926,9.850094,-28.62105,1006.105
1.384617806,-0.9045025,-0.7251607,-0.7102148,0.07695159,0.05725858,0.9804905,23.37926,9.850094,-28.62105,1006.105
1.387094498,-0.4146348,-1.209262,-0.465565,0.0754757,0.05968331,0.9795457,23.37926,9.850094,-28.62105,1006.105
1.389571667,0.07523298,-1.632851,0.207222,0.0783691,0.06114747,0.9747106,23.37926,9.850094,-28.62105,1006.105
1.392048359,0.7488011,-1.753877,0.8800091,0.08375094,0.05924269,0.9809462,23.37926,9.850094,-28.62105,1006.105
1.397002220,0.9325016,-2.237978,1.919771,0.08324771,0.06167245,0.979996,23.37926,9.850094,-28.62105,1006.105
1.397002220,0.9325016,-2.237978,1.919771,0.08324771,0.06167245,0.979996,23.37926,9.850094,-28.62105,1006.105
1.399478912,1.054968,-2.05644,2.347908,0.08085153,0.05826311,0.9848184,23.37926,9.850094,-28.62105,1006.105
1.401956081,1.299902,-2.116953,2.776045,0.08134492,0.05582632,0.9828725,23.37926,9.850094,-28.62105,1006.105
1.404432774,1.728537,-2.116953,3.265345,0.08232304,0.05485751,0.9828622,23.37926,9.850094,-28.62105,1006.107
1.409386635,2.218405,-1.814389,4.243944,0.07356694,0.05578839,0.9838802,23.37926,9.850094,-28.62105,1006.107
1.409386635,2.218405,-1.814389,4.243944,0.07356694,0.05578839,0.9838802,23.37926,9.850094,-28.62105,1006.107
1.411863804,2.340871,-1.935415,4.549757,0.0667578,0.05673052,0.9853704,23.37926,9.850094,-28.62105,1006.107
1.414340496,2.830739,-1.995928,4.733244,0.06135413,0.06106406,0.976734,23.37926,9.850094,-28.62105,1006.107
1.419294834,3.19814,-2.601054,4.916731,0.05560322,0.04642847,0.9776557,23.37926,9.850094,-28.62105,1006.107
1.419294834,3.19814,-2.601054,4.916731,0.05560322,0.04642847,0.9776557,23.37926,9.850094,-28.62105,1006.107
1.421772003,3.626774,-3.024643,5.100219,0.05801417,0.05131499,0.9795983,22.62668,10.57552,-28.63123,1006.107
1.424248695,3.810475,-3.448232,5.467194,0.05267979,0.04738722,0.9776766,22.62668,10.57552,-28.63123,1006.107
1.426725865,3.932941,-3.569258,5.650681,0.055166,0.04206121,0.9848757,22.62668,10.57552,-28.63123,1006.107
1.431679726,4.484043,-3.327207,5.956493,0.05323826,0.04744129,0.9989116,22.62668,10.57552,-28.63123,1006.107
1.431679726,4.484043,-3.327207,5.956493,0.05323826,0.04744129,0.9989116,22.62668,10.57552,-28.63123,1006.107
1.434156418,4.728976,-2.843105,5.956493,0.05082793,0.04744394,1.0052,22.62668,10.57552,-28.63123,1006.107
1.436633110,4.79021,-2.359004,5.834168,0.04450675,0.04838976,1.00717,22.62668,10.57552,-28.63123,1006.107
1.439110279,4.545276,-1.753877,5.773006,0.04404227,0.04742511,1.011994,22.62668,10.57552,-28.63123,1006.107
1.444064617,4.79021,-1.14875,5.528356,0.04018485,0.03911789,1.008111,22.62668,10.57552,-28.63123,1006.106
1.444064617,4.79021,-1.14875,5.528356,0.04018485,0.03911789,1.008111,22.62668,10.57552,-28.63123,1006.106
1.446540833,4.667743,-0.6041352,5.528356,0.03532917,0.03714268,1.007162,22.62668,10.57552,-28.63123,1006.106
1.449018478,4.422809,-0.3015717,5.528356,0.0285277,0.03906802,1.012519,22.62668,10.57552,-28.63123,1006.106
1.453972340,3.504307,0.4245807,5.344869,0.0285189,0.03563964,1.004296,22.62668,10.57552,-28.63123,1006.106
1.453972340,3.504307,0.4245807,5.344869,0.0285189,0.03563964,1.004296,22.62668,10.57552,-28.63123,1006.106
1.456449032,2.891973,0.6666315,5.222544,0.02900527,0.03857542,1.009135,22.62668,10.57552,-28.63123,1006.106
1.458926201,2.585805,1.09022,4.855569,0.03047405,0.03565674,1.007181,22.62668,10.57552,-28.63123,1006.106
1.461402893,2.647039,1.513809,4.549757,0.02856638,0.03127372,1.011031,22.62668,10.57552,-28.63123,1006.106
1.466356754,2.585805,2.4215,4.182782,0.02709974,0.03174958,1.009593,22.62668,10.57552,-28.63123,1006.106
1.466356754,2.585805,2.4215,4.182782,0.02709974,0.03174958,1.009593,22.62668,10.57552,-28.63123,1006.106
1.468833923,2.463338,2.784576,3.754644,0.02708612,0.0341842,1.009606,22.62668,10.57552,-28.63123,1006.106
1.471310616,2.340871,3.026627,3.571157,0.02754899,0.03661431,1.006719,22.99792,10.58672,-28.2526,1006.106
1.473788262,2.157171,3.268678,3.326507,0.02706859,0.03172731,1.000422,22.99792,10.58672,-28.2526,1006.106
1.478742123,1.667303,3.147652,2.470233,0.03096521,0.02979624,0.9989429,22.99792,10.58672,-28.2526,1006.106
1.478742123,1.667303,3.147652,2.470233,0.03096521,0.02979624,0.9989429,22.99792,10.58672,-28.2526,1006.106
1.481218815,1.60607,2.966114,2.531395,0.03385208,0.03272234,0.994598,22.99792,10.58672,-28.2526,1006.106
1.483695507,1.60607,2.784576,2.347908,0.03866078,0.03661947,0.9849381,22.99792,10.58672,-28.2526,1006.108
1.486172676,1.78977,2.603038,2.103258,0.0381848,0.03417998,0.9839629,22.99792,10.58672,-28.2526,1006.108
1.491126537,2.463338,2.118936,1.858608,0.05422323,0.03083348,0.9751698,22.99792,10.58672,-28.2526,1006.108
1.491126537,2.463338,2.118936,1.858608,0.05422323,0.03083348,0.9751698,22.99792,10.58672,-28.2526,1006.108
1.493603230,2.463338,1.75586,2.042096,0.05763135,0.02987608,0.9746635,22.99792,10.58672,-28.2526,1006.108
1.496080399,2.708272,1.029708,2.164421,0.05810565,0.02938112,0.9703143,22.99792,10.58672,-28.2526,1006.108
1.498557091,2.830739,0.7271442,2.286746,0.05861655,0.02793458,0.9751309,22.99792,10.58672,-28.2526,1006.108
1.503510952,2.953206,-0.3015717,2.776045,0.06976882,0.03041303,0.9692904,22.99792,10.58672,-28.2526,1006.108
1.503510952,2.953206,-0.3015717,2.776045,0.06976882,0.03041303,0.9692904,22.99792,10.58672,-28.2526,1006.108
1.505988598,2.953206,-0.9672114,3.081857,0.07366166,0.0309236,0.9707197,22.99792,10.58672,-28.2526,1006.108
1.508465290,2.953206,-1.451313,3.448832,0.07466211,0.02654866,0.971657,22.99792,10.58672,-28.2526,1006.108
1.513419151,3.871708,-1.330288,4.121619,0.07814723,0.02124644,0.9865738,22.99792,10.58672,-28.2526,1006.108
1.513419151,3.871708,-1.330288,4.121619,0.07814723,0.02124644,0.9865738,22.99792,10.58672,-28.2526,1006.108
1.515896320,4.116642,-1.3908,4.427432,0.08304163,0.0183606,0.9908763,22.99792,10.58672,-28.2526,1006.108
1.518373013,4.422809,-0.9672114,4.672081,0.08787604,0.02472048,0.9928132,22.99792,10.58672,-28.2526,1006.108
1.520850182,4.484043,-0.1805463,4.916731,0.08886953,0.02865138,1.005378,22.99792,10.58672,-28.2526,1006.108
1.525804043,4.484043,0.6666315,5.344869,0.08740177,0.02668206,0.9995834,23.00439,10.22724,-27.86611,1006.107
1.525804043,4.484043,0.6666315,5.344869,0.08740177,0.02668206,0.9995834,23.00439,10.22724,-27.86611,1006.107
1.528280735,4.300342,1.332271,5.589519,0.08352698,0.02618438,1.003463,23.00439,10.22724,-27.86611,1006.107
1.530758381,4.484043,1.937398,5.834168,0.08160568,0.02423599,1.007325,23.00439,10.22724,-27.86611,1006.107
1.533235073,4.422809,2.482013,6.017655,0.0791451,0.02615821,1.002039,23.00439,10.22724,-27.86611,1006.107
1.538188934,3.688008,3.147652,6.201143,0.07332441,0.02369456,1.002541,23.00439,10.22724,-27.86611,1006.107
1.538188934,3.688008,3.147652,6.201143,0.07332441,0.02369456,1.002541,23.00439,10.22724,-27.86611,1006.107
1.543142796,3.749241,3.934317,6.506955,0.06946601,0.02320859,1.011248,23.00439,10.22724,-27.86611,1006.107
1.543142796,3.749241,3.934317,6.506955,0.06946601,0.02320859,1.011248,23.00439,10.22724,-27.86611,1006.107
1.545619488,3.688008,4.418419,6.201143,0.06510759,0.02075483,1.012707,23.00439,10.22724,-27.86611,1006.107
1.550573349,3.19814,5.265597,6.078818,0.05636186,0.02071539,1.015168,23.00439,10.22724,-27.86611,1006.107
1.550573349,3.19814,5.265597,6.078818,0.05636186,0.02071539,1.015168,23.00439,10.22724,-27.86611,1006.107
1.555527210,3.19814,5.991749,5.589519,0.05734484,0.01681682,1.011764,23.00439,10.22724,-27.86611,1006.107
1.555527210,3.19814,5.991749,5.589519,0.05734484,0.01681682,1.011764,23.00439,10.22724,-27.86611,1006.107
1.560481072,2.891973,6.112775,5.344869,0.0592727,0.0187699,1.009833,23.00439,10.22724,-27.86611,1006.107
1.560481072,2.891973,6.112775,5.344869,0.0592727,0.0187699,1.009833,23.00439,10.22724,-27.86611,1006.107
1.562958717,2.585805,6.173287,5.161381,0.05832566,0.01389445,1.00933,23.00439,10.22724,-27.86611,1006.107
1.565435410,2.279638,6.052262,4.977894,0.05883489,0.01098011,1.011243,23.00439,10.22724,-27.86611,1006.107
1.567912579,2.279638,5.991749,4.977894,0.05783662,0.01584549,1.011757,23.00439,10.22724,-27.86611,1006.107
1.572866440,2.340871,5.991749,4.549757,0.06315897,0.01927579,1.009332,23.01926,9.173838,-28.60778,1006.107
1.575343132,2.340871,5.749699,4.610919,0.06265841,0.01828536,1.003537,23.01926,9.173838,-28.60778,1006.107
1.577819824,2.463338,5.507648,4.488594,0.066036,0.02219486,1.002091,23.01926,9.173838,-28.60778,1006.107
1.580296993,2.340871,5.023546,4.488594,0.06897307,0.02026812,1.004478,23.01926,9.173838,-28.60778,1006.107
1.582773686,2.585805,4.539444,4.366269,0.06994519,0.01978389,1.003505,23.01926,9.173838,-28.60778,1006.107
1.585250855,2.769506,4.055343,4.182782,0.07622053,0.02467179,0.9977036,23.01926,9.173838,-28.60778,1006.107
1.587727547,2.891973,3.631754,4.182782,0.07571243,0.0300313,1.000147,23.01926,9.173838,-28.60778,1006.107
1.590205193,2.647039,2.966114,3.999295,0.07570314,0.03051354,0.9982191,23.01926,9.173838,-28.60778,1006.107
1.592681408,2.585805,2.300474,3.876969,0.08203577,0.0281093,0.9972067,23.01926,9.173838,-28.60778,1006.107
1.595159054,2.585805,1.876886,3.999295,0.09230105,0.02086648,1.000492,23.01926,9.173838,-28.60778,1006.107
1.597635746,2.769506,1.453297,4.182782,0.09618512,0.02088193,0.9985401,23.01926,9.173838,-28.60778,1006.107
1.600112915,2.891973,0.7876569,4.488594,0.1059581,0.01852108,1.008128,23.01926,9.173838,-28.60778,1006.107
1.602589607,3.01444,0.6666315,5.039056,0.108416,0.02001905,1.018259,23.01926,9.173838,-28.60778,1006.107
1.605066776,3.38184,0.7876569,5.344869,0.1089019,0.02393219,1.024551,23.01926,9.173838,-28.60778,1006.102
1.607543469,3.443074,0.7271442,5.711843,0.1171428,0.0293335,1.025499,23.01926,9.173838,-28.60778,1006.102
1.610020638,3.443074,0.8481696,6.017655,0.1195756,0.03472451,1.034684,23.01926,9.173838,-28.60778,1006.102
1.612497330,3.075673,1.271759,6.323468,0.1210499,0.03229861,1.035146,23.01926,9.173838,-28.60778,1006.102
1.614974976,2.830739,1.816373,6.506955,0.1263755,0.03573126,1.033687,23.01926,9.173838,-28.60778,1006.102
1.617451191,2.891973,2.360987,6.812768,0.1288421,0.03332445,1.039936,23.01926,9.173838,-28.60778,1006.102
1.619928837,2.647039,3.08714,7.302067,0.1263782,0.03524433,1.033684,23.01926,9.173838,-28.60778,1006.102
1.622405529,2.524572,3.813292,7.485555,0.1263673,0.0357254,1.031273,23.01926,9.173838,-28.60778,1006.102
1.624882698,2.647039,4.297394,7.852529,0.1317774,0.02699664,1.034578,24.13158,9.193003,-28.23193,1006.102
1.627359390,2.524572,4.781495,8.341829,0.1302998,0.0250203,1.025887,24.13158,9.193003,-28.23193,1006.102
1.629836083,2.891973,5.205084,8.831128,0.1317249,0.02402588,1.01429,24.13158,9.193003,-28.23193,1006.102
1.632313252,3.01444,5.447135,9.320428,0.129802,0.02060968,1.015249,24.13158,9.193003,-28.23193,1006.102
1.634789944,3.320607,5.810211,9.993216,0.1307702,0.01963384,1.012342,24.13158,9.193003,-28.23193,1006.102
1.637267113,3.320607,5.810211,10.78833,0.1258961,0.02595626,1.019641,24.13158,9.193003,-28.23193,1006.102
1.639743805,3.565541,6.052262,11.27763,0.1273415,0.02839844,1.019646,24.13158,9.193003,-28.23193,1006.102
1.642220974,3.565541,6.294313,11.82809,0.1234896,0.02351726,1.023021,24.13158,9.193003,-28.23193,1006.102
1.647175312,3.565541,6.717902,12.50088,0.1151844,0.02931405,1.021648,24.13158,9.193003,-28.23193,1006.101
1.647175312,3.565541,6.717902,12.50088,0.1151844,0.02931405,1.021648,24.13158,9.193003,-28.23193,1006.101
1.649652004,3.626774,7.383542,12.86785,0.1098287,0.03123758,1.023135,24.13158,9.193003,-28.23193,1006.101
1.652129173,3.810475,7.867643,12.92901,0.1064283,0.03317821,1.027508,24.13158,9.193003,-28.23193,1006.101
1.657083035,4.177875,9.13841,13.35715,0.09922498,0.02147301,1.03521,24.13158,9.193003,-28.23193,1006.101
1.657083035,4.177875,9.13841,13.35715,0.09922498,0.02147301,1.03521,24.13158,9.193003,-28.23193,1006.101
1.659559727,4.60651,9.501486,13.47948,0.1016621,0.01904512,1.032771,24.13158,9.193003,-28.23193,1006.101
1.662036896,4.667743,9.985588,13.41831,0.09139131,0.02579514,1.02707,24.13158,9.193003,-28.23193,1006.101
1.664513588,4.667743,10.0461,13.05134,0.085074,0.0286992,1.033394,24.13158,9.193003,-28.23193,1006.101
1.666990757,4.667743,9.743537,13.05134,0.08458219,0.0282039,1.030981,24.13158,9.193003,-28.23193,1006.101
1.669467449,4.484043,9.198922,12.74553,0.0816102,0.03401667,1.024752,24.13158,9.193003,-28.23193,1006.101
1.671945095,4.484043,8.835846,12.50088,0.07475901,0.03688423,1.017081,24.13158,9.193003,-28.23193,1006.101
1.674421311,3.994175,7.928156,12.1339,0.07284205,0.03298345,1.019003,23.76034,9.181803,-28.61056,1006.101
1.676898956,3.871708,7.020465,12.01158,0.07433867,0.02861805,1.022833,23.76034,9.181803,-28.61056,1006.101
1.681852341,3.871708,4.902521,11.82809,0.07773802,0.02569889,1.016525,23.76034,9.181803,-28.61056,1006.101
1.681852341,3.871708,4.902521,11.82809,0.07773802,0.02569889,1.016525,23.76034,9.181803,-28.61056,1006.101
1.684329510,3.688008,4.055343,11.82809,0.07918943,0.03058975,1.022334,23.76034,9.181803,-28.61056,1006.099
1.686806202,3.626774,3.631754,11.82809,0.08600407,0.03160704,1.025681,23.76034,9.181803,-28.61056,1006.099
1.689283371,3.749241,3.32919,11.82809,0.08894387,0.02919338,1.028066,23.76034,9.181803,-28.61056,1006.099
1.694237232,3.932941,4.115856,12.01158,0.0884058,0.03990905,1.030537,23.76034,9.181803,-28.61056,1006.099
1.694237232,3.932941,4.115856,12.01158,0.0884058,0.03990905,1.030537,23.76034,9.181803,-28.61056,1006.099
1.696713925,3.932941,4.115856,11.76693,0.08987409,0.040901,1.034878,23.76034,9.181803,-28.61056,1006.099
1.699191094,3.932941,4.66047,11.52228,0.09129713,0.04968257,1.038777,23.76034,9.181803,-28.61056,1006.099
1.701667786,3.810475,5.023546,11.1553,0.09324571,0.04822835,1.037311,23.76034,9.181803,-28.61056,1006.099
1.706622124,3.994175,5.447135,10.84949,0.09712961,0.03651074,1.015992,23.76034,9.181803,-28.61056,1006.099
1.706622124,3.994175,5.447135,10.84949,0.09712961,0.03651074,1.015992,23.76034,9.181803,-28.61056,1006.099
1.709099293,4.545276,5.689186,10.60484,0.09273417,0.04331908,1.021843,23.76034,9.181803,-28.61056,1006.099
1.711575985,4.79021,5.870724,10.60484,0.1005323,0.03799381,1.017911,23.76034,9.181803,-28.61056,1006.099
1.714053154,4.851443,6.173287,10.666,0.1063639,0.0399764,1.01982,23.76034,9.181803,-28.61056,1006.099
1.719007015,5.096377,7.14149,10.91065,0.1200635,0.03179494,1.030322,23.76034,9.181803,-28.61056,1006.099
1.719007015,5.096377,7.14149,10.91065,0.1200635,0.03179494,1.030322,23.76034,9.181803,-28.61056,1006.099
1.721483708,5.463778,7.867643,11.1553,0.1268629,0.03231241,1.028357,23.76034,9.181803,-28.61056,1006.099
1.723960877,5.769945,8.412257,11.27763,0.1268389,0.03865063,1.031768,23.7783,8.088934,-28.2111,1006.094
1.726437569,5.769945,9.259436,11.27763,0.1278018,0.04304853,1.03613,23.7783,8.088934,-28.2111,1006.094
1.731391430,6.137346,10.40918,11.21646,0.127757,0.04399426,1.024551,23.7783,8.088934,-28.2111,1006.094
1.731391430,6.137346,10.40918,11.21646,0.127757,0.04399426,1.024551,23.7783,8.088934,-28.2111,1006.094
1.733868122,6.259813,10.95379,11.03298,0.1253302,0.04251856,1.023591,23.7783,8.088934,-28.2111,1006.094
1.736345768,6.443513,11.13533,10.97181,0.1194632,0.04393272,1.016873,23.7783,8.088934,-28.2111,1006.094
1.741299629,6.749681,11.0143,10.97181,0.1174479,0.0472948,1.001938,23.7783,8.088934,-28.2111,1006.094
1.741299629,6.749681,11.0143,10.97181,0.1174479,0.0472948,1.001938,23.7783,8.088934,-28.2111,1006.094
1.743776322,6.688447,10.46969,10.97181,0.1179668,0.02972117,0.982538,23.7783,8.088934,-28.2111,1006.094
1.746253491,6.504747,9.13841,11.6446,0.1218534,0.02044989,0.966058,23.7783,8.088934,-28.2111,1006.094
1.748730183,6.321046,7.444054,12.25623,0.1047879,0.03646312,0.9797485,23.7783,8.088934,-28.2111,1006.094
1.753684998,5.769945,4.781495,11.76693,0.1047297,0.05597642,0.9948123,23.7783,8.088934,-28.2111,1006.094
1.756161213,5.647479,3.208165,11.33879,0.1032538,0.05693452,0.9914466,23.7783,8.088934,-28.2111,1006.094
1.758637905,5.218844,2.058424,11.09414,0.1018063,0.0584018,0.9972541,23.7783,8.088934,-28.2111,1006.094
1.761115551,4.60651,1.150733,10.91065,0.1003583,0.05937982,1.002094,23.7783,8.088934,-28.2111,1006.094
1.763592243,3.932941,0.364068,10.666,0.1047457,0.0613654,1.008355,23.7783,8.088934,-28.2111,1006.093
1.768546105,2.953206,-0.7856733,10.48252,0.1086591,0.05406878,1.002987,23.7783,8.088934,-28.2111,1006.093
1.768546105,2.953206,-0.7856733,10.48252,0.1086591,0.05406878,1.002987,23.7783,8.088934,-28.2111,1006.093
1.771023274,3.01444,-1.269775,10.72717,0.1062515,0.05211787,1.006851,23.7783,8.088934,-28.2111,1006.093
1.773499966,2.647039,-1.874902,11.03298,0.1052428,0.05648696,1.0035,23.7783,8.088934,-28.2111,1006.093
1.778453827,1.299902,-3.085156,11.09414,0.1047653,0.05991283,1.011726,24.46912,7.362845,-28.20069,1006.093
1.778453827,1.299902,-3.085156,11.09414,0.1047653,0.05991283,1.011726,24.46912,7.362845,-28.20069,1006.093
1.780930519,0.7488011,-3.629771,10.97181,0.09843592,0.05938616,1.008862,24.46912,7.362845,-28.20069,1006.093
1.783407688,0.1976999,-3.871821,10.78833,0.09840205,0.05985082,0.9996936,24.46912,7.362845,-28.20069,1006.093
1.785884381,0.0139995,-4.476948,10.91065,0.1013298,0.05840632,1.000153,24.46912,7.362845,-28.20069,1006.093
1.790838242,-0.04723396,-5.445152,11.21646,0.09013823,0.05736638,0.9968299,24.46912,7.362845,-28.20069,1006.093
1.790838242,-0.04723396,-5.445152,11.21646,0.09013823,0.05736638,0.9968299,24.46912,7.362845,-28.20069,1006.093
1.793315888,-0.1084674,-5.808228,11.27763,0.0877306,0.05541547,1.000695,24.46912,7.362845,-28.20069,1006.093
1.795792580,-0.1697009,-6.050279,11.58344,0.08773334,0.05639518,1.003113,24.46912,7.362845,-28.20069,1006.093
1.798269749,-0.04723396,-6.050279,11.70576,0.08776062,0.05299257,1.005509,24.46912,7.362845,-28.20069,1006.093
1.803223610,0.07523298,-6.352842,11.76693,0.0921196,0.05593559,1.005017,24.46912,7.362845,-28.20069,1006.094
1.803223610,0.07523298,-6.352842,11.76693,0.0921196,0.05593559,1.005017,24.46912,7.362845,-28.20069,1006.094
1.808177471,-0.04723396,-6.473867,11.46111,0.08140834,0.05684939,1.00315,24.46912,7.362845,-28.20069,1006.094
1.808177471,-0.04723396,-6.473867,11.46111,0.08140834,0.05684939,1.00315,24.46912,7.362845,-28.20069,1006.094
1.810654164,0.07523298,-6.655406,11.1553,0.07700519,0.05974125,1.000293,24.46912,7.362845,-28.20069,1006.094
1.815608025,-0.2309344,-6.655406,10.72717,0.06924675,0.05238422,0.994988,24.46912,7.362845,-28.20069,1006.094
1.815608025,-0.2309344,-6.655406,10.72717,0.06924675,0.05238422,0.994988,24.46912,7.362845,-28.20069,1006.094
1.818085671,-0.1697009,-6.715919,10.78833,0.07171112,0.04655371,0.9949446,24.46912,7.362845,-28.20069,1006.094
1.820562363,-0.1697009,-6.594893,10.54368,0.07466299,0.04757078,1.006518,24.46912,7.362845,-28.20069,1006.094
1.823039532,0.1976999,-6.171304,10.48252,0.07948589,0.0509892,1.000234,24.46912,7.362845,-28.20069,1006.094
1.827993393,0.3814003,-5.203101,10.11554,0.07900069,0.05343185,1.004593,24.53017,7.356291,-28.58093,1006.094
1.827993393,0.3814003,-5.203101,10.11554,0.07900069,0.05343185,1.004593,24.53017,7.356291,-28.58093,1006.094
1.830470085,0.5651007,-4.718999,9.870891,0.07460839,0.05144275,0.9968845,24.53017,7.356291,-28.58093,1006.094
1.832946778,0.8100346,-4.658486,9.565078,0.07605974,0.05193371,0.995431,24.53017,7.356291,-28.58093,1006.094
1.837900639,1.177435,-5.203101,9.014616,0.0697079,0.04894663,0.9819355,24.53017,7.356291,-28.58093,1006.094
1.840377808,1.483603,-5.747715,9.075778,0.0658363,0.04258476,0.9770973,24.53017,7.356291,-28.58093,1006.094
1.842854500,1.422369,-6.292329,8.892291,0.06821016,0.05233349,0.976169,24.53017,7.356291,-28.58093,1006.094
1.845332146,1.728537,-6.836944,8.831128,0.06575555,0.0523045,0.9694248,24.53017,7.356291,-28.58093,1006.093
1.847808361,1.973471,-7.442071,8.647641,0.06724016,0.04744163,0.968909,24.53017,7.356291,-28.58093,1006.093
1.850286007,2.034704,-7.926172,8.769966,0.07166726,0.03821155,0.9683546,24.53017,7.356291,-28.58093,1006.093
1.852762699,2.340871,-8.289248,8.586479,0.07068265,0.04357557,0.9736971,24.53017,7.356291,-28.58093,1006.093
1.855239868,2.830739,-8.410274,8.402991,0.06922316,0.04601202,0.977579,24.53017,7.356291,-28.58093,1006.093
1.857716561,3.075673,-8.228736,8.402991,0.07165539,0.0479805,0.9809546,24.53017,7.356291,-28.58093,1006.093
1.860193730,3.38184,-8.410274,8.280666,0.06872538,0.04746793,0.9766238,24.53017,7.356291,-28.58093,1006.093
1.862670422,3.688008,-8.168223,8.097179,0.0711565,0.04845788,0.9780636,24.53017,7.356291,-28.58093,1006.093
1.865147591,3.688008,-8.168223,7.913692,0.06580412,0.04745049,0.9756743,24.53017,7.356291,-28.58093,1006.093
1.867624283,3.565541,-8.5313,7.730205,0.06190095,0.04937688,0.975223,24.53017,7.356291,-28.58093,1006.093
1.870101452,4.055408,-8.773351,7.546717,0.05998611,0.04156664,0.9713319,24.53017,7.356291,-28.58093,1006.093
1.872578144,4.422809,-8.894376,7.424392,0.06487285,0.03769759,0.9717679,24.53017,7.356291,-28.58093,1006.093
1.875055790,5.035144,-9.136427,7.485555,0.0673547,0.03285734,0.978487,24.46759,7.347208,-29.02406,1006.093
1.877532482,5.402544,-9.196939,7.791367,0.07219295,0.03970882,0.9823571,24.46759,7.347208,-29.02406,1006.093
1.880009651,5.402544,-9.196939,7.913692,0.06930881,0.03629579,0.9866995,24.46759,7.347208,-29.02406,1006.093
1.882486344,5.769945,-9.075913,7.913692,0.06930555,0.03776008,0.988155,24.46759,7.347208,-29.02406,1006.093
1.884963513,6.076113,-8.894376,7.852529,0.07221104,0.04265498,0.9925084,24.46759,7.347208,-29.02406,1006.088
1.887440205,6.259813,-8.833863,7.913692,0.07902133,0.04562465,0.9977958,24.46759,7.347208,-29.02406,1006.088
1.889916897,6.19858,-8.652325,8.036016,0.08190821,0.04855075,0.993451,24.46759,7.347208,-29.02406,1006.088
1.892394066,6.076113,-8.168223,8.036016,0.08191862,0.05051368,0.9997358,24.46759,7.347208,-29.02406,1006.088
1.894870758,6.137346,-7.86566,8.341829,0.07806455,0.04660869,1.004081,24.46759,7.347208,-29.02406,1006.088
1.897347927,6.19858,-7.623609,8.831128,0.08195737,0.04711927,1.00551,24.46759,7.347208,-29.02406,1006.088
1.899824620,6.504747,-7.139507,9.198103,0.08293391,0.05054918,1.01228,24.46759,7.347208,-29.02406,1006.088
1.902302265,7.117082,-6.594893,9.259266,0.08193187,0.05932285,1.018123,24.46759,7.347208,-29.02406,1006.088
1.904778481,7.362016,-6.171304,9.381591,0.07900196,0.06467681,1.023476,24.46759,7.347208,-29.02406,1006.088
1.907256127,7.362016,-5.868741,9.503916,0.08143088,0.06517632,1.023465,24.46759,7.347208,-29.02406,1006.088
1.912209988,7.055848,-5.808228,9.748566,0.08191725,0.06811211,1.028304,24.46759,7.347208,-29.02406,1006.088
1.912209988,7.055848,-5.808228,9.748566,0.08191725,0.06811211,1.028304,24.46759,7.347208,-29.02406,1006.088
1.914686680,6.749681,-5.868741,9.993216,0.0765753,0.06906764,1.0322,24.46759,7.347208,-29.02406,1006.088
1.917163849,6.56598,-6.050279,10.23787,0.08097903,0.06813168,1.038446,24.46759,7.347208,-29.02406,1006.088
1.919640541,6.19858,-6.231817,10.54368,0.08245006,0.07010332,1.045205,24.46759,7.347208,-29.02406,1006.088
1.922117710,5.953646,-6.473867,10.84949,0.07563657,0.07153121,1.046215,24.46759,7.347208,-29.02406,1006.088
1.924594403,5.769945,-6.473867,10.84949,0.07659617,0.07592677,1.049611,24.46759,7.347208,-29.02406,1006.087
1.927071572,5.708712,-6.715919,10.72717,0.07023135,0.08173011,1.04678,23.79331,6.965995,-29.39505,1006.087
1.929548264,5.708712,-6.473867,10.48252,0.06582878,0.08657788,1.047312,23.79331,6.965995,-29.39505,1006.087
1.932025910,5.708712,-6.53438,10.23787,0.06292283,0.08706024,1.051674,23.79331,6.965995,-29.39505,1006.087
1.936979771,6.137346,-6.292329,10.11554,0.06008176,0.07683379,1.057429,23.79331,6.965995,-29.39505,1006.087
1.936979771,6.137346,-6.292329,10.11554,0.06008176,0.07683379,1.057429,23.79331,6.965995,-29.39505,1006.087
1.939456463,6.38228,-6.110791,9.932053,0.06198677,0.08610363,1.060845,23.79331,6.965995,-29.39505,1006.087
1.941933155,6.688447,-5.868741,9.932053,0.06099825,0.08510951,1.054571,23.79331,6.965995,-29.39505,1006.087
1.944410324,6.810915,-5.687202,9.809728,0.06484912,0.09341205,1.056523,23.79331,6.965995,-29.39505,1006.087
1.946887017,6.994615,-5.445152,9.687403,0.0633814,0.09437601,1.05557,23.79331,6.965995,-29.39505,1006.087
1.949364186,6.872148,-5.384639,9.687403,0.06192135,0.09632318,1.058485,23.79331,6.965995,-29.39505,1006.087
1.951840878,6.56598,-5.384639,9.565078,0.056599,0.09289289,1.06091,23.79331,6.965995,-29.39505,1006.087
1.954318047,6.56598,-5.082076,9.503916,0.0624568,0.09196095,1.0657,23.79331,6.965995,-29.39505,1006.087
1.956794739,6.56598,-4.718999,9.626241,0.06732228,0.09247656,1.067124,23.79331,6.965995,-29.39505,1006.087
1.959272385,6.933381,-4.234898,9.687403,0.06931072,0.08860648,1.073368,23.79331,6.965995,-29.39505,1006.087
1.961748600,7.178315,-3.38772,9.748566,0.07611769,0.08864054,1.072848,23.79331,6.965995,-29.39505,1006.087
1.964226246,7.423249,-2.601054,9.687403,0.07658543,0.0881409,1.066568,23.79331,6.965995,-29.39505,1006.086
1.966702938,7.729416,-2.05644,9.503916,0.07314242,0.09445095,1.065654,23.79331,6.965995,-29.39505,1006.086
1.971656800,7.300782,-1.511826,9.259266,0.06919828,0.09781468,1.055556,23.79331,6.965995,-29.39505,1006.086
1.971656800,7.300782,-1.511826,9.259266,0.06919828,0.09781468,1.055556,23.79331,6.965995,-29.39505,1006.086
1.974133969,7.178315,-1.632851,9.014616,0.06287868,0.09436177,1.050746,23.79331,6.965995,-29.39505,1006.086
1.976610661,7.055848,-2.177466,8.586479,0.06723758,0.0929049,1.042992,23.43261,6.282521,-29.7618,1006.086
1.981564522,7.055848,-2.540542,8.280666,0.0628185,0.09040778,1.026592,23.43261,6.282521,-29.7618,1006.086
1.981564522,7.055848,-2.540542,8.280666,0.0628185,0.09040778,1.026592,23.43261,6.282521,-29.7618,1006.086
1.984041691,6.933381,-3.085156,8.097179,0.0652604,0.08211687,1.015918,23.43261,6.282521,-29.7618,1006.086
1.986518383,7.117082,-3.690283,7.913692,0.06772693,0.07531018,1.014904,23.43261,6.282521,-29.7618,1006.086
1.988996029,7.362016,-4.05336,7.730205,0.06525001,0.08162057,1.012054,23.43261,6.282521,-29.7618,1006.086
1.993949890,7.97435,-5.505664,7.791367,0.07158638,0.07384141,1.003291,23.43261,6.282521,-29.7618,1006.086
1.993949890,7.97435,-5.505664,7.791367,0.07158638,0.07384141,1.003291,23.43261,6.282521,-29.7618,1006.086
1.996426582,7.913117,-6.110791,8.036016,0.07010007,0.07430321,0.9960613,23.43261,6.282521,-29.7618,1006.086
1.998903275,7.729416,-6.776431,7.974854,0.07154214,0.07527641,0.9926796,23.43261,6.282521,-29.7618,1006.086
2.001380444,7.668183,-7.321045,8.097179,0.06862143,0.07574823,0.992698,23.43261,6.282521,-29.7618,1006.086
2.006334305,7.79065,-8.470787,8.341829,0.06905206,0.07864416,0.9811263,23.43261,6.282521,-29.7618,1006.089
2.006334305,7.79065,-8.470787,8.341829,0.06905206,0.07864416,0.9811263,23.43261,6.282521,-29.7618,1006.089
2.008810997,8.219284,-8.773351,8.525316,0.06962019,0.06697221,0.9858901,23.43261,6.282521,-29.7618,1006.089
2.011288166,8.586685,-8.894376,8.831128,0.06722782,0.06258786,0.9902247,23.43261,6.282521,-29.7618,1006.089
2.013764858,9.38272,-8.470787,9.136941,0.063281,0.06937177,0.9849716,23.43261,6.282521,-29.7618,1006.089
2.018719673,9.688888,-8.652325,9.381591,0.06907608,0.07670585,0.9849775,23.43261,6.282521,-29.7618,1006.089
2.018719673,9.688888,-8.652325,9.381591,0.06907608,0.07670585,0.9849775,23.43261,6.282521,-29.7618,1006.089
2.021196365,9.750121,-8.652325,9.503916,0.06710071,0.07765204,0.9777532,23.43261,6.282521,-29.7618,1006.089
2.023673058,9.933822,-9.075913,9.442753,0.06128277,0.07616811,0.9806734,23.43261,6.282521,-29.7618,1006.089
2.026150227,9.688888,-9.378477,9.565078,0.06180783,0.07130957,0.9840243,23.43261,6.282521,-29.7618,1006.089
2.031104088,9.933822,-9.983604,9.932053,0.0584363,0.06984876,0.9912754,23.81382,5.544693,-30.19358,1006.089
2.031104088,9.933822,-9.983604,9.932053,0.0584363,0.06984876,0.9912754,23.81382,5.544693,-30.19358,1006.089
2.033580780,9.443954,-10.16514,10.23787,0.06672733,0.06599732,0.991693,23.81382,5.544693,-30.19358,1006.089
2.036057949,9.443954,-10.28617,10.60484,0.07111689,0.06700671,0.9969835,23.81382,5.544693,-30.19358,1006.089
2.041012287,9.199019,-9.43899,10.78833,0.0730389,0.0797108,1.011036,23.81382,5.544693,-30.19358,1006.089
2.041012287,9.199019,-9.43899,10.78833,0.0730389,0.0797108,1.011036,23.81382,5.544693,-30.19358,1006.089
2.043488503,8.770386,-9.015401,11.09414,0.07499902,0.08266468,1.020211,23.81382,5.544693,-30.19358,1006.089
2.045966148,8.709152,-8.470787,11.21646,0.07448373,0.08313034,1.012494,23.81382,5.544693,-30.19358,1006.089
2.048442841,8.341751,-7.805147,11.1553,0.06961945,0.0894598,1.022689,23.81382,5.544693,-30.19358,1006.089
2.053396702,8.219284,-5.808228,11.03298,0.06321979,0.1050157,1.0257,23.81382,5.544693,-30.19358,1006.089
2.053396702,8.219284,-5.808228,11.03298,0.06321979,0.1050157,1.0257,23.81382,5.544693,-30.19358,1006.089
2.055873394,8.341751,-4.718999,10.78833,0.06371703,0.1030705,1.025687,23.81382,5.544693,-30.19358,1006.089
2.058350563,8.402985,-3.811309,10.60484,0.063228,0.1050216,1.028113,23.81382,5.544693,-30.19358,1006.089
2.060827255,8.586685,-3.145669,10.48252,0.0646613,0.1054996,1.021351,23.81382,5.544693,-30.19358,1006.089
2.065781117,9.015319,-2.237978,10.666,0.06805521,0.1035543,1.015047,23.81382,5.544693,-30.19358,1006.089
2.065781117,9.015319,-2.237978,10.666,0.06805521,0.1035543,1.015047,23.81382,5.544693,-30.19358,1006.089
2.068258286,9.260253,-2.116953,10.91065,0.07288358,0.1074655,1.011179,23.81382,5.544693,-30.19358,1006.089
2.070734978,9.566421,-2.177466,11.39995,0.07633104,0.1065362,1.022257,23.81382,5.544693,-30.19358,1006.089
2.075688839,9.627654,-1.874902,12.56204,0.08600915,0.1173071,1.025638,23.81382,5.544693,-30.19358,1006.089
2.075688839,9.627654,-1.874902,12.56204,0.08600915,0.1173071,1.025638,23.81382,5.544693,-30.19358,1006.089
2.078166485,9.688888,-1.753877,13.29599,0.08553159,0.1192663,1.031443,23.81957,5.177998,-30.1871,1006.089
2.080643177,9.811355,-1.572338,13.84645,0.07923181,0.1246273,1.046951,23.81957,5.177998,-30.1871,1006.089
2.083120346,9.872588,-1.14875,14.51924,0.07822044,0.1309499,1.046024,23.81957,5.177998,-30.1871,1006.089
2.088074207,10.11752,-0.846186,15.13086,0.07528454,0.1382551,1.052835,23.81957,5.177998,-30.1871,1006.089
2.088074207,10.11752,-0.846186,15.13086,0.07528454,0.1382551,1.052835,23.81957,5.177998,-30.1871,1006.089
2.090550900,10.42369,-0.6646479,15.19202,0.06596901,0.1469532,1.045208,23.81957,5.177998,-30.1871,1006.089
2.095504761,10.85232,-1.269775,15.13086,0.05719159,0.1478688,1.039951,23.81957,5.177998,-30.1871,1006.089
2.095504761,10.85232,-1.269775,15.13086,0.05719159,0.1478688,1.039951,23.81957,5.177998,-30.1871,1006.089
2.100458622,10.66862,-3.206182,15.49784,0.06594926,0.1425392,1.032153,23.81957,5.177998,-30.1871,1006.089
2.100458622,10.66862,-3.206182,15.49784,0.06594926,0.1425392,1.032153,23.81957,5.177998,-30.1871,1006.089
2.102936268,10.54616,-3.992847,15.92597,0.06646279,0.1347392,1.027283,23.81957,5.177998,-30.1871,1006.089
2.107889652,11.15849,-6.171304,16.84341,0.06067159,0.13083,1.034052,23.81957,5.177998,-30.1871,1006.089
2.110366821,11.09726,-7.078995,17.33271,0.06213003,0.1303483,1.033076,23.81957,5.177998,-30.1871,1006.089
2.112843990,10.91356,-8.107711,17.57736,0.06118471,0.1313406,1.04274,23.81957,5.177998,-30.1871,1006.089
2.115320683,10.60739,-9.136427,17.76085,0.06073223,0.1294068,1.04949,23.81957,5.177998,-30.1871,1006.089
2.117797375,10.30122,-9.862579,18.25015,0.05684435,0.1303663,1.05193,23.81957,5.177998,-30.1871,1006.089
2.120274544,9.872588,-10.10463,18.43363,0.05395318,0.1323259,1.063057,23.81957,5.177998,-30.1871,1006.089
2.122751236,9.321486,-10.10463,18.43363,0.04614681,0.134712,1.059734,23.81957,5.177998,-30.1871,1006.089
2.125228405,8.831619,-10.28617,18.06666,0.04274149,0.1395824,1.0675,23.81957,5.177998,-30.1871,1006.089
2.127705097,8.219284,-10.58873,17.69968,0.03690549,0.1366189,1.06269,23.83037,4.43739,-30.55416,1006.089
2.130182743,7.117082,-10.58873,17.27155,0.03250502,0.1360906,1.054989,23.83037,4.43739,-30.55416,1006.089
2.132658958,6.076113,-10.58873,16.65992,0.0320443,0.1312177,1.054483,23.83037,4.43739,-30.55416,1006.089
2.135136604,4.97391,-10.58873,16.35411,0.02672357,0.1263219,1.05497,23.83037,4.43739,-30.55416,1006.089
2.140090466,2.830739,-10.52822,15.80365,0.01454072,0.1247748,1.045375,23.83037,4.43739,-30.55416,1006.089
2.142567158,1.973471,-10.10463,15.31435,0.01358011,0.1267339,1.052148,23.83037,4.43739,-30.55416,1006.089
2.145044327,1.299902,-9.499503,14.5804,0.0125512,0.129133,1.039616,23.83037,4.43739,-30.55416,1006.089
2.147521019,0.5038673,-8.833863,13.78529,0.008629917,0.1266466,1.026593,23.83037,4.43739,-30.55416,1006.089
2.149998188,-0.3534013,-8.410274,13.17366,0.005204806,0.1241697,1.016462,23.83037,4.43739,-30.55416,1006.089
2.152474880,-1.39437,-8.107711,12.68436,0.006185086,0.1222247,1.015482,23.83037,4.43739,-30.55416,1006.089
2.154952526,-2.190405,-7.684122,12.07274,0.006618971,0.1236564,1.002454,23.83037,4.43739,-30.55416,1006.089
2.157428741,-2.741507,-7.684122,11.33879,0.004674139,0.1197357,0.99617,23.83037,4.43739,-30.55416,1006.089
2.159906387,-3.231374,-7.744634,10.78833,0.003647396,0.1211586,0.982668,23.83037,4.43739,-30.55416,1006.089
2.162383080,-3.537542,-8.168223,10.54368,0.006055512,0.1191989,0.9725084,23.83037,4.43739,-30.55416,1006.089
2.164860249,-3.966176,-8.410274,10.23787,0.009405802,0.1250444,0.9662454,23.83037,4.43739,-30.55416,1006.088
2.167336941,-4.517277,-8.954888,9.932053,0.01228722,0.1289443,0.9619056,23.83037,4.43739,-30.55416,1006.088
2.169813633,-5.007145,-9.499503,9.687403,0.01620294,0.1250714,0.9628296,23.83037,4.43739,-30.55416,1006.088
2.172290802,-5.190845,-10.28617,9.687403,0.02349072,0.1216819,0.9550493,23.83037,4.43739,-30.55416,1006.088
2.182198525,-4.149877,-11.25437,8.953453,0.04040657,0.1441826,0.9608645,23.84525,3.383986,-31.29583,1006.088
2.182198525,-4.149877,-11.25437,8.953453,0.04040657,0.1441826,0.9608645,23.84525,3.383986,-31.29583,1006.088
2.184675217,-4.39481,-11.61745,8.769966,0.03892412,0.1466026,0.957989,23.84525,3.383986,-31.29583,1006.088
2.187152863,-4.884678,-12.22257,8.464154,0.03401931,0.1475255,0.9474016,23.84525,3.383986,-31.29583,1006.088
2.192106724,-4.578511,-13.06975,8.097179,0.04523864,0.1397856,0.9444044,23.84525,3.383986,-31.29583,1006.088
2.192106724,-4.578511,-13.06975,8.097179,0.04523864,0.1397856,0.9444044,23.84525,3.383986,-31.29583,1006.088
2.194583416,-4.578511,-13.49334,8.280666,0.04720243,0.1329647,0.9385665,23.84525,3.383986,-31.29583,1006.088
2.197060585,-4.39481,-14.15898,8.464154,0.05300023,0.1398118,0.93857,23.84525,3.383986,-31.29583,1006.088
2.199537277,-3.904943,-14.52206,8.708804,0.05738591,0.1373963,0.9370855,23.84525,3.383986,-31.29583,1006.088
2.204491139,-3.904943,-15.49026,9.503916,0.06077497,0.141314,0.9390178,23.84525,3.383986,-31.29583,1006.085
2.204491139,-3.904943,-15.49026,9.503916,0.06077497,0.141314,0.9390178,23.84525,3.383986,-31.29583,1006.085
2.206968308,-3.660008,-16.03487,9.626241,0.06564093,0.1364524,0.931726,23.84525,3.383986,-31.29583,1006.085
2.209445000,-3.476308,-16.57949,9.809728,0.06614145,0.1359762,0.9350995,23.84525,3.383986,-31.29583,1006.085
2.211922646,-3.353841,-17.00308,10.1767,0.06420595,0.1345065,0.9355853,23.84525,3.383986,-31.29583,1006.085
2.216876507,-3.108907,-17.66872,11.33879,0.0622465,0.1393751,0.9394825,23.84525,3.383986,-31.29583,1006.085
2.216876507,-3.108907,-17.66872,11.33879,0.0622465,0.1393751,0.9394825,23.84525,3.383986,-31.29583,1006.085
2.219353199,-3.170141,-17.60821,12.07274,0.06082028,0.1379243,0.946723,23.84525,3.383986,-31.29583,1006.085
2.221830368,-3.170141,-17.36615,12.50088,0.05735713,0.1495976,0.9487326,23.84525,3.383986,-31.29583,1006.085
2.224307060,-3.170141,-16.82154,12.86785,0.05344368,0.1583608,0.9565219,23.84525,3.383986,-31.29583,1006.085
2.229260922,-3.353841,-15.24821,12.74553,0.05204965,0.153511,0.9676062,23.0976,3.734296,-31.74289,1006.085
2.229260922,-3.353841,-15.24821,12.74553,0.05204965,0.153511,0.9676062,23.0976,3.734296,-31.74289,1006.085
2.231738091,-3.537542,-14.34052,12.68436,0.05789158,0.15159,0.9661163,23.0976,3.734296,-31.74289,1006.085
2.234214783,-3.537542,-13.3118,12.74553,0.0554337,0.1515586,0.9584067,23.0976,3.734296,-31.74289,1006.085
2.236691475,-3.660008,-12.16206,12.86785,0.05933145,0.1520727,0.9612841,23.0976,3.734296,-31.74289,1006.085
2.241645336,-4.149877,-10.10463,13.23483,0.06130511,0.1467255,0.9607632,23.0976,3.734296,-31.74289,1006.085
2.241645336,-4.149877,-10.10463,13.23483,0.06130511,0.1467255,0.9607632,23.0976,3.734296,-31.74289,1006.085
2.244122982,-4.21111,-9.196939,13.41831,0.06126858,0.1520769,0.9588602,23.0976,3.734296,-31.74289,1006.086
2.246599197,-4.39481,-8.349761,13.78529,0.06128767,0.1501351,0.9612635,23.0976,3.734296,-31.74289,1006.086
2.249076843,-4.639744,-6.897457,14.45807,0.06228328,0.1501565,0.9680156,23.0976,3.734296,-31.74289,1006.086
2.254030705,-4.639744,-4.174385,15.25319,0.06223255,0.1559868,0.9627364,23.0976,3.734296,-31.74289,1006.086
2.256507397,-4.578511,-2.843105,15.74249,0.06273744,0.1550248,0.96659,23.0976,3.734296,-31.74289,1006.086
2.256507397,-4.578511,-2.843105,15.74249,0.06273744,0.1550248,0.96659,23.0976,3.734296,-31.74289,1006.086
2.261461258,-4.700978,-0.9066988,16.23179,0.05929931,0.1584051,0.9622822,23.0976,3.734296,-31.74289,1006.086
2.261461258,-4.700978,-0.9066988,16.23179,0.05929931,0.1584051,0.9622822,23.0976,3.734296,-31.74289,1006.086
2.263938427,-4.945911,-0.1200336,16.59876,0.05296284,0.1603177,0.9613613,23.0976,3.734296,-31.74289,1006.086
2.266415119,-5.068378,0.4245807,16.84341,0.04957492,0.1588452,0.9637857,23.0976,3.734296,-31.74289,1006.086
2.268892765,-5.252079,1.150733,17.21038,0.04861205,0.1559139,0.9618453,23.0976,3.734296,-31.74289,1006.086
2.273846626,-5.190845,2.300474,18.0055,0.04378755,0.1554276,0.972488,23.0976,3.734296,-31.74289,1006.086
2.273846626,-5.190845,2.300474,18.0055,0.04378755,0.1554276,0.972488,23.0976,3.734296,-31.74289,1006.086
2.276323319,-4.884678,2.845089,18.37247,0.04477496,0.1554432,0.9768268,23.0976,3.734296,-31.74289,1006.086
2.278800488,-4.700978,3.268678,18.55596,0.0399204,0.1544465,0.9778137,23.1091,3.000906,-31.72993,1006.086
2.281277180,-4.333577,3.873805,18.67828,0.03892596,0.1598035,0.98026,23.1091,3.000906,-31.72993,1006.086
2.286231041,-3.966176,5.144571,18.55596,0.03553704,0.1646856,0.9928532,23.1091,3.000906,-31.72993,1006.086
2.286231041,-3.966176,5.144571,18.55596,0.03553704,0.1646856,0.9928532,23.1091,3.000906,-31.72993,1006.086
2.288708210,-3.904943,5.689186,18.61712,0.03654521,0.1642272,1.002499,23.1091,3.000906,-31.72993,1006.086
2.291185856,-3.904943,5.991749,18.43363,0.03802329,0.1622929,1.004894,23.1091,3.000906,-31.72993,1006.086
2.293662548,-4.272344,6.475851,18.25015,0.03605669,0.1637342,1.001051,23.1091,3.000906,-31.72993,1006.086
2.298615456,-4.823445,6.89944,18.37247,0.03369547,0.1593721,1.014557,23.1091,3.000906,-31.72993,1006.086
2.298615456,-4.823445,6.89944,18.37247,0.03369547,0.1593721,1.014557,23.1091,3.000906,-31.72993,1006.086
2.301093102,-5.190845,6.717902,18.18898,0.03320803,0.158391,1.012623,23.1091,3.000906,-31.72993,1006.086
2.303569794,-5.497013,6.596876,18.37247,0.02635742,0.1632145,1.008342,23.1091,3.000906,-31.72993,1006.086
2.306046963,-5.61948,6.778414,18.18898,0.02442956,0.1612614,1.010273,23.1091,3.000906,-31.72993,1006.086
2.311000824,-5.986881,6.112775,18.06666,0.02681377,0.1685732,1.008367,23.1091,3.000906,-31.72993,1006.086
2.311000824,-5.986881,6.112775,18.06666,0.02681377,0.1685732,1.008367,23.1091,3.000906,-31.72993,1006.086
2.313477516,-6.048114,5.991749,17.88317,0.02733881,0.162248,1.009297,23.1091,3.000906,-31.72993,1006.086
2.315954685,-6.170581,5.870724,17.63852,0.02974099,0.1651728,1.005437,23.1091,3.000906,-31.72993,1006.086
2.320908547,-5.61948,4.720983,17.33271,0.03413211,0.1617835,1.003948,23.1091,3.000906,-31.72993,1006.086
2.320908547,-5.61948,4.720983,17.33271,0.03413211,0.1617835,1.003948,23.1091,3.000906,-31.72993,1006.086
2.323385239,-5.007145,4.539444,17.33271,0.03610798,0.1583932,1.007298,23.1091,3.000906,-31.72993,1006.085
2.325862885,-4.456044,4.055343,17.5162,0.03418449,0.1559544,1.009709,23.1091,3.000906,-31.72993,1006.085
2.328339100,-4.02741,3.631754,17.82201,0.03908002,0.1555138,1.018369,23.1091,3.000906,-31.72993,1006.085
2.333293438,-3.170141,3.510728,18.43363,0.05859499,0.1581029,1.040478,22.75089,2.271952,-31.27223,1006.085
2.333293438,-3.170141,3.510728,18.43363,0.05859499,0.1581029,1.040478,22.75089,2.271952,-31.27223,1006.085
2.335770607,-3.292608,3.934317,18.61712,0.05715135,0.1615285,1.05064,22.75089,2.271952,-31.27223,1006.085
2.338247299,-3.476308,4.539444,18.67828,0.05618807,0.1669078,1.062257,22.75089,2.271952,-31.27223,1006.085
2.340724468,-3.966176,5.023546,18.61712,0.05718202,0.1654614,1.066106,22.75089,2.271952,-31.27223,1006.085
2.345678330,-5.129612,6.89944,18.37247,0.05519096,0.1756849,1.069548,22.75089,2.271952,-31.27223,1006.085
2.345678330,-5.129612,6.89944,18.37247,0.05519096,0.1756849,1.069548,22.75089,2.271952,-31.27223,1006.085
2.348155022,-5.497013,7.746618,17.88317,0.05423139,0.1742226,1.070994,22.75089,2.271952,-31.27223,1006.085
2.350632668,-5.864414,8.654308,17.45503,0.04644518,0.1727122,1.067167,22.75089,2.271952,-31.27223,1006.085
2.355586529,-6.476748,10.40918,16.41527,0.03961957,0.1692427,1.056568,22.75089,2.271952,-31.27223,1006.085
2.355586529,-6.476748,10.40918,16.41527,0.03961957,0.1692427,1.056568,22.75089,2.271952,-31.27223,1006.085
2.358063221,-6.599215,11.13533,15.74249,0.03915393,0.1643663,1.054615,22.75089,2.271952,-31.27223,1006.085
2.360540390,-7.150316,11.67994,15.00854,0.03572169,0.1599289,1.039165,22.75089,2.271952,-31.27223,1006.085
2.363017082,-7.334017,11.92199,14.45807,0.04058276,0.1579969,1.035267,22.75089,2.271952,-31.27223,1006.085
2.367970944,-7.946352,12.95071,13.41831,0.04740668,0.158532,1.040542,22.75089,2.271952,-31.27223,1006.085
2.367970944,-7.946352,12.95071,13.41831,0.04740668,0.158532,1.040542,22.75089,2.271952,-31.27223,1006.085
2.370447636,-8.252519,13.13225,12.80669,0.04935842,0.149747,1.027936,22.75089,2.271952,-31.27223,1006.085
2.372924805,-8.61992,13.07174,12.50088,0.04888838,0.142423,1.020661,22.75089,2.271952,-31.27223,1006.085
2.375401497,-9.048554,12.8902,12.19506,0.04741304,0.145337,1.020684,22.75089,2.271952,-31.27223,1006.085
2.380355358,-9.354721,12.64815,10.91065,0.04489406,0.1521062,1.006253,23.12564,1.893603,-32.09051,1006.085
2.382833004,-9.354721,12.64815,10.23787,0.04784637,0.1462794,1.006689,23.12564,1.893603,-32.09051,1006.085
2.385309219,-9.354721,12.58763,9.626241,0.04980144,0.14043,0.9998907,23.12564,1.893603,-32.09051,1006.085
2.387786865,-9.415955,12.16405,9.136941,0.05907267,0.128767,0.9896439,23.12564,1.893603,-32.09051,1006.085
2.390263558,-9.232254,11.67994,8.892291,0.05904211,0.1321672,0.9862828,23.12564,1.893603,-32.09051,1006.085
2.392740727,-9.048554,11.31687,8.647641,0.06780145,0.1283054,0.9813882,23.12564,1.893603,-32.09051,1006.085
2.395217419,-9.293488,10.83277,8.464154,0.07948312,0.123973,0.9769579,23.12564,1.893603,-32.09051,1006.085
2.397694588,-9.354721,10.40918,8.402991,0.08283223,0.12444,0.9614963,23.12564,1.893603,-32.09051,1006.085
2.400171280,-9.171021,10.0461,8.464154,0.08625229,0.1181136,0.955653,23.12564,1.893603,-32.09051,1006.085
2.402648449,-9.048554,9.319948,8.647641,0.09064174,0.1132564,0.9512598,23.12564,1.893603,-32.09051,1006.085
2.405125141,-8.80362,8.654308,8.892291,0.09600227,0.1113364,0.9512206,23.12564,1.893603,-32.09051,1006.085
2.407602787,-8.558686,8.049181,9.198103,0.1008301,0.1132917,0.9439641,23.12564,1.893603,-32.09051,1006.085
2.410079002,-8.497453,7.14149,9.442753,0.1076005,0.1172106,0.9391204,23.12564,1.893603,-32.09051,1006.085
2.412556648,-8.374986,6.89944,9.932053,0.1100517,0.1113707,0.9352155,23.12564,1.893603,-32.09051,1006.085
2.415033341,-8.130052,6.2338,10.48252,0.1105031,0.1108594,0.9241089,23.12564,1.893603,-32.09051,1006.085
2.417510510,-7.701417,5.628673,10.84949,0.113885,0.1128165,0.9207215,23.12564,1.893603,-32.09051,1006.085
2.419987202,-7.334017,5.084059,11.21646,0.1148554,0.1108644,0.9168448,23.12564,1.893603,-32.09051,1006.085
2.422463894,-6.905383,4.539444,11.58344,0.1099594,0.1137491,0.9120596,23.12564,1.893603,-32.09051,1006.085
2.424941063,-6.231814,4.176368,11.88925,0.1046038,0.1171393,0.9159679,23.12564,1.893603,-32.09051,1006.085
2.427418232,-5.741947,3.813292,12.1339,0.1011924,0.1166277,0.9130878,23.12564,1.893603,-32.09051,1006.085
2.429894924,-5.252079,3.510728,12.19506,0.09825966,0.116602,0.9087596,23.12564,1.893603,-32.09051,1006.085
2.432371616,-4.700978,2.905602,12.19506,0.09969188,0.1175682,0.9024819,23.87893,1.175395,-31.70031,1006.085
2.434848786,-4.456044,2.482013,12.25623,0.1046026,0.1117608,0.9067693,23.87893,1.175395,-31.70031,1006.085
2.437325478,-4.149877,2.482013,12.50088,0.1119358,0.1079149,0.9115362,23.87893,1.175395,-31.70031,1006.085
2.439803124,-4.088643,2.603038,12.80669,0.1109833,0.1069466,0.9158806,23.87893,1.175395,-31.70031,1006.085
2.442279339,-3.904943,3.147652,12.92901,0.1173417,0.1055384,0.9240441,23.87893,1.175395,-31.70031,1006.085
2.444756985,-3.782475,3.692266,13.41831,0.1227552,0.1026786,0.9379974,23.87893,1.175395,-31.70031,1006.086
2.447234154,-3.537542,4.478932,13.84645,0.1217907,0.09974612,0.9355742,23.87893,1.175395,-31.70031,1006.086
2.449710846,-3.353841,5.265597,14.21342,0.1213076,0.1012126,0.9389632,23.87893,1.175395,-31.70031,1006.086
2.452187538,-3.231374,6.112775,14.33575,0.1169411,0.1016862,0.9428509,23.87893,1.175395,-31.70031,1006.086
2.454664707,-3.108907,7.020465,14.64156,0.1135292,0.1050853,0.9462658,23.87893,1.175395,-31.70031,1006.086
2.457141399,-3.170141,7.988668,14.94737,0.1188663,0.1114594,0.9530268,23.87893,1.175395,-31.70031,1006.086
2.459618569,-3.170141,8.956872,14.82505,0.1091267,0.1172662,0.9589021,23.87893,1.175395,-31.70031,1006.086
2.462095261,-3.047674,10.40918,14.64156,0.1115824,0.1168071,0.965161,23.87893,1.175395,-31.70031,1006.086
2.464572907,-2.61904,11.92199,14.51924,0.1072338,0.1114271,0.9646747,23.87893,1.175395,-31.70031,1006.086
2.467049122,-2.067938,13.31379,13.90761,0.1086661,0.1182598,0.9680806,23.87893,1.175395,-31.70031,1006.086
2.469526768,-1.639304,14.64507,13.54064,0.1072055,0.1211843,0.9724477,23.87893,1.175395,-31.70031,1006.086
2.472003460,-1.271903,15.73429,13.17366,0.11256,0.1226822,0.9762875,23.87893,1.175395,-31.70031,1006.086
2.474480629,-1.39437,16.64198,12.86785,0.1076815,0.1221572,0.971002,23.87893,1.175395,-31.70031,1006.086
2.476957321,-1.455604,17.06557,12.74553,0.1023689,0.1158007,0.9714811,23.87893,1.175395,-31.70031,1006.086
2.479434490,-1.516837,17.36814,12.56204,0.1077464,0.1158483,0.9796575,23.87893,1.175395,-31.70031,1006.086
2.481911183,-1.823005,17.30762,12.6232,0.1101879,0.1144012,0.9801193,23.1206,2.267516,-31.71697,1006.086
2.484388352,-2.190405,17.30762,12.50088,0.1170352,0.1125087,0.9882776,23.1206,2.267516,-31.71697,1006.085
2.489342690,-2.925207,17.12609,12.99018,0.1170554,0.1086121,0.987775,23.1206,2.267516,-31.71697,1006.085
2.489342690,-2.925207,17.12609,12.99018,0.1170554,0.1086121,0.987775,23.1206,2.267516,-31.71697,1006.085
2.491818905,-3.108907,16.82352,12.92901,0.1195171,0.1062018,0.9925758,23.1206,2.267516,-31.71697,1006.085
2.494295597,-3.537542,16.82352,12.80669,0.1180734,0.1081607,1.000317,23.1206,2.267516,-31.71697,1006.085
2.496773243,-3.660008,17.48916,12.50088,0.1127113,0.1115462,1.002294,23.1206,2.267516,-31.71697,1006.085
2.501727104,-3.598775,17.91275,12.25623,0.1156717,0.1013253,0.9978813,23.1206,2.267516,-31.71697,1006.085
2.501727104,-3.598775,17.91275,12.25623,0.1156717,0.1013253,0.9978813,23.1206,2.267516,-31.71697,1006.085
2.504203797,-3.904943,18.27583,12.31739,0.1151313,0.1027508,0.9843766,23.1206,2.267516,-31.71697,1006.085
2.506680966,-3.782475,17.73121,12.25623,0.1170886,0.1017917,0.9862916,23.1206,2.267516,-31.71697,1006.085
2.509157658,-3.537542,17.06557,12.19506,0.1214797,0.0969357,0.9823812,23.1206,2.267516,-31.71697,1006.085
2.514111519,-3.415075,15.37122,12.74553,0.1234087,0.09986732,0.9823857,23.1206,2.267516,-31.71697,1006.085
2.514111519,-3.415075,15.37122,12.74553,0.1234087,0.09986732,0.9823857,23.1206,2.267516,-31.71697,1006.085
2.516588688,-3.415075,14.40302,12.86785,0.1263332,0.09695385,0.9794587,23.1206,2.267516,-31.71697,1006.085
2.519065380,-3.721242,13.49532,13.23483,0.1302058,0.09989436,0.9789699,23.1206,2.267516,-31.71697,1006.085
2.524019241,-3.966176,11.86148,13.78529,0.1282529,0.1003677,0.9775351,23.1206,2.267516,-31.71697,1006.085
2.526496887,-4.149877,11.0143,14.15226,0.1360275,0.09747002,0.9707201,23.1206,2.267516,-31.71697,1006.085
2.528973580,-3.966176,10.0461,14.45807,0.1321293,0.09939992,0.9717166,23.1206,2.267516,-31.71697,1006.085
2.531450749,-4.21111,9.259436,14.64156,0.1325877,0.1008492,0.9659294,24.24371,1.546073,-31.70818,1006.085
2.533927441,-4.39481,8.23072,14.76389,0.1292025,0.09448981,0.9610887,24.24371,1.546073,-31.70818,1006.085
2.538881302,-4.272344,6.415338,15.13086,0.1287385,0.09401441,0.9668809,24.24371,1.546073,-31.70818,1006.085
2.538881302,-4.272344,6.415338,15.13086,0.1287385,0.09401441,0.9668809,24.24371,1.546073,-31.70818,1006.085
2.541358471,-4.39481,5.265597,15.559,0.1282511,0.09303336,0.9649477,24.24371,1.546073,-31.70818,1006.085
2.543835163,-4.517277,4.418419,15.74249,0.1243882,0.08569999,0.9610698,24.24371,1.546073,-31.70818,1006.085
2.546312809,-4.456044,3.813292,16.23179,0.1215139,0.08376063,0.9707291,24.24371,1.546073,-31.70818,1006.085
2.551266670,-4.21111,3.147652,16.35411,0.114664,0.09493989,0.9770989,24.24371,1.546073,-31.70818,1006.085
2.551266670,-4.21111,3.147652,16.35411,0.114664,0.09493989,0.9770989,24.24371,1.546073,-31.70818,1006.085
2.553743363,-4.272344,3.268678,16.41527,0.1117995,0.08860766,0.9823914,24.24371,1.546073,-31.70818,1006.085
2.556220532,-4.088643,3.631754,16.0483,0.1142481,0.09058786,0.9905937,24.24371,1.546073,-31.70818,1006.085
2.561174393,-3.721242,5.265597,15.68132,0.1080372,0.08183502,1.008925,24.24371,1.546073,-31.70818,1006.085
2.561174393,-3.721242,5.265597,15.68132,0.1080372,0.08183502,1.008925,24.24371,1.546073,-31.70818,1006.085
2.563651085,-3.292608,6.596876,15.37551,0.1051148,0.08230568,1.00846,24.24371,1.546073,-31.70818,1006.086
2.566127777,-3.047674,7.928156,15.13086,0.1051367,0.08574345,1.020545,24.24371,1.546073,-31.70818,1006.086
2.568604946,-3.353841,9.259436,14.82505,0.1055942,0.09208067,1.022506,24.24371,1.546073,-31.70818,1006.086
2.573558808,-4.02741,11.86148,13.96877,0.1076105,0.0882305,1.036955,24.24371,1.546073,-31.70818,1006.086
2.573558808,-4.02741,11.86148,13.96877,0.1076105,0.0882305,1.036955,24.24371,1.546073,-31.70818,1006.086
2.576035500,-4.21111,13.3743,13.78529,0.1100514,0.08336095,1.031607,24.24371,1.546073,-31.70818,1006.086
2.578513146,-4.333577,14.40302,13.54064,0.1110415,0.08142296,1.033523,24.24371,1.546073,-31.70818,1006.086
2.580989361,-4.639744,15.67378,13.05134,0.1111097,0.07658301,1.045564,24.24371,1.546073,-31.70818,1006.086
2.585943699,-4.639744,17.97326,12.6232,0.1105487,0.08728229,1.041278,24.60779,1.909535,-32.09606,1006.086
2.585943699,-4.639744,17.97326,12.6232,0.1105487,0.08728229,1.041278,24.60779,1.909535,-32.09606,1006.086
2.588420868,-5.007145,18.57839,12.19506,0.1047345,0.0833567,1.04129,24.60779,1.909535,-32.09606,1006.086
2.590897560,-5.252079,19.24403,11.95041,0.1032723,0.08481343,1.042753,24.60779,1.909535,-32.09606,1006.086
2.593374729,-5.80318,19.30454,11.39995,0.09789867,0.0881907,1.041352,24.60779,1.909535,-32.09606,1006.086
2.598328591,-6.782916,18.57839,10.48252,0.1017986,0.08626197,1.040838,24.60779,1.909535,-32.09606,1006.086
2.598328591,-6.782916,18.57839,10.48252,0.1017986,0.08626197,1.040838,24.60779,1.909535,-32.09606,1006.086
2.600805283,-7.272783,17.91275,10.05438,0.09498607,0.08280186,1.0341,24.60779,1.909535,-32.09606,1006.086
2.603282929,-7.334017,17.06557,9.626241,0.09647182,0.08185079,1.040362,24.60779,1.909535,-32.09606,1006.083
2.605759144,-7.517717,16.15788,9.381591,0.09985865,0.08234479,1.036002,24.60779,1.909535,-32.09606,1006.083
2.610713482,-8.191285,13.55584,8.831128,0.09593801,0.08621418,1.03363,24.60779,1.909535,-32.09606,1006.083
2.610713482,-8.191285,13.55584,8.831128,0.09593801,0.08621418,1.03363,24.60779,1.909535,-32.09606,1006.083
2.613190651,-8.681153,12.16405,8.097179,0.0988304,0.09256634,1.036543,24.60779,1.909535,-32.09606,1006.083
2.615667343,-8.987321,10.77225,7.546717,0.09640361,0.08815738,1.030741,24.60779,1.909535,-32.09606,1006.083
2.620621205,-9.293488,7.504567,6.201143,0.09833737,0.08375934,1.020089,24.60779,1.909535,-32.09606,1006.083
2.620621205,-9.293488,7.504567,6.201143,0.09833737,0.08375934,1.020089,24.60779,1.909535,-32.09606,1006.083
2.623098374,-9.538422,5.810211,5.650681,0.09828713,0.08567891,1.008515,24.60779,1.909535,-32.09606,1006.083
2.628052712,-9.599655,1.997911,4.549757,0.09925263,0.08225673,1.000769,24.60779,1.909535,-32.09606,1006.083
2.628052712,-9.599655,1.997911,4.549757,0.09925263,0.08225673,1.000769,24.60779,1.909535,-32.09606,1006.083
2.633006573,-9.722122,-1.511826,3.876969,0.100723,0.07493932,0.9920355,24.61508,1.558476,-31.26621,1006.083
2.633006573,-9.722122,-1.511826,3.876969,0.100723,0.07493932,0.9920355,24.61508,1.558476,-31.26621,1006.083
2.635483265,-9.599655,-3.145669,3.815807,0.1031218,0.07492846,0.9823686,24.61508,1.558476,-31.26621,1006.083
2.637960434,-9.599655,-4.840024,3.815807,0.109014,0.06815462,0.9876112,24.61508,1.558476,-31.26621,1006.083
2.640437126,-9.538422,-6.171304,3.876969,0.1119368,0.06523996,0.9842014,24.61508,1.558476,-31.26621,1006.083
2.645390988,-9.415955,-8.107711,3.938132,0.1138875,0.06134292,0.979344,24.61508,1.558476,-31.26621,1006.082
2.647867680,-9.354721,-8.773351,4.121619,0.1168356,0.06480165,0.993826,24.61508,1.558476,-31.26621,1006.082
2.650344849,-9.599655,-9.257452,4.305107,0.1187498,0.06772271,0.9894863,24.61508,1.558476,-31.26621,1006.082
2.652821541,-9.660889,-9.015401,4.366269,0.1153444,0.06672657,0.9875692,24.61508,1.558476,-31.26621,1006.082
2.655298710,-9.722122,-9.015401,4.305107,0.110473,0.0696288,0.9900241,24.61508,1.558476,-31.26621,1006.082
2.657775402,-9.171021,-8.289248,4.243944,0.1051802,0.06768622,1.003558,24.61508,1.558476,-31.26621,1006.082
2.660253048,-8.558686,-6.231817,4.060457,0.1262184,0.05615162,1.021243,24.61508,1.558476,-31.26621,1006.082
2.662729263,-9.232254,-5.384639,4.610919,0.137822,0.05371881,0.9970329,24.61508,1.558476,-31.26621,1006.082
2.665206909,-9.722122,-6.050279,4.855569,0.1227059,0.05605666,0.9894047,24.61508,1.558476,-31.26621,1006.082
2.667683602,-9.660889,-6.050279,4.488594,0.1217524,0.05704305,0.9966552,24.61508,1.558476,-31.26621,1006.082
2.670160771,-10.51816,-5.868741,4.549757,0.1178508,0.05750398,0.9942655,24.61508,1.558476,-31.26621,1006.082
2.672637463,-11.62036,-6.050279,4.794406,0.1110154,0.05842736,0.9880328,24.61508,1.558476,-31.26621,1006.082
2.675114632,-12.35516,-6.413355,5.039056,0.1120317,0.05210824,0.9904082,24.61508,1.558476,-31.26621,1006.082
2.677591324,-12.60009,-6.231817,5.528356,0.1096056,0.05405507,0.9952583,24.61508,1.558476,-31.26621,1006.082
2.682545185,-12.53886,-5.868741,6.078818,0.1115209,0.06088794,0.9976963,24.93216,0.8666668,-32.45888,1006.082
2.682545185,-12.53886,-5.868741,6.078818,0.1115209,0.06088794,0.9976963,24.93216,0.8666668,-32.45888,1006.082
2.685022831,-12.60009,-5.566177,6.13998,0.1183361,0.06239449,1.002011,24.93216,0.8666668,-32.45888,1006.083
2.687499046,-12.53886,-4.779512,6.201143,0.1154286,0.06434232,1.008312,24.93216,0.8666668,-32.45888,1006.083
2.689976692,-12.60009,-4.113872,6.078818,0.1154351,0.06581365,1.012663,24.93216,0.8666668,-32.45888,1006.083
2.692453385,-12.60009,-3.38772,5.956493,0.1120303,0.06677339,1.014135,24.93216,0.8666668,-32.45888,1006.083
2.694930554,-12.66133,-2.782593,5.773006,0.1130292,0.06533054,1.019431,24.93216,0.8666668,-32.45888,1006.083
2.697407246,-12.66133,-2.601054,5.711843,0.1091326,0.06726162,1.020911,24.93216,0.8666668,-32.45888,1006.083
2.699884415,-12.60009,-2.540542,5.834168,0.1076168,0.07356887,1.014677,24.93216,0.8666668,-32.45888,1006.083
2.702361107,-12.35516,-2.359004,6.13998,0.1022661,0.07402927,1.015191,24.93216,0.8666668,-32.45888,1006.083
2.704838276,-12.29393,-2.419516,6.262305,0.1047431,0.07211877,1.025304,24.93216,0.8666668,-32.45888,1006.083
2.707314968,-12.4164,-2.419516,6.38463,0.09646407,0.07500103,1.026812,24.93216,0.8666668,-32.45888,1006.083
2.709791660,-12.72256,-2.480029,6.506955,0.09060197,0.08081862,1.028805,24.93216,0.8666668,-32.45888,1006.083
2.712268830,-12.90626,-2.782593,6.201143,0.08915282,0.08081809,1.031709,24.93216,0.8666668,-32.45888,1006.083
2.714745522,-13.02873,-2.843105,6.13998,0.09063312,0.08084088,1.037976,24.93216,0.8666668,-32.45888,1006.083
2.719700337,-13.08996,-2.843105,5.650681,0.08772819,0.07643525,1.03459,24.93216,0.8666668,-32.45888,1006.083
2.719700337,-13.08996,-2.843105,5.650681,0.08772819,0.07643525,1.03459,24.93216,0.8666668,-32.45888,1006.083
2.722177029,-12.9675,-3.145669,5.467194,0.0853277,0.07644493,1.043774,24.93216,0.8666668,-32.45888,1006.083
2.724653721,-12.90626,-3.085156,5.283706,0.0834194,0.06717276,1.039393,24.93216,0.8666668,-32.45888,1006.082
2.729608059,-12.53886,-3.690283,4.916731,0.08145991,0.06910805,1.038448,24.93216,0.8666668,-32.45888,1006.082
2.729608059,-12.53886,-3.690283,4.916731,0.08145991,0.06910805,1.038448,24.93216,0.8666668,-32.45888,1006.082
2.732084751,-12.53886,-4.234898,4.549757,0.07660752,0.06713518,1.038465,24.93216,0.8666668,-32.45888,1006.082
2.734561443,-12.35516,-4.779512,4.305107,0.0707732,0.06710614,1.038979,24.2423,1.53164,-32.46821,1006.082
2.737038613,-12.53886,-5.384639,4.060457,0.07076114,0.06514204,1.032211,24.2423,1.53164,-32.46821,1006.082
2.741992951,-12.11023,-6.473867,3.14302,0.06437942,0.07337766,1.028427,24.2423,1.53164,-32.46821,1006.082
2.741992951,-12.11023,-6.473867,3.14302,0.06437942,0.07337766,1.028427,24.2423,1.53164,-32.46821,1006.082
2.744469166,-12.04899,-7.078995,2.531395,0.05467351,0.06698676,1.024103,24.2423,1.53164,-32.46821,1006.082
2.746946812,-11.74283,-7.684122,1.980933,0.05759305,0.06260313,1.017308,24.2423,1.53164,-32.46821,1006.082
2.749423504,-11.55913,-8.289248,1.797446,0.06001377,0.06309678,1.014883,24.2423,1.53164,-32.46821,1006.082
2.754377365,-11.13049,-9.378477,1.369309,0.06540485,0.0577765,1.018205,24.2423,1.53164,-32.46821,1006.082
2.754377365,-11.13049,-9.378477,1.369309,0.06540485,0.0577765,1.018205,24.2423,1.53164,-32.46821,1006.082
2.756854534,-10.76309,-9.862579,1.369309,0.06686001,0.05729244,1.016264,24.2423,1.53164,-32.46821,1006.082
2.759331227,-10.39569,-9.983604,1.491634,0.07363698,0.06121605,1.013351,24.2423,1.53164,-32.46821,1006.082
2.764285088,-10.45692,-10.16514,1.552796,0.08241931,0.0603039,1.020056,24.2423,1.53164,-32.46821,1006.082
2.764285088,-10.45692,-10.16514,1.552796,0.08241931,0.0603039,1.020056,24.2423,1.53164,-32.46821,1006.082
2.766762257,-10.45692,-9.681041,1.491634,0.08442301,0.05400036,1.02677,24.2423,1.53164,-32.46821,1006.082
2.769238949,-10.15076,-9.257452,1.613959,0.08777875,0.05887199,1.020502,24.2423,1.53164,-32.46821,1006.082
2.771716595,-9.905823,-8.470787,1.858608,0.08485154,0.06227238,1.023431,24.2423,1.53164,-32.46821,1006.082
2.776670456,-9.599655,-6.776431,1.858608,0.08094185,0.06712736,1.025891,24.2423,1.53164,-32.46821,1006.082
2.776670456,-9.599655,-6.776431,1.858608,0.08094185,0.06712736,1.025891,24.2423,1.53164,-32.46821,1006.082
2.779147148,-9.354721,-5.445152,1.736283,0.07994464,0.07003801,1.023498,24.2423,1.53164,-32.46821,1006.082
2.781624317,-8.742387,-4.658486,1.613959,0.07158862,0.07726512,1.009583,24.2423,1.53164,-32.46821,1006.082
2.784101010,-8.313752,-3.871821,1.491634,0.06865808,0.0777299,1.006706,24.25848,0.491467,-32.51319,1006.082
2.789054871,-7.334017,-2.05644,1.246984,0.05552767,0.07375132,1.000482,24.25848,0.491467,-32.51319,1006.082
2.789054871,-7.334017,-2.05644,1.246984,0.05552767,0.07375132,1.000482,24.25848,0.491467,-32.51319,1006.082
2.791532040,-6.905383,-1.330288,1.002334,0.05843641,0.07718193,1.00338,24.25848,0.491467,-32.51319,1006.082
