Time (s),Gyroscope X (deg/s),Gyroscope Y (deg/s),Gyroscope Z (deg/s),Accelerometer X (g),Accelerometer Y (g),Accelerometer Z (g),Magnetometer X (uT),Magnetometer Y (uT),Magnetometer Z (uT),Barometer (hPa)
0.000000000,3.259373,1.695347,0.08489711,-0.09313829,0.03691242,0.9861438,33.18714,7.56229,-22.65972,1005.13
0.002476215,2.830739,1.332271,0.3295469,-0.09070226,0.03790588,0.9890316,33.18714,7.56229,-22.65972,1005.131
0.004953861,2.340871,0.9691951,0.6353592,-0.0897111,0.03254654,0.9856199,33.18714,7.56229,-22.65972,1005.131
0.007430553,2.279638,0.7876569,0.8800091,-0.09021813,0.03595132,0.9851575,33.19206,7.187175,-23.09659,1005.131
0.009907722,2.340871,0.5456061,1.185821,-0.0936344,0.03983613,0.9880922,33.19206,7.187175,-23.09659,1005.131
0.012384415,2.463338,0.4850934,1.124659,-0.092213,0.04861652,0.9915083,33.19206,7.187175,-23.09659,1005.131
0.014861584,2.402105,0.4850934,0.9411715,-0.09515991,0.05053623,0.9862249,33.19206,7.187175,-23.09659,1005.131
0.017338276,2.463338,0.2430426,0.9411715,-0.09614947,0.05296348,0.9852774,33.19206,7.187175,-23.09659,1005.131
0.029723644,1.973471,-0.3015717,0.5130343,-0.09664115,0.06126797,0.9973897,33.19206,7.187175,-23.09659,1005.131
0.032200336,2.034704,-0.4225971,0.1460596,-0.09953242,0.05589436,0.9964125,33.19206,7.187175,-23.09659,1005.131
0.034677506,1.728537,-0.5436226,-0.03742781,-0.09659588,0.05494498,1.000253,33.19206,7.187175,-23.09659,1005.131
0.037154198,1.60607,-0.4831098,0.207222,-0.09899531,0.05299994,1.006531,33.19206,7.187175,-23.09659,1005.131
0.039631367,1.78977,-0.1200336,0.1460596,-0.09316698,0.05498018,1.007475,33.19206,7.187175,-23.09659,1005.131
0.042108059,1.912237,0.1220172,-0.09859026,-0.09657403,0.05398285,1.005075,33.19206,7.187175,-23.09659,1005.131
0.044585228,2.034704,0.2430426,-0.1597527,-0.1004946,0.06078552,1.007545,33.19206,7.187175,-23.09659,1005.131
0.047061920,1.973471,0.2430426,-0.1597527,-0.09610454,0.06081754,1.011382,33.19206,7.187175,-23.09659,1005.131
0.049539089,1.728537,0.3035553,-0.3432401,-0.0946243,0.05644043,1.010386,33.19206,7.187175,-23.09659,1005.131
0.052015781,1.60607,0.6666315,-0.5267274,-0.09606907,0.05742079,1.016191,33.19206,7.187175,-23.09659,1005.131
0.054493427,1.422369,0.9691951,-0.6490523,-0.09317622,0.05839568,1.010388,33.19206,7.187175,-23.09659,1005.131
0.056970596,1.238669,1.150733,-0.8937021,-0.09559422,0.05741511,1.01281,33.19206,7.187175,-23.09659,1005.131
0.059447289,1.177435,1.211246,-1.07719,-0.09606203,0.05351485,1.011827,33.19768,6.890015,-22.64784,1005.131
0.061924458,0.9325016,1.453297,-1.07719,-0.09756415,0.05592083,1.00316,33.19768,6.890015,-22.64784,1005.131
0.064401150,0.8712681,1.453297,-1.138352,-0.0951582,0.0549373,0.9939703,33.19768,6.890015,-22.64784,1005.131
0.066878319,1.054968,1.513809,-1.199515,-0.09949695,0.0524976,1.001222,33.19768,6.890015,-22.64784,1005.131
0.069355011,0.993735,1.392784,-1.07719,-0.09805106,0.05396241,0.9997732,33.19768,6.890015,-22.64784,1005.131
0.071832657,0.8712681,1.392784,-1.260677,-0.09318186,0.04763647,0.991026,33.19768,6.890015,-22.64784,1005.131
0.074308872,0.5651007,1.150733,-1.321839,-0.09516696,0.05444218,0.9905891,33.19768,6.890015,-22.64784,1005.131
0.076786518,0.4426338,0.7271442,-1.321839,-0.09272171,0.0505535,0.9881423,33.19768,6.890015,-22.64784,1005.131
0.079263210,0.2589334,0.4245807,-1.383002,-0.09174415,0.04909542,0.9871641,33.19768,6.890015,-22.64784,1005.131
0.081740379,0.3201669,0.0615045,-1.321839,-0.09172724,0.04666314,0.9881169,33.19768,6.890015,-22.64784,1005.131
0.084217072,0.1976999,0.0615045,-1.199515,-0.09028134,0.04812795,0.9866686,33.19768,6.890015,-22.64784,1005.128
0.086694241,0.2589334,-0.1805463,-1.260677,-0.08876342,0.04231115,0.9943532,33.19768,6.890015,-22.64784,1005.128
0.089170933,0.1976999,-0.3620844,-1.383002,-0.08827218,0.04231719,0.9957985,33.19768,6.890015,-22.64784,1005.128
0.091648102,0.1976999,-0.241059,-1.321839,-0.09263661,0.04034801,0.9962949,33.19768,6.890015,-22.64784,1005.128
0.094124794,-0.2309344,-0.3620844,-1.260677,-0.08967281,0.03452939,1.00011,33.19768,6.890015,-22.64784,1005.128
0.096601963,-0.1697009,-0.7251607,-0.8937021,-0.09013623,0.03161002,1.002028,33.19768,6.890015,-22.64784,1005.128
0.099078655,-0.3534013,-0.7856733,-0.6490523,-0.08624287,0.03114323,1.002005,33.19768,6.890015,-22.64784,1005.128
0.101556301,-0.8432691,-0.7251607,-0.6490523,-0.08575163,0.03114926,1.00345,33.19768,6.890015,-22.64784,1005.128
0.104032993,-1.21067,-0.4831098,-0.5267274,-0.09009092,0.02822029,1.009734,33.19768,6.890015,-22.64784,1005.128
0.106510162,-1.639304,-0.4225971,-0.4044026,-0.08769805,0.03016065,1.001525,33.19768,6.890015,-22.64784,1005.128
0.108986855,-1.884238,-0.3015717,-0.1597527,-0.08379375,0.03067943,1.006333,32.50853,7.562205,-22.27716,1005.128
0.111464024,-1.639304,-0.1805463,0.207222,-0.08233041,0.0287346,1.004384,32.50853,7.562205,-22.27716,1005.128
0.113940716,-1.516837,0.0615045,0.2683845,-0.07989717,0.02581509,1.000012,32.50853,7.562205,-22.27716,1005.128
0.116417885,-0.965736,0.1220172,0.3295469,-0.08381837,0.02919522,0.9966722,32.50853,7.562205,-22.27716,1005.128
0.118894577,-0.2309344,0.6061188,0.4518718,-0.08383089,0.03260838,0.9986204,32.50853,7.562205,-22.27716,1005.128
0.121371746,0.1976999,0.7876569,0.4518718,-0.08044896,0.03456549,0.9952332,32.50853,7.562205,-22.27716,1005.128
0.123848438,0.2589334,0.8481696,0.2683845,-0.0780031,0.03409936,0.9985961,32.50853,7.562205,-22.27716,1005.131
0.126326084,0.1976999,0.9691951,0.1460596,-0.08091994,0.03652943,1.002969,32.50853,7.562205,-22.27716,1005.131
0.128803253,0.2589334,1.029708,0.207222,-0.08091729,0.0316426,0.9957035,32.50853,7.562205,-22.27716,1005.131
0.131279945,0.2589334,1.029708,0.4518718,-0.08675765,0.02916489,0.9904132,32.50853,7.562205,-22.27716,1005.131
0.133756638,0.5038673,0.9691951,0.5741968,-0.080919,0.02724153,0.987958,32.50853,7.562205,-22.27716,1005.131
0.136233807,0.5651007,0.6666315,0.6965217,-0.0833599,0.02917782,0.988464,32.50853,7.562205,-22.27716,1005.131
0.138710976,0.8100346,0.7271442,0.9411715,-0.08141678,0.02869745,0.9870028,32.50853,7.562205,-22.27716,1005.131
0.141187668,0.8100346,0.6666315,0.8188466,-0.08385222,0.03112651,0.9899247,32.50853,7.562205,-22.27716,1005.131
0.143665314,0.6875677,0.4245807,1.124659,-0.08436035,0.03501939,0.9899476,32.50853,7.562205,-22.27716,1005.131
0.146141529,0.4426338,0.3035553,1.246984,-0.08872966,0.03451334,0.9914168,32.50853,7.562205,-22.27716,1005.131
0.148619175,0.1976999,0.0615045,1.246984,-0.09022027,0.03986078,0.9909698,32.50853,7.562205,-22.27716,1005.131
0.151095867,-0.1697009,0.0009917939,1.430471,-0.08587871,0.04768008,0.9933996,32.50853,7.562205,-22.27716,1005.131
0.153573036,-0.4146348,-0.3620844,1.491634,-0.08879507,0.04619952,0.9914771,32.50853,7.562205,-22.27716,1005.131
0.156049728,-0.6595686,-0.3620844,1.308146,-0.09023878,0.04375852,0.9919553,32.50853,7.562205,-22.27716,1005.131
0.158526897,-0.6595686,-0.1805463,1.246984,-0.08830548,0.04473775,0.990019,33.19839,6.897232,-22.26782,1005.131
0.161003590,-0.9045025,-0.4831098,1.369309,-0.09363218,0.0417932,0.9919637,33.19839,6.897232,-22.26782,1005.131
0.163480759,-1.21067,-0.6041352,1.430471,-0.09264811,0.03887318,0.9904953,33.19839,6.897232,-22.26782,1005.131
0.165957451,-1.088203,-0.6646479,1.491634,-0.09413868,0.04568725,0.9924693,33.19839,6.897232,-22.26782,1005.131
0.168434620,-1.149436,-0.846186,1.430471,-0.09559712,0.04616897,0.993445,33.19839,6.897232,-22.26782,1005.131
0.170911312,-1.516837,-0.9672114,1.369309,-0.09854235,0.05102311,0.993486,33.19839,6.897232,-22.26782,1005.131
0.173388958,-1.945472,-1.027724,1.308146,-0.09464677,0.05251339,0.9973338,33.19839,6.897232,-22.26782,1005.131
0.175865650,-2.496573,-1.209262,1.430471,-0.1004784,0.05199745,0.9978458,33.19839,6.897232,-22.26782,1005.131
0.178342819,-3.047674,-1.14875,1.063496,-0.1014401,0.05151135,1.000262,33.19839,6.897232,-22.26782,1005.131
0.180819511,-3.415075,-1.209262,1.124659,-0.09706694,0.05250901,1.000726,33.19839,6.897232,-22.26782,1005.131
0.183296680,-3.660008,-1.269775,1.124659,-0.09511454,0.05154641,1.001193,33.19839,6.897232,-22.26782,1005.131
0.185773373,-3.904943,-1.269775,0.8188466,-0.09461677,0.04862386,0.999727,33.19839,6.897232,-22.26782,1005.131
0.188250542,-4.149877,-1.330288,0.8188466,-0.09851556,0.05153113,1.002177,33.19839,6.897232,-22.26782,1005.131
0.190727234,-4.088643,-1.14875,0.6353592,-0.1009385,0.04908041,1.000729,33.19839,6.897232,-22.26782,1005.131
0.193204403,-4.088643,-0.846186,0.5130343,-0.1009161,0.04567428,1.001677,33.19839,6.897232,-22.26782,1005.131
0.195681095,-4.333577,-0.6041352,0.4518718,-0.09900133,0.05201789,1.003147,33.19839,6.897232,-22.26782,1005.131
0.198158741,-4.456044,-0.4225971,0.5130343,-0.09319215,0.0530067,0.9968457,33.19839,6.897232,-22.26782,1005.131
0.200635433,-4.456044,-0.3620844,0.5741968,-0.09610525,0.05006185,0.9934678,33.19839,6.897232,-22.26782,1005.131
0.203112602,-4.21111,-0.1200336,0.3295469,-0.1019221,0.04955644,0.9983239,33.19839,6.897232,-22.26782,1005.134
0.205589294,-3.966176,-0.1200336,0.1460596,-0.09998277,0.05005109,0.9973503,33.19839,6.897232,-22.26782,1005.134
0.208066464,-3.782475,0.1220172,-0.09859026,-0.0912703,0.05544436,0.9939516,33.19839,6.897232,-22.26782,1005.134
0.213020325,-1.088203,0.6061188,-0.8937021,-0.093227,0.06129262,1.000267,33.19289,7.195595,-22.65324,1005.134
0.213020325,-1.088203,0.6061188,-0.8937021,-0.093227,0.06129262,1.000267,33.19289,7.195595,-22.65324,1005.134
0.215497971,-1.088203,1.150733,-1.444164,-0.09761758,0.06370459,1.000304,33.19289,7.195595,-22.65324,1005.134
0.217974186,-2.80274,1.150733,-1.994627,-0.09417689,0.04957093,0.9876626,33.19289,7.195595,-22.65324,1005.134
0.220451832,-3.292608,0.6061188,-1.933464,-0.09698863,0.02763251,0.9827385,33.19289,7.195595,-22.65324,1005.134
0.222928524,-3.231374,0.364068,-1.199515,-0.101781,0.02081384,0.9923834,33.19289,7.195595,-22.65324,1005.134
0.227882385,-4.762211,-0.9672114,-0.8325397,-0.1296988,0.03617345,0.9602755,33.19289,7.195595,-22.65324,1005.134
0.227882385,-4.762211,-0.9672114,-0.8325397,-0.1296988,0.03617345,0.9602755,33.19289,7.195595,-22.65324,1005.134
0.232836247,-3.598775,-2.298491,-0.8325397,-0.05158897,0.02554445,1.028816,33.19289,7.195595,-22.65324,1005.134
0.235313416,-4.517277,0.0615045,0.3907094,-0.06585599,0.05615356,1.031465,33.19289,7.195595,-22.65324,1005.134
0.237790108,-5.497013,1.271759,0.2683845,-0.09618042,0.06614091,0.9978949,33.19289,7.195595,-22.65324,1005.134
0.240267277,-6.048114,0.9691951,-0.5878899,-0.09762322,0.05294538,0.9809412,33.19289,7.195595,-22.65324,1005.134
0.242743969,-5.741947,0.2430426,-1.138352,-0.08628931,0.03208778,0.989943,33.19289,7.195595,-22.65324,1005.131
0.245221615,-4.39481,0.364068,-0.9548646,-0.07793833,0.017524,0.9903051,33.19289,7.195595,-22.65324,1005.131
0.247698307,-2.925207,0.9691951,-0.5878899,-0.07551372,0.02144253,0.9946562,33.19289,7.195595,-22.65324,1005.131
0.250175476,-1.884238,1.75586,-0.09859026,-0.07795343,0.03022388,1.006781,33.19289,7.195595,-22.65324,1005.131
0.252652168,-1.455604,1.876886,-0.2820776,-0.09836949,0.02572531,1.002526,33.19289,7.195595,-22.65324,1005.131
0.255129337,-0.4758682,1.453297,-0.7713773,-0.1124807,0.02320246,0.9963155,33.19289,7.195595,-22.65324,1005.131
0.257606030,0.3814003,1.332271,-0.8325397,-0.08912496,0.01942084,0.9932722,33.19289,7.195595,-22.65324,1005.131
0.260083199,0.6875677,1.513809,-0.2209152,-0.07741696,0.02097366,1.006248,33.19839,6.897232,-22.26782,1005.131
0.262559891,0.4426338,1.634835,0.5130343,-0.09061973,0.03845374,1.014133,33.19839,6.897232,-22.26782,1005.131
0.265037060,-0.3534013,2.118936,0.7576842,-0.09364455,0.05547279,1.010859,33.19839,6.897232,-22.26782,1005.131
0.267513752,-1.149436,1.75586,0.4518718,-0.09996134,0.05739948,1.01573,33.19839,6.897232,-22.26782,1005.131
0.269991398,-2.067938,1.513809,-0.03742781,-0.09364945,0.0569359,1.011831,33.19839,6.897232,-22.26782,1005.131
0.272468090,-2.61904,1.332271,-0.09859026,-0.09558447,0.05155561,1.006022,33.19839,6.897232,-22.26782,1005.131
0.274945259,-2.435339,1.453297,-0.03742781,-0.09409608,0.04425108,1.002598,33.19839,6.897232,-22.26782,1005.131
0.277421951,-2.190405,1.513809,0.08489711,-0.09462558,0.04519547,0.9915039,33.19839,6.897232,-22.26782,1005.131
0.279899120,-1.884238,1.513809,-0.03742781,-0.0946452,0.04811468,0.9905537,33.19839,6.897232,-22.26782,1005.131
0.282375813,-1.21067,1.392784,-0.09859026,-0.09558837,0.0466641,0.9968263,33.19839,6.897232,-22.26782,1005.134
0.284852982,-0.9045025,1.75586,-0.2820776,-0.08925734,0.04719194,1.000173,33.19839,6.897232,-22.26782,1005.134
0.287330151,-0.5371017,2.058424,-0.2209152,-0.08725532,0.03795396,1.001563,33.19839,6.897232,-22.26782,1005.134
0.289806843,-0.2309344,2.300474,-0.2820776,-0.09215074,0.04572779,1.005008,33.19839,6.897232,-22.26782,1005.134
0.292284489,0.3814003,2.300474,-0.6490523,-0.09021524,0.04719746,1.004522,33.19839,6.897232,-22.26782,1005.134
0.294761181,0.7488011,2.724063,-0.7713773,-0.09020327,0.04329503,1.001606,33.19839,6.897232,-22.26782,1005.134
0.297238350,1.177435,3.08714,-0.8937021,-0.08974148,0.04767987,1.001626,33.19839,6.897232,-22.26782,1005.134
0.299715042,1.483603,3.32919,-0.8325397,-0.08827271,0.04329455,0.9972516,33.19839,6.897232,-22.26782,1005.134
0.302192211,1.851004,3.510728,-1.016027,-0.09073709,0.04765843,0.9948742,33.19839,6.897232,-22.26782,1005.134
0.304668903,2.095937,3.510728,-1.383002,-0.09316547,0.04618156,0.9934317,33.19839,6.897232,-22.26782,1005.134
0.307146072,1.973471,3.571241,-1.260677,-0.09558188,0.04226889,0.9914941,33.19839,6.897232,-22.26782,1005.134
0.309622765,1.912237,3.571241,-1.07719,-0.09899549,0.04126688,0.9871636,33.5681,6.892795,-22.71256,1005.134
0.312099934,1.728537,3.268678,-1.016027,-0.1004818,0.0431953,0.9823549,33.5681,6.892795,-22.71256,1005.134
0.314576626,1.483603,3.08714,-0.8325397,-0.1010031,0.04267891,0.9712535,33.5681,6.892795,-22.71256,1005.134
0.317054272,1.238669,2.905602,-0.8325397,-0.09858555,0.04903675,0.9775477,33.5681,6.892795,-22.71256,1005.134
0.319530964,1.054968,2.724063,-0.8937021,-0.09419822,0.04808907,0.9789668,33.5681,6.892795,-22.71256,1005.134
0.322008133,0.993735,2.603038,-0.8937021,-0.09613919,0.04612661,0.9770367,33.5681,6.892795,-22.71256,1005.133
0.324484825,0.8712681,2.300474,-0.7713773,-0.09710208,0.04172871,0.9726752,33.5681,6.892795,-22.71256,1005.133
0.326961994,0.7488011,2.058424,-0.8325397,-0.0956491,0.04222084,0.9717045,33.5681,6.892795,-22.71256,1005.133
0.329438686,0.7488011,2.058424,-0.6490523,-0.09467425,0.04271632,0.9731497,33.5681,6.892795,-22.71256,1005.133
0.331915855,0.993735,1.876886,-0.6490523,-0.09953214,0.03878403,0.9683293,33.5681,6.892795,-22.71256,1005.133
0.334392548,1.177435,1.75586,-0.6490523,-0.09903108,0.03733047,0.9702499,33.5681,6.892795,-22.71256,1005.133
0.336869717,1.483603,1.513809,-0.3432401,-0.09562949,0.03783501,0.9702339,33.5681,6.892795,-22.71256,1005.133
0.339346409,1.667303,1.029708,-0.2209152,-0.09462467,0.03297431,0.9716514,33.5681,6.892795,-22.71256,1005.133
0.341824055,1.851004,0.9086823,-0.2209152,-0.09509897,0.03346927,0.9760007,33.5681,6.892795,-22.71256,1005.133
0.344300747,1.667303,0.7876569,-0.03742781,-0.1004758,0.03831083,0.976055,33.5681,6.892795,-22.71256,1005.133
0.346777916,1.299902,0.6061188,0.02373465,-0.09944808,0.0319999,0.9818091,33.5681,6.892795,-22.71256,1005.133
0.349255085,0.8712681,0.4850934,0.207222,-0.09702403,0.03542916,0.9851921,33.5681,6.892795,-22.71256,1005.133
0.351731777,0.2589334,0.4850934,0.3907094,-0.09751089,0.03640401,0.9866479,33.5681,6.892795,-22.71256,1005.133
0.354208946,-0.2309344,0.1825299,0.5130343,-0.09944639,0.03493434,0.9871335,33.5681,6.892795,-22.71256,1005.133
0.356685639,-0.5983351,0.1825299,0.8188466,-0.1014289,0.03538659,0.9770105,33.5681,6.892795,-22.71256,1005.133
0.359162808,-0.7208021,0.1825299,1.063496,-0.1033671,0.03587048,0.9799196,33.5681,6.892795,-22.71256,1005.133
0.361639500,-0.7820356,0.0615045,1.063496,-0.1014245,0.0378341,0.9823325,32.88552,7.20671,-21.89205,1005.133
0.364117146,-0.5371017,0.1825299,1.002334,-0.1024472,0.04854844,0.9852892,32.88552,7.20671,-21.89205,1005.136
0.366593838,-0.2309344,0.1220172,0.8800091,-0.09662269,0.05297033,0.9891413,32.88552,7.20671,-21.89205,1005.136
0.369071007,0.1976999,0.3035553,0.7576842,-0.09662761,0.05296682,0.9876934,32.88552,7.20671,-21.89205,1005.136
0.371547699,0.2589334,0.4850934,0.5741968,-0.09856033,0.05394349,0.9930185,32.88552,7.20671,-21.89205,1005.136
0.374024868,0.1364664,0.5456061,0.4518718,-0.09904884,0.05491716,0.9939915,32.88552,7.20671,-21.89205,1005.136
0.376501560,0.0139995,0.5456061,0.5741968,-0.1014865,0.05392253,0.990621,32.88552,7.20671,-21.89205,1005.136
0.378978729,-0.1084674,0.4850934,0.4518718,-0.1053919,0.05389185,0.9862981,32.88552,7.20671,-21.89205,1005.136
0.381455422,-0.3534013,0.364068,0.5741968,-0.1053968,0.0524217,0.9824291,32.88552,7.20671,-21.89205,1005.136
0.383932591,-0.5983351,0.3035553,0.4518718,-0.09810403,0.05636891,0.9882016,32.88552,7.20671,-21.89205,1005.136
0.386409283,-0.4758682,0.364068,0.3907094,-0.1000466,0.05440529,0.9857888,32.88552,7.20671,-21.89205,1005.136
0.388886929,-0.1697009,0.2430426,0.3295469,-0.1015154,0.05585734,0.9853216,32.88552,7.20671,-21.89205,1005.136
0.391363621,0.1364664,0.1220172,0.207222,-0.09515603,0.05396111,0.993,32.88552,7.20671,-21.89205,1005.136
0.393840790,0.5651007,0.0615045,-0.09859026,-0.09952644,0.05394315,0.9949546,32.88552,7.20671,-21.89205,1005.136
0.396317482,1.238669,0.364068,-0.2209152,-0.09710079,0.05444031,0.9939784,32.88552,7.20671,-21.89205,1005.136
0.398794651,1.667303,0.5456061,-0.3432401,-0.09513204,0.05055615,0.9944304,32.88552,7.20671,-21.89205,1005.136
0.401271343,1.973471,0.5456061,-0.3432401,-0.09562328,0.05055012,0.992985,32.88552,7.20671,-21.89205,1005.136
0.403748512,2.218405,0.6061188,-0.5878899,-0.09175228,0.05348946,0.9920135,32.88552,7.20671,-21.89205,1005.137
0.406225205,2.340871,0.7876569,-0.5878899,-0.09898669,0.04469527,0.9953867,32.88552,7.20671,-21.89205,1005.137
0.408702374,2.463338,0.6061188,-0.3432401,-0.09655996,0.04470433,0.9939254,32.88552,7.20671,-21.89205,1005.137
0.411179066,2.279638,0.6666315,-0.3432401,-0.09803806,0.04663862,0.99153,33.56413,7.206795,-22.27461,1005.137
0.413656712,2.340871,0.4245807,-0.4044026,-0.09560476,0.04665238,0.9919995,33.56413,7.206795,-22.27461,1005.137
0.416133881,2.524572,0.1220172,-0.3432401,-0.09367415,0.04958517,0.9924867,33.56413,7.206795,-22.27461,1005.137
0.418610573,2.279638,0.4850934,-0.2820776,-0.09563258,0.05103236,0.9910569,33.56413,7.206795,-22.27461,1005.137
0.421087742,2.463338,0.3035553,-0.465565,-0.09372159,0.05688434,0.9905937,33.56413,7.206795,-22.27461,1005.137
0.423564434,2.708272,0.2430426,-0.5878899,-0.08832724,0.05156641,0.994881,33.56413,7.206795,-22.27461,1005.137
0.426041603,2.769506,0.364068,-0.7713773,-0.09561837,0.05055363,0.994433,33.56413,7.206795,-22.27461,1005.137
0.428518295,2.647039,0.2430426,-0.8937021,-0.09366873,0.04714468,0.9900607,33.56413,7.206795,-22.27461,1005.137
0.430995464,2.585805,0.0009917939,-0.8937021,-0.09269337,0.04519616,0.987632,33.56413,7.206795,-22.27461,1005.137
0.433472157,2.647039,0.0009917939,-0.8937021,-0.09756758,0.04565206,0.9852476,33.56413,7.206795,-22.27461,1005.137
0.435949803,2.463338,-0.3015717,-0.7713773,-0.09753537,0.0437196,0.9915122,33.56413,7.206795,-22.27461,1005.137
0.438426495,2.340871,-0.1200336,-0.8325397,-0.09556602,0.04325797,0.9977739,33.56413,7.206795,-22.27461,1005.137
0.440903664,1.973471,-0.1805463,-0.7713773,-0.09414414,0.0466611,0.9924743,33.56413,7.206795,-22.27461,1005.137
0.443380833,1.60607,-0.241059,-0.5878899,-0.08826943,0.04329689,0.998217,33.56413,7.206795,-22.27461,1005.14
0.445857525,1.60607,-0.1805463,-0.5267274,-0.09068529,0.03987349,0.9972472,33.56413,7.206795,-22.27461,1005.14
0.448334217,1.361136,0.0009917939,-0.5878899,-0.08872902,0.04086913,1.002068,33.56413,7.206795,-22.27461,1005.14
0.450811386,1.483603,-0.241059,-0.5878899,-0.089229,0.0418346,0.9996626,33.56413,7.206795,-22.27461,1005.14
0.453288078,1.60607,0.3035553,-0.6490523,-0.08438046,0.04184923,0.9952921,33.56413,7.206795,-22.27461,1005.14
0.455765247,1.912237,0.4850934,-0.7713773,-0.08727336,0.03794107,0.9962533,33.56413,7.206795,-22.27461,1005.14
0.458241940,2.340871,0.5456061,-0.6490523,-0.08678922,0.03745315,0.9948002,33.56413,7.206795,-22.27461,1005.14
0.460719586,2.585805,0.9691951,-0.7102148,-0.08728318,0.03940068,0.9957781,33.55909,7.580707,-21.90107,1005.14
0.463196278,2.953206,0.9691951,-0.7713773,-0.08726359,0.03354821,0.9918866,33.55909,7.580707,-21.90107,1005.14
0.465673447,3.136906,0.9691951,-0.6490523,-0.08627509,0.03307569,0.9957402,33.55909,7.580707,-21.90107,1005.14
0.468150139,3.19814,0.9691951,-0.7102148,-0.08436029,0.03795266,0.9947894,33.55909,7.580707,-21.90107,1005.14
0.470627308,3.075673,1.029708,-0.7713773,-0.08534605,0.03940488,0.9933541,33.55909,7.580707,-21.90107,1005.14
0.473104000,3.19814,1.392784,-0.6490523,-0.08728378,0.03597814,0.9899685,33.55909,7.580707,-21.90107,1005.14
0.475581169,2.891973,1.271759,-0.7102148,-0.08779848,0.0383997,0.9856395,33.55909,7.580707,-21.90107,1005.14
0.478057861,2.769506,0.9086823,-0.5267274,-0.0863291,0.03890355,0.9894955,33.55909,7.580707,-21.90107,1005.14
0.480535030,2.647039,0.7876569,-0.2820776,-0.09119242,0.03741175,0.9871011,33.55909,7.580707,-21.90107,1005.14
0.483012676,2.585805,0.7271442,-0.09859026,-0.09122404,0.04276675,0.9866462,33.55909,7.580707,-21.90107,1005.139
0.485489369,2.340871,0.4245807,-0.1597527,-0.08782356,0.04229275,0.9846943,33.55909,7.580707,-21.90107,1005.139
0.487966538,2.279638,0.2430426,-0.2209152,-0.09266991,0.04276857,0.9905155,33.55909,7.580707,-21.90107,1005.139
0.490443230,2.034704,0.1220172,-0.2820776,-0.09124035,0.04862156,0.991503,33.55909,7.580707,-21.90107,1005.139
0.492920399,1.912237,0.0615045,-0.4044026,-0.08877216,0.04328266,0.9933928,33.55909,7.580707,-21.90107,1005.139
0.495397091,1.60607,0.1825299,-0.3432401,-0.09312455,0.04181095,0.9982359,33.55909,7.580707,-21.90107,1005.139
0.497874260,1.361136,-0.1805463,-0.2820776,-0.09072893,0.04473102,0.9924457,33.55909,7.580707,-21.90107,1005.139
0.502828121,1.054968,0.1220172,-0.2820776,-0.08920067,0.03647726,0.9991524,33.55909,7.580707,-21.90107,1005.139
0.505304814,0.8712681,-0.05952091,-0.2820776,-0.09504209,0.03595428,0.9967683,33.55909,7.580707,-21.90107,1005.139
0.507782459,0.7488011,0.1220172,0.02373465,-0.09069406,0.03791174,0.991445,33.55909,7.580707,-21.90107,1005.139
0.510259152,0.993735,-0.05952091,0.1460596,-0.09260612,0.03254784,0.9923934,33.55909,7.580707,-21.90107,1005.139
0.512736321,0.993735,0.0009917939,0.1460596,-0.09020877,0.04133562,0.9967695,33.1936,7.202812,-22.27322,1005.139
0.515213013,0.6875677,0.0009917939,0.2683845,-0.08972512,0.04475832,1.001611,33.1936,7.202812,-22.27322,1005.139
0.517690182,0.5038673,0.1220172,0.1460596,-0.09361088,0.04180843,0.9982386,33.1936,7.202812,-22.27322,1005.139
0.520166874,0.3814003,0.0009917939,0.207222,-0.09021197,0.04573317,1.003067,33.1936,7.202812,-22.27322,1005.139
0.522644043,0.2589334,0.0009917939,0.3295469,-0.09218837,0.05156736,1.00359,33.1936,7.202812,-22.27322,1005.136
0.525120735,0.1976999,0.1220172,0.08489711,-0.09269984,0.05105801,0.9953849,33.1936,7.202812,-22.27322,1005.136
0.527597904,0.5038673,0.1220172,-0.03742781,-0.09515444,0.05102902,0.9886408,33.1936,7.202812,-22.27322,1005.136
0.530074597,0.6875677,0.0615045,0.1460596,-0.09417303,0.05152918,0.9920167,33.1936,7.202812,-22.27322,1005.136
0.532552242,0.993735,-0.05952091,0.08489711,-0.09561618,0.05104408,0.9958836,33.1936,7.202812,-22.27322,1005.136
0.535028935,1.361136,-0.1805463,0.1460596,-0.09608065,0.05007943,1.000708,33.1936,7.202812,-22.27322,1005.136
0.537506104,1.422369,0.0009917939,0.02373465,-0.09364028,0.0491205,1.001655,33.1936,7.202812,-22.27322,1005.136
0.539982796,1.116202,-0.1200336,-0.09859026,-0.09753364,0.0495873,1.001679,33.1936,7.202812,-22.27322,1005.136
0.542459965,0.5651007,-0.241059,-0.2209152,-0.09703475,0.04910992,1.00457,33.1936,7.202812,-22.27322,1005.136
0.544936657,0.1364664,-0.4831098,-0.1597527,-0.09656205,0.05154706,1.004579,33.1936,7.202812,-22.27322,1005.136
0.547413826,-0.4146348,-0.6041352,-0.1597527,-0.09704678,0.04861245,1.000223,33.1936,7.202812,-22.27322,1005.136
0.549890995,-1.088203,-0.4225971,-0.09859026,-0.09655551,0.05008512,1.004089,33.1936,7.202812,-22.27322,1005.136
0.552367687,-1.578071,-0.6646479,0.1460596,-0.09312934,0.05060723,1.011313,33.1936,7.202812,-22.27322,1005.136
0.554845333,-1.884238,-0.7251607,0.1460596,-0.09119827,0.04816276,1.003085,33.1936,7.202812,-22.27322,1005.136
0.557322025,-1.700538,-0.5436226,-0.03742781,-0.09170537,0.04716764,0.9953595,33.1936,7.202812,-22.27322,1005.136
0.559799194,-1.578071,-0.3015717,0.207222,-0.09410433,0.04131196,0.9953426,33.1936,7.202812,-22.27322,1005.136
0.562275887,-0.9045025,-0.5436226,0.1460596,-0.09217919,0.04375197,0.9934139,32.87906,7.566187,-22.27855,1005.135
0.564753056,-0.3534013,-0.4831098,0.2683845,-0.09217589,0.04522094,0.9968002,32.87906,7.566187,-22.27855,1005.135
0.567229748,0.07523298,-0.3015717,0.2683845,-0.08386455,0.04627273,1.01124,32.87906,7.566187,-22.27855,1005.135
0.569706917,-0.1697009,0.1220172,0.2683845,-0.08579504,0.0506731,1.022858,32.87906,7.566187,-22.27855,1005.135
0.572183609,-0.8432691,0.2430426,0.2683845,-0.1014139,0.05153009,1.007985,32.87906,7.566187,-22.27855,1005.135
0.574660778,-0.9045025,0.364068,0.1460596,-0.1057948,0.04368266,0.9939707,32.87906,7.566187,-22.27855,1005.135
0.577137470,-0.4758682,0.3035553,0.08489711,-0.1013557,0.03201679,0.9929212,32.87906,7.566187,-22.27855,1005.135
0.579615116,0.1976999,0.2430426,0.3295469,-0.09061878,0.02916584,0.9991226,32.87906,7.566187,-22.27855,1005.135
0.582091808,0.6875677,0.364068,0.7576842,-0.09016898,0.03451984,0.9972169,32.87906,7.566187,-22.27855,1005.135
0.584568977,0.993735,0.6666315,0.8800091,-0.09409227,0.04327607,1.00211,32.87906,7.566187,-22.27855,1005.135
0.587045670,1.238669,0.7271442,0.6353592,-0.09701785,0.04667764,1.005522,32.87906,7.566187,-22.27855,1005.135
0.589522839,1.177435,1.029708,0.4518718,-0.09409548,0.04767362,1.008407,32.87906,7.566187,-22.27855,1005.135
0.591999531,0.993735,1.332271,0.3907094,-0.093154,0.04618976,0.9968105,32.87906,7.566187,-22.27855,1005.135
0.594476700,0.9325016,1.392784,0.3295469,-0.09708389,0.05200803,0.9949313,32.87906,7.566187,-22.27855,1005.135
0.596953392,0.9325016,1.392784,0.3907094,-0.09855711,0.05101257,0.9891419,32.87906,7.566187,-22.27855,1005.135
0.599430561,0.993735,0.9691951,0.3295469,-0.1000276,0.04659691,0.9785085,32.87906,7.566187,-22.27855,1005.135
0.601907253,1.054968,0.6666315,0.6353592,-0.09710581,0.04857026,0.9828467,32.87906,7.566187,-22.27855,1005.135
0.604384899,0.8100346,0.4850934,0.3907094,-0.09807133,0.05052582,0.9881715,32.87906,7.566187,-22.27855,1005.135
0.606862068,0.4426338,0.3035553,0.2683845,-0.09756865,0.04760679,0.9881537,32.87906,7.566187,-22.27855,1005.135
0.609338761,-0.04723396,0.2430426,0.2683845,-0.1024429,0.04659605,0.9833484,32.87906,7.566187,-22.27855,1005.135
0.611815930,-0.3534013,-0.241059,0.2683845,-0.1024069,0.03928867,0.9818627,32.87906,7.566187,-22.27855,1005.135
0.614292622,-0.7820356,-0.6646479,0.207222,-0.09801465,0.03981113,0.9871507,32.87906,7.566187,-22.27855,1005.135
0.616769791,-1.639304,-0.9066988,0.4518718,-0.09413324,0.0447134,0.9924642,32.87906,7.566187,-22.27855,1005.135
0.619246483,-2.312872,-1.088237,0.5130343,-0.09507428,0.03935337,0.9929245,32.87906,7.566187,-22.27855,1005.135
0.621723652,-2.741507,-1.330288,0.6353592,-0.09702292,0.0364077,0.9871278,32.87906,7.566187,-22.27855,1005.135
0.624200344,-2.61904,-1.693364,0.7576842,-0.09797046,0.03544288,0.9929202,32.87906,7.566187,-22.27855,1005.135
0.626677990,-1.884238,-1.451313,0.6965217,-0.09849172,0.03785975,0.9866608,32.87906,7.566187,-22.27855,1005.135
0.629154682,-1.639304,-1.451313,0.5741968,-0.09507862,0.04130576,0.9948653,32.87906,7.566187,-22.27855,1005.135
0.631631851,-1.516837,-1.14875,0.5130343,-0.09602121,0.04181109,1.004526,32.87906,7.566187,-22.27855,1005.135
0.634108544,-1.088203,-1.088237,0.3295469,-0.09312619,0.04180978,0.9977532,32.87906,7.566187,-22.27855,1005.135
0.636585713,-1.271903,-1.088237,0.3295469,-0.09361743,0.04180375,0.9963078,32.87906,7.566187,-22.27855,1005.135
0.639062405,-1.333137,-0.9672114,0.3295469,-0.09606161,0.04520432,0.9982694,32.87906,7.566187,-22.27855,1005.135
0.641539574,-1.149436,-0.846186,0.4518718,-0.09118688,0.04230443,0.9967798,32.87906,7.566187,-22.27855,1005.135
0.644016266,-1.333137,-1.027724,0.207222,-0.09753041,0.04665637,0.9978022,32.87906,7.566187,-22.27855,1005.138
0.646493435,-1.333137,-0.846186,0.3295469,-0.1018965,0.04468602,0.997816,32.87906,7.566187,-22.27855,1005.138
0.648970127,-1.149436,-0.6041352,0.2683845,-0.1009085,0.0422576,0.9982808,32.87906,7.566187,-22.27855,1005.138
0.651447773,-0.965736,-0.6646479,0.3295469,-0.101915,0.04711713,0.9963805,32.87906,7.566187,-22.27855,1005.138
0.653924465,-0.4758682,-0.5436226,0.207222,-0.1004669,0.04907238,0.9963826,32.87906,7.566187,-22.27855,1005.138
0.656401634,0.0139995,-0.5436226,0.02373465,-0.09708443,0.05298539,0.9963842,32.87906,7.566187,-22.27855,1005.138
0.658878327,0.3201669,-0.3620844,-0.1597527,-0.09660786,0.05738078,1.000748,32.87906,7.566187,-22.27855,1005.138
0.661355496,0.6875677,-0.1200336,-0.5267274,-0.09758163,0.05639721,0.9988179,32.87906,7.566187,-22.27855,1005.138
0.663832665,0.7488011,0.1220172,-0.8937021,-0.09805595,0.05542553,1.000746,33.26014,6.897895,-22.26805,1005.138
0.666309357,0.8100346,0.1220172,-1.138352,-0.09610415,0.05104038,0.9954035,33.26014,6.897895,-22.26805,1005.138
0.668786526,0.8712681,0.0009917939,-1.138352,-0.09656597,0.04518891,0.9929626,33.26014,6.897895,-22.26805,1005.138
0.671263218,0.9325016,0.1825299,-1.138352,-0.09802059,0.04469561,0.9934507,33.26014,6.897895,-22.26805,1005.138
0.673740864,1.177435,0.3035553,-1.199515,-0.0945841,0.04131413,0.9972759,33.26014,6.897895,-22.26805,1005.138
0.676217556,1.054968,0.6666315,-1.07719,-0.09310709,0.03986794,1.000157,33.26014,6.897895,-22.26805,1005.138
0.678694725,0.993735,0.8481696,-0.8937021,-0.09602073,0.03790045,0.9982317,33.26014,6.897895,-22.26805,1005.138
0.681171417,0.9325016,0.8481696,-0.8937021,-0.09262026,0.03742646,0.9962798,33.26014,6.897895,-22.26805,1005.138
0.683648586,0.9325016,0.7876569,-0.8937021,-0.09216017,0.03741023,0.9885545,33.26014,6.897895,-22.26805,1005.137
0.686125279,0.8100346,0.6666315,-0.7102148,-0.09700597,0.03690868,0.9929225,33.26014,6.897895,-22.26805,1005.137
0.688602448,0.5038673,0.4245807,-0.7102148,-0.09406777,0.03742712,0.9996665,33.26014,6.897895,-22.26805,1005.137
0.691079140,0.3201669,0.6061188,-0.465565,-0.09166674,0.03644007,0.9890293,33.26014,6.897895,-22.26805,1005.137
0.693556309,0.3201669,0.4850934,-0.6490523,-0.09117441,0.03595801,0.9899896,33.26014,6.897895,-22.26805,1005.137
0.696033001,0.0139995,0.2430426,-0.465565,-0.08825532,0.03695164,0.9919094,33.26014,6.897895,-22.26805,1005.137
0.698510647,-0.1697009,0.0009917939,-0.2820776,-0.09018041,0.03744491,0.99868,33.26014,6.897895,-22.26805,1005.137
0.700987339,-0.5371017,-0.05952091,-0.1597527,-0.09017336,0.03353896,0.9943158,33.26014,6.897895,-22.26805,1005.137
0.703464508,-1.02697,-0.05952091,0.207222,-0.08967124,0.03013067,0.9933302,33.26014,6.897895,-22.26805,1005.137
0.705941200,-1.088203,0.0009917939,0.207222,-0.0896418,0.02575186,0.9947557,33.26014,6.897895,-22.26805,1005.137
0.708418369,-1.088203,-0.05952091,0.5741968,-0.08965979,0.02867224,0.994288,33.26014,6.897895,-22.26805,1005.137
0.710895062,-1.02697,-0.05952091,0.6965217,-0.09015154,0.0311102,0.9967166,33.26014,6.897895,-22.26805,1005.137
0.713372231,-1.02697,0.0615045,0.8800091,-0.08968533,0.03794255,1.002059,32.88878,6.885493,-22.71002,1005.137
0.715848923,-1.088203,0.4245807,1.002334,-0.0901732,0.04380539,1.011262,32.88878,6.885493,-22.71002,1005.137
0.718326092,-1.333137,0.6061188,1.124659,-0.09114649,0.03891119,1.003037,32.88878,6.885493,-22.71002,1005.137
0.720803738,-1.39437,0.6666315,1.246984,-0.0945726,0.04278897,1.003076,32.88878,6.885493,-22.71002,1005.137
0.723280430,-1.333137,0.5456061,0.8800091,-0.09121087,0.04570939,0.9953493,32.88878,6.885493,-22.71002,1005.137
0.725757599,-1.455604,0.6666315,0.9411715,-0.08977313,0.0501016,0.9963294,32.88878,6.885493,-22.71002,1005.137
0.728234291,-1.578071,0.6061188,1.002334,-0.08981787,0.05544722,0.992013,32.88878,6.885493,-22.71002,1005.137
0.730711460,-1.639304,0.5456061,0.9411715,-0.09319762,0.05251392,0.9944298,32.88878,6.885493,-22.71002,1005.137
0.733188152,-1.884238,0.6061188,0.8188466,-0.0936872,0.05397569,0.9958881,32.88878,6.885493,-22.71002,1005.137
0.735665322,-1.884238,0.7271442,0.6353592,-0.08786437,0.05399652,0.9919949,32.88878,6.885493,-22.71002,1005.137
0.738142014,-1.823005,0.7271442,0.3907094,-0.09124909,0.04812644,0.9881217,32.88878,6.885493,-22.71002,1005.137
0.740619183,-1.945472,0.7271442,0.3907094,-0.09125508,0.05007765,0.9895799,32.88878,6.885493,-22.71002,1005.137
0.743095875,-1.884238,0.8481696,0.5741968,-0.089288,0.04325905,0.9847073,32.88878,6.885493,-22.71002,1005.137
0.745573521,-1.639304,0.7271442,0.4518718,-0.09170602,0.04081184,0.984708,32.88878,6.885493,-22.71002,1005.137
0.748050213,-1.516837,0.7271442,0.5741968,-0.08880929,0.04521161,0.98568,32.88878,6.885493,-22.71002,1005.137
0.750527382,-1.271903,0.5456061,0.6353592,-0.08833884,0.04275841,0.9769768,32.88878,6.885493,-22.71002,1005.137
0.753004074,-1.271903,0.4245807,0.7576842,-0.09415896,0.04225066,0.9808673,32.88878,6.885493,-22.71002,1005.137
0.755481243,-1.271903,0.4850934,0.6965217,-0.09028407,0.04861487,0.9866711,32.88878,6.885493,-22.71002,1005.137
0.757957936,-1.39437,0.364068,0.6353592,-0.09319118,0.04518544,0.984256,32.88878,6.885493,-22.71002,1005.137
0.760435105,-1.700538,-0.1200336,0.6965217,-0.08831975,0.04081657,0.9793801,32.88878,6.885493,-22.71002,1005.137
0.762911797,-1.455604,-0.1200336,0.8188466,-0.08684053,0.04132745,0.9861321,33.25535,7.203475,-22.27345,1005.138
0.767865658,-1.21067,-0.3620844,0.9411715,-0.09462176,0.04422044,0.9910163,33.25535,7.203475,-22.27345,1005.138
0.770343304,-1.149436,-0.4225971,1.124659,-0.08974812,0.04180865,0.9900119,33.25535,7.203475,-22.27345,1005.138
0.772820473,-1.39437,-0.4831098,1.002334,-0.08830386,0.04327229,0.9880807,33.25535,7.203475,-22.27345,1005.138
0.775297165,-1.700538,-0.4831098,0.8800091,-0.09365401,0.04422196,0.9895629,33.25535,7.203475,-22.27345,1005.138
0.777774334,-1.884238,-0.5436226,1.185821,-0.09270919,0.04714034,0.986194,33.25535,7.203475,-22.27345,1005.138
0.780251026,-1.884238,-0.5436226,1.124659,-0.08931306,0.04861874,0.986183,33.25535,7.203475,-22.27345,1005.138
0.782728195,-2.006705,-0.5436226,1.124659,-0.09415234,0.04665524,0.9900609,33.25535,7.203475,-22.27345,1005.138
0.785204888,-2.190405,-0.4225971,1.002334,-0.09318405,0.04714603,0.9895754,33.25535,7.203475,-22.27345,1005.138
0.787682533,-1.823005,-0.1200336,0.8800091,-0.09610911,0.04810361,0.9891136,33.25535,7.203475,-22.27345,1005.138
0.790158749,-1.761771,-0.1200336,0.8188466,-0.09609329,0.04615942,0.9905516,33.25535,7.203475,-22.27345,1005.138
0.792636395,-1.761771,-0.1200336,0.8188466,-0.09514023,0.05055029,0.992017,33.25535,7.203475,-22.27345,1005.138
0.795113087,-1.700538,-0.1200336,0.9411715,-0.09949263,0.04907859,0.99686,33.25535,7.203475,-22.27345,1005.138
0.797590256,-1.700538,0.0615045,0.9411715,-0.09802321,0.0525157,1.005558,33.25535,7.203475,-22.27345,1005.138
0.800066948,-1.884238,0.364068,0.6965217,-0.09710893,0.05883435,0.9988278,33.25535,7.203475,-22.27345,1005.138
0.802544117,-2.129172,0.6666315,0.4518718,-0.09902805,0.05590976,1.001719,33.25535,7.203475,-22.27345,1005.139
0.805020809,-2.067938,0.7876569,0.207222,-0.09755761,0.05445889,1.002669,33.25535,7.203475,-22.27345,1005.139
0.807497978,-1.700538,0.8481696,0.207222,-0.1009685,0.05150332,0.9959152,33.25535,7.203475,-22.27345,1005.139
0.809974671,-1.333137,1.09022,0.1460596,-0.09904011,0.05394566,0.9949519,33.25535,7.203475,-22.27345,1005.139
0.812451840,-0.9045025,1.150733,-0.1597527,-0.09758278,0.05248541,0.9920403,33.25535,7.203475,-22.27345,1005.139
0.814928532,-0.4146348,1.392784,-0.2209152,-0.1024586,0.05294013,0.9891732,33.56331,7.198375,-22.71796,1005.139
0.817406178,0.0139995,1.695347,-0.465565,-0.1015045,0.05390964,0.9853116,33.56331,7.198375,-22.71796,1005.139
0.819882870,0.5038673,1.876886,-0.7102148,-0.1014909,0.05294165,0.98772,33.56331,7.198375,-22.71796,1005.139
0.822360039,0.6263342,1.876886,-0.8937021,-0.1039329,0.0538994,0.9862902,33.56331,7.198375,-22.71796,1005.139
0.824836731,0.7488011,1.75586,-0.9548646,-0.1039122,0.04902547,0.9843343,33.56331,7.198375,-22.71796,1005.139
0.827313900,0.8100346,1.695347,-1.016027,-0.1049209,0.05192792,0.9785627,33.56331,7.198375,-22.71796,1005.139
0.829791069,1.054968,1.695347,-1.07719,-0.1039385,0.04900672,0.9766114,33.56331,7.198375,-22.71796,1005.139
0.832267761,1.177435,1.574322,-1.444164,-0.1048707,0.04414181,0.9804531,33.56331,7.198375,-22.71796,1005.139
0.834745407,1.177435,1.392784,-1.321839,-0.1072931,0.04511362,0.9848154,33.56331,7.198375,-22.71796,1005.139
0.837221623,0.8712681,1.150733,-1.016027,-0.1053887,0.0494943,0.9800007,33.56331,7.198375,-22.71796,1005.139
0.839699269,0.8100346,1.09022,-1.199515,-0.1005593,0.04998413,0.9708059,33.56331,7.198375,-22.71796,1005.139
0.842175961,0.8712681,1.09022,-1.383002,-0.09757467,0.04662473,0.9847699,33.56331,7.198375,-22.71796,1005.14
0.844653130,0.7488011,1.029708,-1.505327,-0.09754195,0.04224828,0.9871607,33.56331,7.198375,-22.71796,1005.14
0.847129822,0.7488011,0.7876569,-1.688814,-0.1004671,0.03733932,0.9770153,33.56331,7.198375,-22.71796,1005.14
0.849606991,0.7488011,0.4850934,-1.505327,-0.0985764,0.03975471,0.9649504,33.56331,7.198375,-22.71796,1005.14
0.852083683,0.9325016,0.3035553,-1.383002,-0.097571,0.03684992,0.9697567,33.56331,7.198375,-22.71796,1005.14
0.854560852,1.299902,0.3035553,-1.444164,-0.1009562,0.0363571,0.9745995,33.56331,7.198375,-22.71796,1005.14
0.857037544,1.728537,0.1220172,-1.383002,-0.09949556,0.03636582,0.9750742,33.56331,7.198375,-22.71796,1005.14
0.859514713,1.851004,-0.05952091,-1.444164,-0.09703884,0.03248535,0.9760063,33.56331,7.198375,-22.71796,1005.14
0.861991406,1.973471,0.0009917939,-1.444164,-0.09510497,0.03395385,0.9750378,33.56331,7.198375,-22.71796,1005.14
0.864469052,1.973471,-0.1200336,-1.383002,-0.09602467,0.03007568,0.9841939,33.2496,7.570171,-22.27993,1005.14
0.866945744,1.667303,0.0615045,-1.260677,-0.1028234,0.03004748,0.9871269,33.2496,7.570171,-22.27993,1005.14
0.869422913,1.238669,-0.3015717,-0.8325397,-0.1004082,0.03151498,0.9847078,33.2496,7.570171,-22.27993,1005.14
0.871899605,0.5651007,-0.3620844,-0.7102148,-0.09844427,0.0320272,0.9909746,33.2496,7.570171,-22.27993,1005.14
0.874376774,0.1364664,-0.7856733,-0.5267274,-0.1023611,0.03638821,0.9905357,33.2496,7.570171,-22.27993,1005.14
0.876853466,-0.4146348,-1.14875,-0.465565,-0.09995341,0.03980575,0.989092,33.2496,7.570171,-22.27993,1005.14
0.879330635,-0.8432691,-1.330288,-0.465565,-0.09847261,0.03738454,0.9914849,33.2496,7.570171,-22.27993,1005.14
0.881807327,-1.02697,-1.3908,-0.5267274,-0.09941466,0.0369125,0.9996931,33.2496,7.570171,-22.27993,1005.14
0.884284497,-1.02697,-1.511826,-0.6490523,-0.09846269,0.04179147,1.001644,33.2496,7.570171,-22.27993,1005.14
0.886762142,-1.088203,-1.269775,-0.6490523,-0.09652065,0.0417992,1.000668,33.2496,7.570171,-22.27993,1005.14
0.889238835,-1.02697,-1.027724,-0.5878899,-0.09405139,0.0359722,1.002072,33.2496,7.570171,-22.27993,1005.14
0.891716004,-0.965736,-0.7251607,-0.5267274,-0.09503447,0.03400424,0.9957929,33.2496,7.570171,-22.27993,1005.14
0.894192696,-0.8432691,-0.6041352,-0.6490523,-0.09697264,0.03595475,1.001123,33.2496,7.570171,-22.27993,1005.14
0.896669865,-0.7208021,-0.3015717,-0.6490523,-0.09841083,0.03840643,1.01128,33.2496,7.570171,-22.27993,1005.14
0.899146557,-0.2921678,-0.1200336,-0.5267274,-0.09696329,0.03987241,1.010314,33.2496,7.570171,-22.27993,1005.14
0.901623726,-0.04723396,0.0615045,-0.465565,-0.09941134,0.03984811,1.0055,33.2496,7.570171,-22.27993,1005.14
0.904100418,0.5038673,0.2430426,-0.6490523,-0.1028353,0.04128307,1.002148,33.2496,7.570171,-22.27993,1005.14
0.906578064,0.8712681,0.6061188,-0.7102148,-0.09650429,0.04034428,1.003074,33.2496,7.570171,-22.27993,1005.14
0.909054280,1.361136,0.6666315,-0.8325397,-0.09798286,0.0461892,1.006973,33.2496,7.570171,-22.27993,1005.14
0.911531925,1.544836,0.8481696,-1.321839,-0.09945441,0.04666154,1.004088,33.2496,7.570171,-22.27993,1005.14
0.914008618,1.728537,0.9691951,-1.199515,-0.09795508,0.04034259,1.005495,33.2496,7.570171,-22.27993,1005.14
0.916485787,1.728537,0.9086823,-1.444164,-0.09893593,0.0403317,1.003087,33.56413,7.206795,-22.27461,1005.14
0.918962479,1.422369,0.7271442,-1.444164,-0.09750699,0.04129552,0.9958438,33.56413,7.206795,-22.27461,1005.14
0.921439648,1.483603,0.4850934,-1.444164,-0.100878,0.04032397,1.004063,33.56413,7.206795,-22.27461,1005.14
0.923916340,1.60607,-0.05952091,-1.444164,-0.1027896,0.03104945,0.9987162,33.56413,7.206795,-22.27461,1005.139
0.926393509,1.912237,-0.241059,-1.321839,-0.09744646,0.03253908,0.9991773,33.56413,7.206795,-22.27461,1005.139
0.928870201,2.034704,-0.1805463,-1.199515,-0.1086703,0.03196497,0.9871688,33.56413,7.206795,-22.27461,1005.139
0.931347370,2.157171,-0.846186,-1.383002,-0.100829,0.0256928,0.9943339,33.56413,7.206795,-22.27461,1005.139
0.933825016,2.157171,-0.9066988,-0.9548646,-0.07791024,0.03074362,1.020299,33.56413,7.206795,-22.27461,1005.139
0.936301708,0.8712681,0.0009917939,-0.2209152,-0.08283178,0.04583185,1.028126,33.56413,7.206795,-22.27461,1005.139
0.938778877,-0.4146348,0.6666315,-0.3432401,-0.0931249,0.05452138,1.019056,33.56413,7.206795,-22.27461,1005.139
0.941255570,-1.39437,0.4245807,-0.5878899,-0.09945117,0.04373062,1.000211,33.56413,7.206795,-22.27461,1005.139
0.943732739,-1.578071,0.0615045,-0.7102148,-0.0993863,0.0330218,1.001604,33.56413,7.206795,-22.27461,1005.139
0.946209431,-1.149436,-0.1200336,-0.5878899,-0.09107176,0.02967603,1.009747,33.56413,7.206795,-22.27461,1005.139
0.948686600,-0.5371017,0.1825299,-0.6490523,-0.090604,0.03064302,1.005888,33.56413,7.206795,-22.27461,1005.139
0.951163292,0.07523298,0.5456061,-0.5878899,-0.09306677,0.03207481,0.9991509,33.56413,7.206795,-22.27461,1005.139
0.953640938,0.5038673,0.7271442,-0.5267274,-0.09497932,0.03062154,1.006394,33.56413,7.206795,-22.27461,1005.139
0.956117153,0.7488011,1.029708,-0.5267274,-0.09503166,0.03938384,1.005474,33.56413,7.206795,-22.27461,1005.139
0.958594799,0.4426338,1.211246,-0.5267274,-0.09893864,0.04228525,1.00551,33.56413,7.206795,-22.27461,1005.139
0.961071491,0.3814003,0.6666315,-0.2209152,-0.09846919,0.04618668,1.006976,33.56413,7.206795,-22.27461,1005.139
0.963548661,0.2589334,0.6061188,-0.3432401,-0.09652715,0.0461944,1.006,33.56413,7.206795,-22.27461,1005.142
0.966025353,-0.04723396,0.6666315,-0.465565,-0.09944568,0.04569003,1.005048,32.88878,6.885493,-22.71002,1005.142
0.968502522,-0.3534013,0.9086823,-0.5878899,-0.1009058,0.04617058,1.005541,32.88878,6.885493,-22.71002,1005.142
0.970979214,-0.2921678,1.150733,-0.6490523,-0.09506278,0.04082821,0.9987241,32.88878,6.885493,-22.71002,1005.142
0.973456383,-0.2921678,0.9691951,-0.7713773,-0.09943535,0.04178644,1.001649,32.88878,6.885493,-22.71002,1005.142
0.975933075,-0.1697009,1.029708,-0.8325397,-0.1004146,0.03884345,0.9948819,32.88878,6.885493,-22.71002,1005.142
0.978410721,-0.2309344,0.9691951,-0.7713773,-0.09850588,0.04127173,0.9881263,32.88878,6.885493,-22.71002,1005.142
0.980887890,-0.3534013,0.7876569,-0.8325397,-0.0970545,0.04469596,0.9915146,32.88878,6.885493,-22.71002,1005.142
0.983364582,-0.4758682,0.8481696,-0.8325397,-0.09995554,0.04371521,0.9949044,32.88878,6.885493,-22.71002,1005.142
0.985841751,-0.4146348,0.8481696,-1.016027,-0.0980157,0.0432325,0.9924779,32.88878,6.885493,-22.71002,1005.142
0.988318443,-0.5371017,0.6666315,-1.07719,-0.09849877,0.04176569,0.9910249,32.88878,6.885493,-22.71002,1005.142
0.990795612,-0.7820356,0.6061188,-0.8325397,-0.09800974,0.03981465,0.9885988,32.88878,6.885493,-22.71002,1005.142
0.993272305,-0.8432691,0.6061188,-0.7102148,-0.09898623,0.03931801,0.986671,32.88878,6.885493,-22.71002,1005.142
0.995749474,-0.7820356,0.4245807,-0.7713773,-0.09847865,0.03493586,0.9856802,32.88878,6.885493,-22.71002,1005.142
0.998226166,-0.7820356,0.364068,-0.6490523,-0.09605412,0.03445449,0.9827684,32.88878,6.885493,-22.71002,1005.142
1.000703812,-0.6595686,0.3035553,-0.5878899,-0.09653504,0.03054486,0.9779242,32.88878,6.885493,-22.71002,1005.142
1.003180027,-0.5983351,0.1825299,-0.5878899,-0.09892249,0.02616401,0.9837069,32.88878,6.885493,-22.71002,1005.144
1.005657673,-0.7208021,0.1220172,-0.1597527,-0.09459569,0.03397277,0.9817927,32.88878,6.885493,-22.71002,1005.144
1.008134365,-0.5983351,-0.1805463,-0.03742781,-0.09459896,0.03397043,0.9808272,32.88878,6.885493,-22.71002,1005.144
1.010611534,-0.5983351,-0.3620844,-0.03742781,-0.09847646,0.0354263,0.9871308,32.88878,6.885493,-22.71002,1005.144
1.013088226,-0.7820356,-0.241059,-0.09859026,-0.09703327,0.03884466,0.9881058,32.88878,6.885493,-22.71002,1005.144
1.015565395,-0.7820356,-0.4225971,-0.03742781,-0.0950983,0.0412917,0.989073,33.56413,7.206795,-22.27461,1005.144
1.018042088,-0.7208021,-0.6041352,-0.09859026,-0.09601749,0.03496953,0.9943551,33.56413,7.206795,-22.27461,1005.144
1.020519257,-0.9045025,-0.4225971,-0.1597527,-0.09649675,0.03252771,0.9924146,33.56413,7.206795,-22.27461,1005.144
1.022995949,-0.8432691,-0.3620844,0.08489711,-0.09504484,0.03497457,0.9943498,33.56413,7.206795,-22.27461,1005.144
1.025473595,-0.8432691,-0.4831098,0.1460596,-0.09553442,0.03643634,0.9958081,33.56413,7.206795,-22.27461,1005.144
1.027949810,-0.965736,-0.6041352,0.02373465,-0.09893432,0.03886624,1.001149,33.56413,7.206795,-22.27461,1005.144
1.030427456,-0.965736,-0.6041352,0.08489711,-0.1008812,0.04032163,1.003098,33.56413,7.206795,-22.27461,1005.144
1.032904148,-1.39437,-0.4831098,0.1460596,-0.09696824,0.03840227,1.006445,33.56413,7.206795,-22.27461,1005.144
1.037858486,-2.129172,-0.5436226,-0.03742781,-0.0965408,0.04716239,1.003591,33.56413,7.206795,-22.27461,1005.144
1.040335178,-2.435339,-0.7251607,-0.09859026,-0.09361021,0.04963087,1.011311,33.56413,7.206795,-22.27461,1005.144
1.042812347,-2.557806,-0.5436226,-0.1597527,-0.09168838,0.05060189,1.005996,33.56413,7.206795,-22.27461,1005.143
1.045289040,-2.435339,-0.3620844,-0.2209152,-0.0940938,0.05060806,1.013732,33.56413,7.206795,-22.27461,1005.143
1.047766685,-2.61904,-0.1200336,-0.2820776,-0.09696316,0.04867221,1.024839,33.56413,7.206795,-22.27461,1005.143
1.050243378,-2.98644,-0.1200336,-0.465565,-0.09698281,0.05012478,1.021468,33.56413,7.206795,-22.27461,1005.143
1.052720547,-3.108907,0.0615045,-0.4044026,-0.09650967,0.04571803,1.010341,33.56413,7.206795,-22.27461,1005.143
1.055197239,-2.80274,0.2430426,-0.4044026,-0.0941195,0.04961195,1.004556,33.56413,7.206795,-22.27461,1005.143
1.057674408,-1.884238,0.1825299,-0.2209152,-0.09366582,0.05839082,1.009426,33.56413,7.206795,-22.27461,1005.143
1.060151100,-0.7820356,0.4245807,-0.5878899,-0.09659138,0.06325902,1.015259,33.56413,7.206795,-22.27461,1005.143
1.062628269,-0.3534013,0.8481696,-1.199515,-0.09322303,0.07058403,1.016726,33.56413,7.206795,-22.27461,1005.143
1.065104961,-0.2921678,1.150733,-1.444164,-0.09175914,0.06912846,1.015745,33.56413,7.206795,-22.27461,1005.143
1.067582130,-0.4758682,1.574322,-1.994627,-0.09662957,0.06714271,1.010452,33.26085,6.905113,-21.88804,1005.143
1.070058823,-0.5983351,1.634835,-2.239276,-0.0961062,0.05934974,1.008479,33.26085,6.905113,-21.88804,1005.143
1.072536469,-0.965736,1.695347,-2.300439,-0.0907544,0.05840123,1.007479,33.26085,6.905113,-21.88804,1005.143
1.075012684,-1.271903,1.634835,-2.116951,-0.09314793,0.05010508,1.005036,33.26085,6.905113,-21.88804,1005.143
1.077490330,-1.578071,1.695347,-2.178114,-0.09316543,0.04911482,0.9982737,33.26085,6.905113,-21.88804,1005.143
1.079967499,-1.639304,1.453297,-2.300439,-0.09219002,0.05009956,1.000687,33.26085,6.905113,-21.88804,1005.143
1.082444191,-1.639304,1.513809,-2.667413,-0.09022897,0.04229892,0.9924304,33.26085,6.905113,-21.88804,1005.145
1.084921360,-1.39437,1.695347,-2.606251,-0.08584825,0.03841328,0.9870769,33.26085,6.905113,-21.88804,1005.145
1.087398052,-1.516837,1.513809,-2.606251,-0.08677398,0.03355306,0.9928492,33.26085,6.905113,-21.88804,1005.145
1.089875221,-1.455604,1.332271,-2.545089,-0.08289701,0.03307456,0.9879987,33.26085,6.905113,-21.88804,1005.145
1.092351913,-1.333137,1.574322,-2.483926,-0.08285833,0.02528025,0.9865106,33.26085,6.905113,-21.88804,1005.145
1.104737282,-0.8432691,0.7271442,-0.9548646,-0.08182965,0.008214805,0.9748329,33.26085,6.905113,-21.88804,1005.145
1.107213974,-0.8432691,0.4850934,-0.6490523,-0.08131817,0.008724166,0.9830382,33.26085,6.905113,-21.88804,1005.145
1.109691143,-1.088203,0.4245807,-0.09859026,-0.08180235,0.006278825,0.9796496,33.26085,6.905113,-21.88804,1005.145
1.112167835,-1.21067,0.3035553,0.2683845,-0.07937181,0.005312873,0.9777007,33.26085,6.905113,-21.88804,1005.145
1.114645004,-1.39437,0.0615045,0.6965217,-0.08230782,0.005284882,0.972407,33.26085,6.905113,-21.88804,1005.145
1.117121696,-1.333137,0.0009917939,1.063496,-0.07893127,0.01261574,0.9762877,33.56892,6.901215,-22.26921,1005.145
1.119599342,-1.088203,-0.05952091,1.430471,-0.07937232,0.00775687,0.9815747,33.56892,6.901215,-22.26921,1005.145
1.122075558,-0.5371017,0.0009917939,1.613959,-0.08328369,0.009677402,0.9787098,33.56892,6.901215,-22.26921,1005.143
1.124553204,-0.04723396,0.1220172,1.919771,-0.08186994,0.01747457,0.9782595,33.56892,6.901215,-22.26921,1005.143
1.127029896,0.3201669,0.1825299,2.225583,-0.08528455,0.02282719,0.9840978,33.56892,6.901215,-22.26921,1005.143
1.129507065,0.4426338,0.3035553,2.103258,-0.08771177,0.02672875,0.991854,33.56892,6.901215,-22.26921,1005.143
1.131984234,0.6875677,0.0615045,2.225583,-0.0867691,0.03062332,0.9894554,33.56892,6.901215,-22.26921,1005.143
1.134460926,0.8100346,0.1220172,2.286746,-0.09211326,0.03108842,0.9919004,33.56892,6.901215,-22.26921,1005.143
1.136938095,0.993735,0.1825299,2.40907,-0.0882259,0.03110621,0.990914,33.56892,6.901215,-22.26921,1005.143
1.139414787,0.993735,0.1825299,2.470233,-0.08631545,0.03793556,0.9919039,33.56892,6.901215,-22.26921,1005.143
1.141892433,0.6875677,0.364068,2.347908,-0.09460051,0.03983578,0.9900283,33.56892,6.901215,-22.26921,1005.143
1.144369125,0.6263342,0.364068,2.40907,-0.09412564,0.04129673,0.9890677,33.56892,6.901215,-22.26921,1005.143
1.146846294,0.5651007,0.1825299,2.347908,-0.09560751,0.04567267,0.989581,33.56892,6.901215,-22.26921,1005.143
1.149322987,0.4426338,0.1220172,2.40907,-0.09512717,0.04762641,0.9910366,33.56892,6.901215,-22.26921,1005.143
1.151800156,0.1976999,0.0615045,2.286746,-0.09756641,0.05103049,0.9944462,33.56892,6.901215,-22.26921,1005.143
1.154276848,0.0139995,-0.1200336,2.286746,-0.1004991,0.05247148,0.9925389,33.56892,6.901215,-22.26921,1005.143
1.156754017,0.0139995,-0.1200336,2.225583,-0.09757073,0.05444951,0.9988078,33.56892,6.901215,-22.26921,1005.143
1.159230709,-0.2921678,-0.1805463,2.042096,-0.09950946,0.05591076,1.00317,33.56892,6.901215,-22.26921,1005.143
1.161707878,-0.8432691,-0.1805463,1.797446,-0.1043754,0.05930578,1.008041,33.56892,6.901215,-22.26921,1005.145
1.164184570,-1.21067,-0.241059,1.369309,-0.1000209,0.05686803,0.9973856,33.56892,6.901215,-22.26921,1005.145
1.166662216,-1.39437,-0.3015717,1.185821,-0.09758655,0.05639369,0.9973698,33.56413,7.206795,-22.27461,1005.145
1.169138908,-1.823005,-0.4831098,1.185821,-0.09855919,0.05785529,0.999796,33.56413,7.206795,-22.27461,1005.145
1.171616077,-1.884238,-0.3620844,0.8800091,-0.1010023,0.0578345,0.9964306,33.56413,7.206795,-22.27461,1005.145
1.174092770,-2.190405,-0.4225971,0.6965217,-0.1039246,0.05977178,0.9983873,33.56413,7.206795,-22.27461,1005.145
1.176569939,-2.496573,-0.3620844,0.5130343,-0.1048755,0.05733799,1.000793,33.56413,7.206795,-22.27461,1005.145
1.179047108,-2.557806,-0.3015717,0.2683845,-0.1000204,0.05589067,0.9959326,33.56413,7.206795,-22.27461,1005.145
1.181523800,-2.374106,-0.1200336,0.08489711,-0.102904,0.05003365,0.9964009,33.56413,7.206795,-22.27461,1005.145
1.184000969,-2.067938,0.1220172,-0.03742781,-0.09801835,0.04811932,0.999743,33.56413,7.206795,-22.27461,1005.145
1.186477661,-1.578071,0.364068,-0.09859026,-0.09998716,0.04907021,0.9944493,33.56413,7.206795,-22.27461,1005.145
1.188955307,-0.7820356,0.6061188,-0.5878899,-0.1014652,0.05247113,0.9944749,33.56413,7.206795,-22.27461,1005.145
1.191431999,-0.1084674,0.7876569,-0.5878899,-0.1014576,0.04905446,0.9910786,33.56413,7.206795,-22.27461,1005.145
1.193909168,0.1364664,1.09022,-0.8937021,-0.09705553,0.04811732,0.9968418,33.56413,7.206795,-22.27461,1005.145
1.196385860,0.5038673,1.271759,-1.138352,-0.1014472,0.05101739,0.9973633,33.56413,7.206795,-22.27461,1005.145
1.198863030,0.4426338,1.574322,-1.138352,-0.1009424,0.04272227,0.9891124,33.56413,7.206795,-22.27461,1005.145
1.201339722,0.5651007,1.513809,-0.9548646,-0.09997302,0.04419159,0.9905627,33.56413,7.206795,-22.27461,1005.145
1.203816891,0.5651007,1.392784,-0.7713773,-0.1014407,0.04662218,0.9920313,33.56413,7.206795,-22.27461,1005.15
1.206293583,0.2589334,1.392784,-0.9548646,-0.09755449,0.0441948,0.9866882,33.56413,7.206795,-22.27461,1005.15
1.208770752,-0.1084674,1.211246,-1.199515,-0.09950969,0.04124444,0.9789608,33.56413,7.206795,-22.27461,1005.15
1.211247444,-0.3534013,0.9691951,-1.07719,-0.09269235,0.04030817,0.979884,33.56413,7.206795,-22.27461,1005.15
1.213725090,-0.4146348,0.7876569,-0.8325397,-0.09850376,0.03736228,0.9823141,33.56413,7.206795,-22.27461,1005.15
1.216201782,-0.2921678,0.4850934,-0.8937021,-0.09706604,0.04028786,0.9808731,33.56413,7.206795,-22.27461,1005.15
1.218678951,-0.5371017,0.1220172,-0.8937021,-0.09756929,0.04125099,0.9775021,33.56413,7.206795,-22.27461,1005.15
1.221155644,-0.5983351,0.0009917939,-1.016027,-0.0961,0.03588831,0.9716744,33.56413,7.206795,-22.27461,1005.15
1.223632813,-0.7820356,-0.3620844,-0.7102148,-0.0956153,0.03735629,0.9736101,33.56413,7.206795,-22.27461,1005.15
1.226109982,-0.8432691,-0.7251607,-0.4044026,-0.0999748,0.03539063,0.9755545,33.56413,7.206795,-22.27461,1005.15
1.228586674,-0.7208021,-1.14875,-0.3432401,-0.09706659,0.03979859,0.9799053,33.56413,7.206795,-22.27461,1005.15
1.231064320,-0.6595686,-1.572338,-0.2820776,-0.09851849,0.03881836,0.980391,33.56413,7.206795,-22.27461,1005.15
1.233540535,-0.2921678,-1.511826,-0.2209152,-0.1043637,0.04220366,0.9833363,33.56413,7.206795,-22.27461,1005.15
1.236018181,0.1364664,-1.572338,-0.2209152,-0.1038637,0.03830492,0.9809002,33.56413,7.206795,-22.27461,1005.15
1.238494873,0.07523298,-1.814389,-0.465565,-0.1033741,0.03977641,0.9842839,33.56413,7.206795,-22.27461,1005.15
1.240972042,0.07523298,-1.814389,-0.465565,-0.1018884,0.03735872,0.9881247,33.56413,7.206795,-22.27461,1005.15
1.243448734,0.0139995,-1.874902,-0.4044026,-0.09993921,0.03932703,0.9924684,33.56413,7.206795,-22.27461,1005.151
1.245925903,-0.3534013,-2.116953,-0.5267274,-0.09604257,0.03886259,0.9934099,33.56413,7.206795,-22.27461,1005.151
1.248402596,-0.8432691,-2.116953,-0.465565,-0.1004293,0.04029953,0.9929587,33.56413,7.206795,-22.27461,1005.151
1.250879765,-1.02697,-1.935415,-0.4044026,-0.09843931,0.03496398,0.9972644,33.56413,7.206795,-22.27461,1005.151
1.253356457,-1.149436,-2.05644,-0.4044026,-0.09749337,0.0388609,0.9958313,33.56413,7.206795,-22.27461,1005.151
1.255833626,-1.149436,-2.05644,-0.5878899,-0.1004577,0.04712351,0.99589,33.56413,7.206795,-22.27461,1005.151
1.258310318,-0.965736,-1.632851,-0.6490523,-0.09799275,0.0432489,0.9992353,33.56413,7.206795,-22.27461,1005.151
1.260787964,-0.6595686,-1.330288,-0.5267274,-0.09699277,0.04278459,1.006468,33.56413,7.206795,-22.27461,1005.151
1.263264656,-0.4146348,-1.209262,-0.7102148,-0.09944734,0.04422223,1.002144,33.56413,7.206795,-22.27461,1005.151
1.265741825,-0.1697009,-0.846186,-0.8325397,-0.09995116,0.04469609,0.9978054,33.56413,7.206795,-22.27461,1005.151
1.268218994,0.1976999,-0.5436226,-1.016027,-0.1033576,0.0471213,1.001215,33.25606,7.210693,-21.89344,1005.151
1.270695686,0.3814003,-0.4831098,-1.321839,-0.1018975,0.04810739,1.003143,33.25606,7.210693,-21.89344,1005.151
1.273172855,0.1364664,-0.3620844,-1.505327,-0.09794415,0.03986152,1.007906,33.25606,7.210693,-21.89344,1005.151
1.275649548,0.1976999,-0.1200336,-1.383002,-0.1003846,0.03788718,1.002117,33.25606,7.210693,-21.89344,1005.151
1.278127194,0.1976999,0.0009917939,-1.199515,-0.0998802,0.03790258,1.007424,33.25606,7.210693,-21.89344,1005.151
1.280603409,0.1976999,-0.05952091,-1.07719,-0.09739947,0.03208379,1.012207,33.25606,7.210693,-21.89344,1005.151
1.283081055,0.4426338,0.364068,-0.9548646,-0.09935407,0.03255596,1.010289,33.25606,7.210693,-21.89344,1005.151
1.285557747,0.7488011,0.5456061,-1.016027,-0.09980499,0.02475679,1.007838,33.25606,7.210693,-21.89344,1005.151
1.288034916,1.116202,0.9086823,-1.199515,-0.09449897,0.03257527,1.007849,33.25606,7.210693,-21.89344,1005.151
1.290511608,1.60607,1.150733,-1.138352,-0.096465,0.03597251,1.007395,33.25606,7.210693,-21.89344,1005.151
1.292988777,1.912237,1.392784,-1.138352,-0.09791476,0.03254946,1.004489,33.25606,7.210693,-21.89344,1005.151
1.295465469,1.973471,1.574322,-1.199515,-0.09988522,0.03203254,0.9962919,33.25606,7.210693,-21.89344,1005.151
1.297942638,2.034704,1.453297,-1.505327,-0.09695191,0.03401409,1.004009,33.25606,7.210693,-21.89344,1005.151
1.300419331,1.851004,1.634835,-1.444164,-0.09893815,0.03837463,0.9992154,33.25606,7.210693,-21.89344,1005.151
1.302896977,1.361136,1.332271,-1.321839,-0.09842785,0.03350555,0.9982223,33.25606,7.210693,-21.89344,1005.151
1.305373192,0.5038673,0.9086823,-1.505327,-0.1019069,0.03978983,0.9866894,33.25606,7.210693,-21.89344,1005.151
1.310327530,-0.8432691,0.1825299,-1.260677,-0.09846828,0.03396552,0.9871232,33.25606,7.210693,-21.89344,1005.151
1.312804699,-1.455604,-0.3015717,-0.9548646,-0.09655198,0.0315105,0.9745505,33.25606,7.210693,-21.89344,1005.151
1.315281868,-1.455604,-0.7856733,-0.5878899,-0.09507769,0.03055124,0.9774336,33.25606,7.210693,-21.89344,1005.151
1.317758560,-1.271903,-1.209262,-0.465565,-0.09120674,0.03055731,0.9716203,32.51499,7.202728,-21.89066,1005.151
1.320235729,-0.965736,-1.632851,-0.465565,-0.09266836,0.03690321,0.9813144,32.51499,7.202728,-21.89066,1005.151
1.322712421,-0.5371017,-1.753877,-0.6490523,-0.09071974,0.03838225,0.9846901,32.51499,7.202728,-21.89066,1005.15
1.325190067,-0.5371017,-1.451313,-0.6490523,-0.09501491,0.02668513,0.9894803,32.51499,7.202728,-21.89066,1005.15
1.327666283,-0.7820356,-1.511826,-0.4044026,-0.09256474,0.02279998,0.9884816,32.51499,7.202728,-21.89066,1005.15
1.330143929,-0.7820356,-1.693364,-0.2820776,-0.09160187,0.02573125,0.9904221,32.51499,7.202728,-21.89066,1005.15
1.332620621,-0.9045025,-1.814389,-0.03742781,-0.08915873,0.02721866,0.9962085,32.51499,7.202728,-21.89066,1005.15
1.335097790,-0.965736,-1.874902,0.08489711,-0.0906325,0.02573393,0.9894514,32.51499,7.202728,-21.89066,1005.15
1.337574482,-0.8432691,-1.814389,0.2683845,-0.09204728,0.02135813,0.9952288,32.51499,7.202728,-21.89066,1005.15
1.340051651,-0.5983351,-1.814389,0.2683845,-0.09354006,0.02621513,0.9933313,32.51499,7.202728,-21.89066,1005.15
1.342528343,-0.4146348,-1.995928,0.3907094,-0.08916254,0.02819369,0.9966962,32.51499,7.202728,-21.89066,1005.15
1.345005512,-0.1084674,-1.753877,0.6353592,-0.08919524,0.03403678,0.9967265,32.51499,7.202728,-21.89066,1005.15
1.347482205,0.1364664,-1.3908,0.3907094,-0.09212086,0.03450509,0.9952968,32.51499,7.202728,-21.89066,1005.15
1.349959850,0.0139995,-1.511826,0.5130343,-0.09307389,0.03158085,0.9962523,32.51499,7.202728,-21.89066,1005.15
1.352436066,0.07523298,-1.511826,0.3907094,-0.09358144,0.03742963,0.9996638,32.51499,7.202728,-21.89066,1005.15
1.354913712,-0.1697009,-1.753877,0.08489711,-0.09848785,0.04128462,0.9934357,32.51499,7.202728,-21.89066,1005.15
1.357390404,-0.5983351,-2.05644,0.1460596,-0.09799884,0.03786695,0.9885888,32.51499,7.202728,-21.89066,1005.15
1.359867573,-1.02697,-2.419516,0.5130343,-0.09749341,0.03592763,0.9909894,32.51499,7.202728,-21.89066,1005.15
1.362344742,-0.965736,-2.843105,0.5741968,-0.09892953,0.03006995,0.9880711,32.51499,7.202728,-21.89066,1005.147
1.364821434,-1.02697,-3.750796,1.002334,-0.1155549,0.03138657,0.964035,32.51499,7.202728,-21.89066,1005.147
1.367298603,-0.1697009,-5.808228,0.5130343,-0.1437519,0.01120403,0.9341596,32.51499,7.202728,-21.89066,1005.147
1.369775295,2.708272,-7.563096,-0.6490523,-0.07098524,-0.005314495,0.9949765,33.2496,7.570171,-22.27993,1005.147
1.372252941,3.749241,-5.566177,0.3907094,-0.03788316,0.02861146,1.059649,33.2496,7.570171,-22.27993,1005.147
1.374729157,2.463338,-2.298491,1.675121,-0.07318407,0.07026943,1.045093,33.2496,7.570171,-22.27993,1005.147
1.377206802,1.238669,-1.209262,1.124659,-0.09573323,0.07931499,1.008096,33.2496,7.570171,-22.27993,1005.147
1.379683495,-0.1084674,-1.935415,0.207222,-0.09376505,0.07347494,1.005159,33.2496,7.570171,-22.27993,1005.147
1.382160664,-1.271903,-2.661567,-0.465565,-0.0912407,0.06133198,1.012323,33.2496,7.570171,-22.27993,1005.147
1.384637356,-1.823005,-2.480029,-0.7102148,-0.08771101,0.0404177,1.01461,33.2496,7.570171,-22.27993,1005.147
1.387114525,-1.761771,-1.935415,-0.5878899,-0.08427843,0.03067809,1.006818,33.2496,7.570171,-22.27993,1005.147
1.389591217,-1.333137,-1.3908,-0.4044026,-0.08768401,0.0194155,0.9879548,33.2496,7.570171,-22.27993,1005.147
1.392068386,-0.4758682,-1.269775,-0.2209152,-0.09156591,0.01842386,0.9889362,33.2496,7.570171,-22.27993,1005.147
1.394545078,0.4426338,-1.511826,-0.03742781,-0.09008402,0.01551455,0.9908441,33.2496,7.570171,-22.27993,1005.147
1.397022724,1.238669,-1.451313,-0.1597527,-0.08864893,0.02479359,0.9990894,33.2496,7.570171,-22.27993,1005.147
1.399498940,1.299902,-1.3908,-0.09859026,-0.1003481,0.02666917,0.9943362,33.2496,7.570171,-22.27993,1005.147
1.401976585,1.544836,-1.935415,-0.2820776,-0.1086016,0.01881449,0.9856528,33.2496,7.570171,-22.27993,1005.146
1.404453755,1.78977,-2.480029,-0.2209152,-0.07012417,0.02345424,1.0096,33.2496,7.570171,-22.27993,1005.146
1.406930447,0.3814003,-1.209262,0.7576842,-0.07023682,0.05417266,1.027135,33.2496,7.570171,-22.27993,1005.146
1.409407616,-1.149436,-1.14875,0.6353592,-0.1082258,0.04709261,0.9997936,33.2496,7.570171,-22.27993,1005.146
1.411884308,-0.5983351,-2.177466,-0.465565,-0.09502795,0.03107566,0.9928817,33.2496,7.570171,-22.27993,1005.146
1.414361477,-0.04723396,-2.480029,-0.5267274,-0.07506,0.03315467,1.004367,33.2496,7.570171,-22.27993,1005.146
1.416838169,0.0139995,-1.753877,-0.2209152,-0.07706691,0.04385577,1.003951,33.2496,7.570171,-22.27993,1005.146
1.419315815,-0.5983351,-1.14875,0.1460596,-0.08293068,0.04673891,1.000619,33.2496,7.570171,-22.27993,1005.146
1.421792507,-0.965736,-0.846186,0.4518718,-0.08439351,0.04623975,0.9986935,33.2496,7.570171,-22.27993,1005.146
1.424269676,-1.333137,-0.7251607,0.5741968,-0.08683501,0.0447535,0.9933898,33.2496,7.570171,-22.27993,1005.146
1.426746369,-1.333137,-1.088237,0.3295469,-0.09124635,0.04910614,0.9905402,33.2496,7.570171,-22.27993,1005.146
1.429223538,-1.639304,-1.3908,0.4518718,-0.0873099,0.04329256,0.9943503,33.2496,7.570171,-22.27993,1005.146
1.431700230,-1.761771,-1.572338,0.3295469,-0.08588199,0.04767774,0.9924343,33.2496,7.570171,-22.27993,1005.146
1.434177399,-1.823005,-1.3908,0.1460596,-0.08736664,0.04960734,0.9881082,33.2496,7.570171,-22.27993,1005.146
1.436654091,-2.190405,-1.3908,0.1460596,-0.09369329,0.04859374,0.9852415,33.2496,7.570171,-22.27993,1005.146
1.439131260,-2.61904,-1.632851,0.1460596,-0.09659382,0.04663563,0.987178,33.2496,7.570171,-22.27993,1005.146
1.441607952,-3.231374,-1.935415,0.2683845,-0.09611893,0.04956321,0.9886386,33.2496,7.570171,-22.27993,1005.146
1.444085598,-3.721242,-2.237978,0.3907094,-0.08932611,0.05300926,0.9895844,33.2496,7.570171,-22.27993,1005.145
1.446562767,-4.21111,-2.419516,0.2683845,-0.09269875,0.05056991,0.9948999,33.2496,7.570171,-22.27993,1005.145
1.449039459,-4.762211,-2.359004,0.207222,-0.09225337,0.05347639,0.9876722,33.2496,7.570171,-22.27993,1005.145
1.451516628,-5.252079,-2.480029,0.3907094,-0.08787265,0.04959076,0.9823187,33.2496,7.570171,-22.27993,1005.145
1.453993321,-5.129612,-2.540542,0.3295469,-0.0893371,0.04909043,0.9799107,33.2496,7.570171,-22.27993,1005.145
1.456470490,-5.007145,-2.601054,0.02373465,-0.09564409,0.04809089,0.9828362,33.2496,7.570171,-22.27993,1005.145
1.458947182,-4.762211,-2.661567,-0.1597527,-0.0936535,0.04177797,0.9856889,33.2496,7.570171,-22.27993,1005.145
1.461424351,-4.517277,-2.540542,-0.03742781,-0.08634003,0.03938462,0.9870846,33.2496,7.570171,-22.27993,1005.145
1.463901043,-4.517277,-2.843105,0.08489711,-0.09314971,0.04130411,0.9900279,33.2496,7.570171,-22.27993,1005.145
1.466378689,-4.149877,-2.782593,0.08489711,-0.09365133,0.04080177,0.9847186,33.2496,7.570171,-22.27993,1005.145
1.468855381,-4.02741,-2.782593,-0.1597527,-0.08879621,0.04228772,0.9846996,33.25453,7.195055,-22.71681,1005.145
1.471332550,-4.39481,-2.903618,-0.4044026,-0.09266231,0.0393519,0.9871191,33.25453,7.195055,-22.71681,1005.145
1.473809242,-4.517277,-3.206182,-0.465565,-0.0877592,0.03402793,0.989961,33.25453,7.195055,-22.71681,1005.145
1.476286411,-4.456044,-3.085156,-0.3432401,-0.08333322,0.02235267,0.98505,33.25453,7.195055,-22.71681,1005.145
1.478763104,-4.149877,-3.085156,-0.1597527,-0.08478621,0.02186054,0.9860208,33.25453,7.195055,-22.71681,1005.145
1.481240273,-3.598775,-3.206182,0.02373465,-0.08969371,0.02620363,0.9802779,33.25453,7.195055,-22.71681,1005.145
1.483716965,-3.292608,-3.266694,0.1460596,-0.09215046,0.02861747,0.976925,33.25453,7.195055,-22.71681,1005.146
1.486194134,-3.231374,-3.448232,-0.03742781,-0.09020568,0.02813827,0.9759465,33.25453,7.195055,-22.71681,1005.146
1.488671780,-3.353841,-3.690283,0.02373465,-0.09506349,0.03007251,0.9808097,33.25453,7.195055,-22.71681,1005.146
1.491148472,-3.721242,-4.05336,0.2683845,-0.09747655,0.03056209,0.9871003,33.25453,7.195055,-22.71681,1005.146
1.493625641,-4.700978,-4.29541,0.6353592,-0.08775706,0.0315851,0.9865698,33.25453,7.195055,-22.71681,1005.146
1.496102333,-5.558246,-4.537461,0.8188466,-0.0863101,0.03109518,0.9822152,33.25453,7.195055,-22.71681,1005.146
1.498579502,-5.80318,-4.718999,0.7576842,-0.09070455,0.03154891,0.9778975,33.25453,7.195055,-22.71681,1005.146
1.501056194,-5.680713,-4.779512,0.8188466,-0.08875809,0.03400414,0.9822435,33.25453,7.195055,-22.71681,1005.146
1.503533363,-5.497013,-4.718999,0.8800091,-0.08631875,0.03646658,0.9885176,33.25453,7.195055,-22.71681,1005.146
1.506010056,-5.190845,-4.537461,0.7576842,-0.09021103,0.03644528,0.9880561,33.25453,7.195055,-22.71681,1005.146
1.508487225,-4.945911,-4.113872,0.5741968,-0.08823458,0.03501098,0.9947955,33.25453,7.195055,-22.71681,1005.146
1.510963917,-4.823445,-3.690283,0.5130343,-0.08722538,0.03113116,0.9991142,33.25453,7.195055,-22.71681,1005.146
1.513441563,-4.884678,-3.38772,0.3907094,-0.09160831,0.03305972,1.000596,33.25453,7.195055,-22.71681,1005.146
1.515918255,-4.945911,-3.266694,0.2683845,-0.09111929,0.03110868,0.99817,33.25453,7.195055,-22.71681,1005.146
1.518395424,-4.823445,-3.266694,0.3907094,-0.0950214,0.03108034,0.9948125,33.25453,7.195055,-22.71681,1005.146
1.520872116,-5.129612,-3.024643,0.3907094,-0.08968864,0.03647357,0.9986723,33.25453,7.195055,-22.71681,1005.146
1.523349285,-5.43578,-3.085156,0.3295469,-0.09117159,0.04133761,0.9996707,33.25453,7.195055,-22.71681,1005.149
1.525825977,-5.558246,-3.085156,0.2683845,-0.0911727,0.04035908,0.997735,33.25453,7.195055,-22.71681,1005.149
1.528303146,-5.741947,-3.024643,0.207222,-0.08778209,0.03841142,0.9904663,33.25453,7.195055,-22.71681,1005.149
1.530780792,-5.741947,-2.843105,0.1460596,-0.09458795,0.03935589,0.9929218,33.25453,7.195055,-22.71681,1005.149
1.533257008,-5.43578,-2.72208,0.08489711,-0.09069238,0.04084617,0.9967696,33.25453,7.195055,-22.71681,1005.149
1.535734654,-5.068378,-2.72208,0.02373465,-0.09071314,0.04132021,0.9914626,33.25453,7.195055,-22.71681,1005.149
1.538211346,-4.762211,-2.540542,-0.03742781,-0.08727447,0.03696254,0.9943175,33.25453,7.195055,-22.71681,1005.149
1.540688515,-4.639744,-2.601054,-0.2209152,-0.09117603,0.03742347,0.9919279,33.25453,7.195055,-22.71681,1005.149
1.543165207,-4.578511,-2.72208,-0.2209152,-0.08872963,0.03597996,0.9938377,33.25453,7.195055,-22.71681,1005.149
1.545642376,-4.149877,-2.72208,-0.2820776,-0.09214806,0.0423076,1.000164,33.25453,7.195055,-22.71681,1005.149
1.548119068,-3.904943,-2.782593,-0.465565,-0.09218346,0.05010425,1.002617,33.25453,7.195055,-22.71681,1005.149
1.550596237,-4.088643,-2.843105,-0.8325397,-0.09168186,0.04767332,1.003085,33.25453,7.195055,-22.71681,1005.149
1.553072930,-4.272344,-2.661567,-1.016027,-0.09017489,0.04087095,1.005938,33.25453,7.195055,-22.71681,1005.149
1.555550575,-4.333577,-2.359004,-1.199515,-0.09062032,0.0350312,1.008324,33.25453,7.195055,-22.71681,1005.149
1.558026791,-4.39481,-2.359004,-1.199515,-0.08915374,0.03162208,1.004919,33.25453,7.195055,-22.71681,1005.149
1.560504437,-4.149877,-2.419516,-1.199515,-0.087203,0.02919167,1.002483,33.25453,7.195055,-22.71681,1005.149
1.562981129,-3.843709,-2.116953,-1.321839,-0.08670959,0.02675487,1.000537,33.25453,7.195055,-22.71681,1005.146
1.565458298,-3.170141,-1.753877,-1.260677,-0.08475608,0.0267708,1.00294,33.25453,7.195055,-22.71681,1005.146
1.567934990,-2.680273,-1.330288,-1.444164,-0.07984588,0.02047415,1.006259,33.25453,7.195055,-22.71681,1005.146
1.570412159,-2.129172,-0.9672114,-1.444164,-0.07985955,0.01997551,1.00143,32.87906,7.566187,-22.27855,1005.146
1.572889328,-1.455604,-0.4225971,-1.260677,-0.08277755,0.01849377,0.9990249,32.87906,7.566187,-22.27855,1005.146
1.575366020,-0.7820356,-0.05952091,-1.566489,-0.08324312,0.01801722,1.004334,32.87906,7.566187,-22.27855,1005.146
1.580319882,0.1976999,0.7271442,-1.444164,-0.08176725,0.01412586,1.002858,32.87906,7.566187,-22.27855,1005.146
1.582797527,0.7488011,1.150733,-1.505327,-0.08178034,0.01558312,1.001418,32.87906,7.566187,-22.27855,1005.146
1.585274220,0.993735,1.271759,-1.383002,-0.0813426,0.01897302,0.9927446,32.87906,7.566187,-22.27855,1005.146
1.587751389,1.422369,1.332271,-1.383002,-0.08323936,0.01410894,0.9990049,32.87906,7.566187,-22.27855,1005.146
1.590228081,1.728537,1.453297,-1.260677,-0.08327591,0.01799379,0.9946809,32.87906,7.566187,-22.27855,1005.146
1.592705250,2.034704,1.271759,-1.321839,-0.08134644,0.0184814,0.9908115,32.87906,7.566187,-22.27855,1005.146
1.595181942,2.218405,1.453297,-1.383002,-0.07842243,0.01947856,0.9941793,32.87906,7.566187,-22.27855,1005.146
1.597659111,2.524572,1.574322,-1.260677,-0.07987491,0.01654243,0.991276,32.87906,7.566187,-22.27855,1005.146
1.600135803,2.524572,1.392784,-1.199515,-0.07597451,0.0121697,0.9868881,32.87906,7.566187,-22.27855,1005.146
1.602613449,2.463338,1.271759,-0.8937021,-0.07836304,0.008276951,0.9931561,32.87906,7.566187,-22.27855,1005.145
1.605089665,2.585805,1.150733,-1.016027,-0.08377158,0.01554024,0.9879135,32.87906,7.566187,-22.27855,1005.145
1.607567310,2.218405,0.9086823,-0.8937021,-0.07790015,0.01217369,0.9926909,32.87906,7.566187,-22.27855,1005.145
1.610044003,2.034704,0.9691951,-0.7102148,-0.08130665,0.01166563,0.9912588,32.87906,7.566187,-22.27855,1005.145
1.612521172,2.095937,0.5456061,-0.7713773,-0.08331418,0.01747757,0.9826115,32.87906,7.566187,-22.27855,1005.145
1.614998341,1.973471,0.2430426,-0.7102148,-0.07893504,0.01652403,0.9816173,32.87906,7.566187,-22.27855,1005.145
1.617475033,1.912237,0.1220172,-0.4044026,-0.08233657,0.01895275,0.9864752,32.87906,7.566187,-22.27855,1005.145
1.619952202,1.851004,0.0009917939,-0.465565,-0.0813448,0.01848258,0.991294,32.87249,7.924463,-22.72838,1005.145
1.622428894,1.667303,-0.241059,-0.1597527,-0.08035312,0.01214587,0.9864294,32.87249,7.924463,-22.72838,1005.145
1.624906540,1.60607,-0.4225971,-0.2209152,-0.08083616,0.0121457,0.9873974,32.87249,7.924463,-22.72838,1005.145
1.627382755,1.422369,-0.4831098,0.02373465,-0.08185461,0.01944102,0.9859924,32.87249,7.924463,-22.72838,1005.145
1.629860401,1.361136,-0.846186,0.1460596,-0.08232561,0.02140495,0.9937278,32.87249,7.924463,-22.72838,1005.145
1.632337094,1.361136,-0.9066988,0.207222,-0.08182734,0.01603841,0.9883881,32.87249,7.924463,-22.72838,1005.145
1.634814263,1.116202,-0.846186,0.207222,-0.07792957,0.01801913,0.9936864,32.87249,7.924463,-22.72838,1005.145
1.637290955,0.8712681,-0.7251607,0.1460596,-0.08327428,0.01799496,0.9951635,32.87249,7.924463,-22.72838,1005.145
1.639768124,0.7488011,-0.6646479,0.2683845,-0.07935037,0.0141279,0.9985009,32.87249,7.924463,-22.72838,1005.145
1.642244816,0.2589334,-0.9066988,0.3907094,-0.08616495,0.01604388,0.9999961,32.87249,7.924463,-22.72838,1005.145
1.644721985,0.0139995,-1.027724,0.3907094,-0.08668566,0.01895002,0.9947045,32.87249,7.924463,-22.72838,1005.145
1.647198677,-0.5371017,-1.088237,0.5741968,-0.08231416,0.01994652,0.9946857,32.87249,7.924463,-22.72838,1005.145
1.649676323,-1.088203,-1.027724,0.4518718,-0.08377366,0.02238297,0.9985676,32.87249,7.924463,-22.72838,1005.145
1.652152538,-1.761771,-1.209262,0.6353592,-0.08426271,0.02286737,0.9985727,32.87249,7.924463,-22.72838,1005.145
1.654630184,-2.374106,-1.14875,0.7576842,-0.08131965,0.01898942,0.999502,32.87249,7.924463,-22.72838,1005.145
1.657107353,-2.863973,-1.027724,0.6965217,-0.08326116,0.01800433,0.999025,32.87249,7.924463,-22.72838,1005.145
1.659584046,-3.415075,-0.846186,0.6965217,-0.08229614,0.01849278,0.9975742,32.87249,7.924463,-22.72838,1005.145
1.662061215,-3.721242,-0.9066988,0.8188466,-0.07988521,0.02191266,0.9970958,32.87249,7.924463,-22.72838,1005.145
1.664537907,-3.721242,-0.7251607,0.9411715,-0.08085682,0.01848627,0.9917741,32.87249,7.924463,-22.72838,1005.145
1.667015076,-3.415075,-0.9066988,1.185821,-0.08180826,0.01262994,0.9883705,32.87249,7.924463,-22.72838,1005.145
1.669491768,-2.925207,-0.846186,1.369309,-0.08084214,0.01409691,0.9888554,32.87249,7.924463,-22.72838,1005.145
1.671969414,-2.251639,-0.6646479,1.430471,-0.07791975,0.01655953,0.9941615,32.50124,7.913264,-23.10701,1005.145
1.674446106,-1.578071,-0.4831098,1.430471,-0.0818153,0.01653588,0.9927347,32.50124,7.913264,-23.10701,1005.145
1.676923275,-0.7208021,-0.3620844,1.369309,-0.08328464,0.01896529,0.9937205,32.50124,7.913264,-23.10701,1005.145
1.679399967,0.3201669,-0.05952091,1.430471,-0.08474523,0.02188984,0.9980877,32.50124,7.913264,-23.10701,1005.145
1.681877136,0.7488011,0.2430426,1.369309,-0.08426543,0.0233543,0.9985753,32.50124,7.913264,-23.10701,1005.146
1.684353829,0.8712681,0.4850934,1.308146,-0.08427086,0.02579478,1.001001,32.50124,7.913264,-23.10701,1005.146
1.686830998,0.8100346,0.4245807,1.124659,-0.08574511,0.02822068,1.000539,32.50124,7.913264,-23.10701,1005.146
1.689307690,0.6875677,0.1220172,1.124659,-0.09158704,0.03014169,1.002029,32.50124,7.913264,-23.10701,1005.146
1.691784859,0.3201669,0.3035553,1.185821,-0.08960956,0.02528603,1.003441,32.50124,7.913264,-23.10701,1005.146
1.694262505,-0.1084674,0.5456061,1.124659,-0.09011605,0.02918008,1.003947,32.50124,7.913264,-23.10701,1005.146
1.696739197,-0.5371017,0.6061188,1.369309,-0.08863198,0.02529458,1.004884,32.50124,7.913264,-23.10701,1005.146
1.699216366,-0.9045025,0.6666315,1.369309,-0.08768655,0.03163549,1.007325,32.50124,7.913264,-23.10701,1005.146
1.701693058,-1.088203,0.8481696,1.246984,-0.08577945,0.0340626,1.000087,32.50124,7.913264,-23.10701,1005.146
1.704170227,-1.088203,0.9691951,1.185821,-0.07947412,0.03359433,0.9942576,32.50124,7.913264,-23.10701,1005.146
1.706646919,-1.02697,1.937398,1.308146,-0.06244045,0.04151306,1.010616,32.50124,7.913264,-23.10701,1005.146
1.709124088,-1.578071,2.4215,1.491634,-0.08580887,0.03990804,1.001082,32.50124,7.913264,-23.10701,1005.146
1.711600781,-1.333137,1.937398,0.9411715,-0.1018295,0.02713448,0.9885546,32.50124,7.913264,-23.10701,1005.146
1.714077950,-0.3534013,1.211246,0.3295469,-0.1037849,0.01538432,0.9663017,32.50124,7.913264,-23.10701,1005.146
1.716554642,0.993735,0.5456061,0.08489711,-0.09015405,0.01008691,0.9613731,32.50124,7.913264,-23.10701,1005.146
1.719032288,1.851004,0.3035553,0.08489711,-0.07746132,0.01507549,0.9835325,32.50124,7.913264,-23.10701,1005.146
1.721508980,2.034704,0.6061188,0.4518718,-0.07598594,0.01509476,0.9883513,33.24303,7.928446,-22.72977,1005.146
1.723986149,1.973471,0.7876569,0.6353592,-0.08139831,0.02186644,0.9811755,33.24303,7.928446,-22.72977,1005.147
1.726462841,1.422369,0.4245807,0.6965217,-0.08095279,0.03357272,0.9884734,33.24303,7.928446,-22.72977,1005.147
1.728940010,0.7488011,0.1220172,0.7576842,-0.08047625,0.03650147,0.9904165,33.24303,7.928446,-22.72977,1005.147
1.731417179,-0.2309344,-0.05952091,0.8188466,-0.0784895,0.02969694,0.991336,33.24303,7.928446,-22.72977,1005.147
1.733893871,-0.7820356,-0.1200336,0.9411715,-0.07946108,0.02920381,0.9908562,33.24303,7.928446,-22.72977,1005.147
1.736371517,-1.02697,-0.1805463,0.9411715,-0.08431896,0.02527153,0.9860358,33.24303,7.928446,-22.72977,1005.147
1.738847733,-1.088203,-0.1200336,0.9411715,-0.08237754,0.02039009,0.9768292,33.24303,7.928446,-22.72977,1005.147
1.741325379,-1.02697,-0.6646479,1.002334,-0.08477478,0.01893548,0.9845576,33.24303,7.928446,-22.72977,1005.147
1.743802071,-0.5983351,-0.7251607,1.246984,-0.08375142,0.01164367,0.9874107,33.24303,7.928446,-22.72977,1005.147
1.746279240,-0.5371017,-0.9066988,1.369309,-0.07842569,0.02094285,0.9956349,33.24303,7.928446,-22.72977,1005.147
1.748755932,-0.4758682,-0.7251607,1.491634,-0.08425562,0.0218947,0.9990504,33.24303,7.928446,-22.72977,1005.147
1.751233101,-0.6595686,-0.846186,1.613959,-0.08329224,0.02238197,0.9971169,33.24303,7.928446,-22.72977,1005.147
1.753709793,-0.7820356,-0.846186,1.797446,-0.08328626,0.02043075,0.9956588,33.24303,7.928446,-22.72977,1005.147
1.756186962,-0.8432691,-0.7856733,1.797446,-0.08572334,0.02285865,0.9980981,33.24303,7.928446,-22.72977,1005.147
1.758663655,-0.5983351,-0.7856733,2.164421,-0.08333531,0.02919539,0.9957041,33.24303,7.928446,-22.72977,1005.147
1.761140824,-0.3534013,-0.7856733,2.225583,-0.08136646,0.03117777,1.00584,33.24303,7.928446,-22.72977,1005.147
1.763617516,-0.2309344,-0.6041352,1.980933,-0.08091828,0.03799723,1.005872,33.24303,7.928446,-22.72977,1005.147
1.766095162,-0.2309344,-0.3015717,1.797446,-0.08529966,0.03552707,1.000574,33.24303,7.928446,-22.72977,1005.147
1.768571854,0.0139995,0.0009917939,1.675121,-0.08625594,0.03406712,1.002985,33.24303,7.928446,-22.72977,1005.147
1.771049023,0.07523298,0.0009917939,1.491634,-0.08625051,0.03162663,1.000559,33.24303,7.928446,-22.72977,1005.147
1.773526192,0.1364664,0.1825299,1.552796,-0.08817183,0.02821161,1.002,32.5077,7.553785,-22.72051,1005.147
1.776002884,-0.1084674,0.1220172,1.613959,-0.09013022,0.03112543,1.002991,32.5077,7.553785,-22.72051,1005.147
1.778480053,-0.4758682,0.1825299,1.613959,-0.0862543,0.03406829,1.003468,32.5077,7.553785,-22.72051,1005.147
1.780956745,-0.965736,0.1220172,1.491634,-0.0848019,0.03260452,0.9991084,32.5077,7.553785,-22.72051,1005.147
1.783434391,-1.333137,0.1220172,1.736283,-0.08724341,0.03111827,0.9938046,32.5077,7.553785,-22.72051,1005.147
1.785910607,-1.823005,0.2430426,1.980933,-0.0872096,0.02625371,0.9957103,32.5077,7.553785,-22.72051,1005.147
1.788388252,-2.129172,0.3035553,1.980933,-0.08820738,0.02720847,0.9899285,32.5077,7.553785,-22.72051,1005.147
1.790864945,-2.374106,0.1220172,2.042096,-0.08725438,0.02866607,0.9865521,32.5077,7.553785,-22.72051,1005.147
1.793342114,-2.496573,0.0009917939,2.164421,-0.08777343,0.03304002,0.9841639,32.5077,7.553785,-22.72051,1005.147
1.795818806,-2.067938,-0.05952091,1.919771,-0.08681659,0.03498923,0.9827206,32.5077,7.553785,-22.72051,1005.147
1.798295975,-1.516837,-0.4225971,1.491634,-0.08146477,0.03550736,0.9841421,32.5077,7.553785,-22.72051,1005.147
1.800772667,-0.9045025,-0.3015717,1.369309,-0.08143475,0.03308445,0.9889561,32.5077,7.553785,-22.72051,1005.147
1.803249836,-0.1697009,0.0009917939,1.063496,-0.08339316,0.03453164,0.9875264,32.5077,7.553785,-22.72051,1005.146
1.805726528,0.5038673,0.0615045,0.8800091,-0.08386859,0.03258143,0.9875189,32.5077,7.553785,-22.72051,1005.146
1.808204174,0.9325016,-0.1805463,0.6353592,-0.08289267,0.03112217,0.9860581,32.5077,7.553785,-22.72051,1005.146
1.810680390,1.054968,-0.3620844,0.5741968,-0.08435498,0.02817902,0.9802588,32.5077,7.553785,-22.72051,1005.146
1.813158035,0.993735,-0.3015717,0.3907094,-0.08872322,0.02718486,0.9812429,32.5077,7.553785,-22.72051,1005.146
1.815635205,0.6263342,-0.4225971,0.207222,-0.0853097,0.02232034,0.9758899,32.5077,7.553785,-22.72051,1005.146
1.818111897,0.5038673,-0.9066988,0.3907094,-0.08579165,0.0232987,0.9787935,32.5077,7.553785,-22.72051,1005.146
1.820589066,0.5651007,-1.572338,0.3907094,-0.08239551,0.02477709,0.9787825,32.5077,7.553785,-22.72051,1005.146
1.823065758,-0.1084674,-1.753877,0.3907094,-0.08434517,0.02671941,0.9807338,33.55756,7.56507,-22.72445,1005.146
1.825542927,-0.4758682,-1.995928,0.3907094,-0.08239597,0.03015436,0.9874984,33.55756,7.56507,-22.72445,1005.146
1.828019619,-1.149436,-2.237978,0.3295469,-0.08286811,0.02967312,0.9908773,33.55756,7.56507,-22.72445,1005.146
1.830497265,-1.761771,-2.177466,0.207222,-0.08335877,0.03162299,0.9928206,33.55756,7.56507,-22.72445,1005.146
1.832973480,-2.435339,-2.237978,0.08489711,-0.08435545,0.03355628,0.9889745,33.55756,7.56507,-22.72445,1005.146
1.835451126,-2.557806,-2.540542,0.1460596,-0.08823629,0.03060991,0.9870499,33.55756,7.56507,-22.72445,1005.146
1.837927818,-2.863973,-2.903618,0.1460596,-0.08476922,0.02529479,0.9966573,33.55756,7.56507,-22.72445,1005.146
1.840404988,-3.292608,-3.085156,0.1460596,-0.08282609,0.02481442,0.9951961,33.55756,7.56507,-22.72445,1005.146
1.845358849,-3.660008,-3.145669,0.207222,-0.08865497,0.02234491,0.9932846,33.55756,7.56507,-22.72445,1005.147
1.847835541,-3.231374,-3.266694,0.3295469,-0.08673308,0.02771583,0.9952324,33.55756,7.56507,-22.72445,1005.147
1.850312710,-2.80274,-3.145669,0.3295469,-0.08675382,0.0296565,0.9923465,33.55756,7.56507,-22.72445,1005.147
1.852790356,-2.435339,-2.661567,-0.03742781,-0.07362175,0.03510289,1.001473,33.55756,7.56507,-22.72445,1005.147
1.855267048,-2.435339,-1.814389,-0.03742781,-0.08485968,0.04234066,0.9981934,33.55756,7.56507,-22.72445,1005.147
1.857744217,-2.067938,-2.782593,-0.7713773,-0.1072175,0.02072404,0.9668306,33.55756,7.56507,-22.72445,1005.147
1.860220909,-0.4146348,-4.234898,-1.383002,-0.08515805,0.00434046,0.9907597,33.55756,7.56507,-22.72445,1005.147
1.862698078,0.6263342,-3.750796,-0.8325397,-0.06905822,0.01325964,1.020161,33.55756,7.56507,-22.72445,1005.147
1.865175247,0.5651007,-2.540542,-0.4044026,-0.07497977,0.02587892,1.015914,33.55756,7.56507,-22.72445,1005.147
1.867651940,-0.4146348,-1.995928,-0.09859026,-0.08327298,0.03070656,1.016467,33.55756,7.56507,-22.72445,1005.147
1.870128632,-1.39437,-1.874902,-0.2820776,-0.08811283,0.02678716,1.016956,33.55756,7.56507,-22.72445,1005.147
1.872605801,-1.823005,-2.05644,-0.5267274,-0.08128524,0.0175474,1.007217,32.86674,8.291159,-22.73486,1005.147
1.875082493,-1.823005,-2.419516,-0.5878899,-0.07784548,0.01270163,1.009587,32.86674,8.291159,-22.73486,1005.147
1.877560139,-1.39437,-2.177466,-0.6490523,-0.07983612,0.01608128,1.001892,32.86674,8.291159,-22.73486,1005.147
1.880036354,-1.21067,-2.298491,-0.5878899,-0.07451167,0.01413549,0.9912343,32.86674,8.291159,-22.73486,1005.147
1.882514000,-0.5371017,-2.05644,-0.5267274,-0.05600544,0.01522725,1.00031,32.86674,8.291159,-22.73486,1005.148
1.884990692,0.1976999,-1.3908,-0.03742781,-0.07153306,0.01126068,1.004236,32.86674,8.291159,-22.73486,1005.148
1.887467861,1.054968,-1.632851,-0.4044026,-0.08220726,0.00584563,1.002818,32.86674,8.291159,-22.73486,1005.148
1.889945030,2.218405,-1.632851,-0.4044026,-0.08325849,0.01311751,0.9917597,32.86674,8.291159,-22.73486,1005.148
1.892421723,3.19814,-1.632851,-0.465565,-0.0808045,0.009723968,0.9926942,32.86674,8.291159,-22.73486,1005.148
1.894898892,3.565541,-1.995928,-0.4044026,-0.06913418,0.0141831,0.9994106,32.86674,8.291159,-22.73486,1005.148
1.897375584,3.38184,-1.572338,0.207222,-0.06716363,0.01909991,1.014871,32.86674,8.291159,-22.73486,1005.148
1.899853230,2.524572,-1.209262,0.5741968,-0.06813297,0.02203048,1.020683,32.86674,8.291159,-22.73486,1005.148
1.902329922,1.361136,-0.846186,0.8188466,-0.07544968,0.02735476,1.023164,32.86674,8.291159,-22.73486,1005.148
1.904807091,0.3201669,-0.7856733,0.6965217,-0.07602285,0.03169004,1.004848,32.86674,8.291159,-22.73486,1005.148
1.907283783,-0.5371017,-0.9066988,0.5130343,-0.07111812,0.0249006,1.005751,32.86674,8.291159,-22.73486,1005.148
1.909760952,-0.965736,-0.7251607,0.4518718,-0.07352039,0.01610932,0.9999273,32.86674,8.291159,-22.73486,1005.148
1.912237644,-1.088203,-0.6041352,0.3295469,-0.07495868,0.01122783,0.9979794,32.86674,8.291159,-22.73486,1005.148
1.914714813,-0.6595686,-0.4225971,0.6353592,-0.07691275,0.01072264,0.9946088,32.86674,8.291159,-22.73486,1005.148
1.917191506,-0.04723396,-0.4831098,0.8188466,-0.07649298,0.01849954,0.9878888,32.86674,8.291159,-22.73486,1005.148
1.919668675,0.5651007,-0.3620844,0.9411715,-0.07357066,0.01656226,0.9859322,32.86674,8.291159,-22.73486,1005.148
1.922145367,0.9325016,-0.3620844,0.8800091,-0.07356626,0.01900977,0.9912542,32.86674,8.291159,-22.73486,1005.147
1.924623013,1.299902,-0.1200336,0.6353592,-0.07550446,0.01949366,0.9941634,32.87331,7.932883,-22.28502,1005.147
1.927100182,1.177435,0.2430426,0.4518718,-0.07645912,0.01656825,0.9946364,32.87331,7.932883,-22.28502,1005.147
1.929576874,0.993735,0.2430426,0.6353592,-0.0798744,0.01409843,0.9874021,32.87331,7.932883,-22.28502,1005.147
1.932054043,0.7488011,-0.1805463,0.7576842,-0.0827788,0.008715444,0.9825636,32.87331,7.932883,-22.28502,1005.147
1.934530735,0.6263342,-0.1805463,1.063496,-0.07161987,0.01706511,0.9883375,32.87331,7.932883,-22.28502,1005.147
1.937007904,0.0139995,-0.05952091,1.430471,-0.07697331,0.01801245,0.9888543,32.87331,7.932883,-22.28502,1005.147
1.939484596,-0.9045025,0.0615045,1.797446,-0.08232783,0.01944787,0.9898564,32.87331,7.932883,-22.28502,1005.147
1.941961766,-1.516837,0.0009917939,2.042096,-0.08382063,0.02430489,0.9879588,32.87331,7.932883,-22.28502,1005.147
1.944438458,-2.312872,-0.05952091,2.225583,-0.08283713,0.01796232,0.9806806,32.87331,7.932883,-22.28502,1005.147
1.946916104,-2.863973,-0.3015717,2.40907,-0.08431198,0.01696569,0.9744088,32.87331,7.932883,-22.28502,1005.147
1.949392796,-3.108907,-0.6646479,2.286746,-0.08185361,0.01308639,0.9758235,32.87331,7.932883,-22.28502,1005.147
1.951869965,-3.476308,-0.7251607,2.286746,-0.08234101,0.01503861,0.9787322,32.87331,7.932883,-22.28502,1005.147
1.954346657,-3.292608,-1.209262,2.40907,-0.0828699,0.01940552,0.9734482,32.87331,7.932883,-22.28502,1005.147
1.956823826,-3.415075,-1.572338,2.225583,-0.08674252,0.01793164,0.9763578,32.87331,7.932883,-22.28502,1005.147
1.959300518,-3.415075,-1.814389,1.980933,-0.08381859,0.0145289,0.9724628,32.87331,7.932883,-22.28502,1005.147
1.961777687,-3.537542,-2.05644,2.225583,-0.08040334,0.01553208,0.9772761,32.87331,7.932883,-22.28502,1005.146
1.964255333,-3.415075,-2.480029,2.65372,-0.08432122,0.02038119,0.9773224,32.87331,7.932883,-22.28502,1005.146
1.966731549,-3.108907,-2.601054,2.776045,-0.09064785,0.02230086,0.9792977,32.87331,7.932883,-22.28502,1005.146
1.969209194,-2.98644,-2.782593,2.592558,-0.08629707,0.02523803,0.9763928,32.87331,7.932883,-22.28502,1005.146
1.971685887,-2.863973,-2.782593,2.40907,-0.08774669,0.03061477,0.9880127,32.87331,7.932883,-22.28502,1005.146
1.974163056,-3.108907,-2.964131,2.286746,-0.08577562,0.03455421,1.00202,33.24161,7.914013,-23.4898,1005.146
1.976639748,-3.170141,-2.843105,2.286746,-0.08428776,0.02822706,1.000048,33.24161,7.914013,-23.4898,1005.146
1.979116917,-3.231374,-2.782593,2.470233,-0.08475504,0.02334944,0.9976125,33.24161,7.914013,-23.4898,1005.146
1.981593609,-3.353841,-2.72208,2.592558,-0.08863038,0.02236248,1.000525,33.24161,7.914013,-23.4898,1005.146
1.984070778,-2.925207,-3.085156,2.531395,-0.08525333,0.02724935,1.000531,33.24161,7.914013,-23.4898,1005.146
1.986547470,-2.557806,-3.145669,2.40907,-0.09012476,0.03161822,1.005407,33.24161,7.914013,-23.4898,1005.146
1.989025116,-2.251639,-2.843105,2.470233,-0.08764564,0.02726489,1.012129,33.24161,7.914013,-23.4898,1005.146
1.991501331,-1.761771,-2.540542,2.103258,-0.09106086,0.02772833,1.009737,33.24161,7.914013,-23.4898,1005.146
1.993978977,-1.02697,-2.116953,1.858608,-0.08715713,0.02629121,1.011156,33.24161,7.914013,-23.4898,1005.146
1.996455669,-0.2309344,-1.935415,1.736283,-0.08230201,0.02777715,1.011137,33.24161,7.914013,-23.4898,1005.146
1.998932838,0.6875677,-1.572338,1.552796,-0.08913848,0.02918863,1.005389,33.24161,7.914013,-23.4898,1005.146
2.001410007,1.054968,-1.632851,1.369309,-0.08817338,0.03407697,1.011201,33.24161,7.914013,-23.4898,1005.146
2.003886700,1.238669,-1.632851,1.002334,-0.08285318,0.03995009,1.012168,33.24161,7.914013,-23.4898,1005.147
2.006363869,1.422369,-1.451313,0.9411715,-0.08676236,0.04236106,1.010754,33.24161,7.914013,-23.4898,1005.147
2.008840561,1.116202,-1.269775,0.6353592,-0.08336732,0.04432755,1.011228,33.24161,7.914013,-23.4898,1005.147
2.011318207,0.993735,-1.088237,0.5741968,-0.08678307,0.04576836,1.010288,33.24161,7.914013,-23.4898,1005.147
2.013794422,0.8100346,-1.027724,0.3295469,-0.08292083,0.04821258,1.005936,33.24161,7.914013,-23.4898,1005.147
2.016272068,0.3814003,-0.7856733,0.02373465,-0.08438201,0.04771459,1.004493,33.24161,7.914013,-23.4898,1005.147
2.018748760,0.1364664,-0.6041352,-0.2209152,-0.08385093,0.04383811,1.011228,33.24161,7.914013,-23.4898,1005.147
2.021225929,-0.2921678,-0.9066988,-0.2209152,-0.08726946,0.04283258,1.005449,33.24161,7.914013,-23.4898,1005.147
2.023702621,-0.5983351,-0.9066988,-0.7713773,-0.08870336,0.03893198,1.006402,32.1422,7.17589,-23.09266,1005.147
2.026179791,-0.9045025,-0.846186,-1.138352,-0.08627445,0.03943149,1.006392,32.1422,7.17589,-23.09266,1005.147
2.028656483,-1.271903,-0.7856733,-1.138352,-0.07994726,0.03800109,1.005384,32.1422,7.17589,-23.09266,1005.147
2.031133652,-1.700538,-0.6646479,-1.383002,-0.0847953,0.03554247,1.005881,32.1422,7.17589,-23.09266,1005.147
2.033610344,-2.006705,-0.7856733,-1.444164,-0.08426695,0.03068629,1.010197,32.1422,7.17589,-23.09266,1005.147
2.036087990,-2.190405,-0.7251607,-1.505327,-0.07846597,0.03166925,1.001482,32.1422,7.17589,-23.09266,1005.147
2.038565159,-2.741507,-0.7856733,-1.505327,-0.07939719,0.02484961,1.002418,32.1422,7.17589,-23.09266,1005.147
2.041041851,-2.925207,-0.7251607,-1.444164,-0.0784087,0.0243771,1.006271,32.1422,7.17589,-23.09266,1005.147
2.043519020,-3.231374,-0.7251607,-1.444164,-0.07840329,0.02046998,1.001425,32.1422,7.17589,-23.09266,1005.142
2.045995712,-3.231374,-0.6041352,-1.199515,-0.07595909,0.02000267,1.004305,32.1422,7.17589,-23.09266,1005.142
2.048472881,-2.925207,-0.5436226,-1.138352,-0.07546791,0.01560881,0.9984873,32.1422,7.17589,-23.09266,1005.142
2.050949574,-2.863973,-0.5436226,-1.016027,-0.0803415,0.02095387,1.004333,32.1422,7.17589,-23.09266,1005.142
2.053426743,-2.741507,-0.4225971,-1.016027,-0.07592089,0.016119,1.009111,32.1422,7.17589,-23.09266,1005.142
2.055903435,-2.741507,-0.241059,-1.199515,-0.07787934,0.01463292,1.00284,32.1422,7.17589,-23.09266,1005.142
2.058381081,-2.61904,0.0615045,-1.138352,-0.07205157,0.0161239,1.002815,32.1422,7.17589,-23.09266,1005.142
2.060857773,-2.557806,0.1220172,-1.321839,-0.07202152,0.01516763,1.01005,32.1422,7.17589,-23.09266,1005.142
2.063334942,-2.61904,0.1220172,-1.260677,-0.07739133,0.01756988,1.008161,32.1422,7.17589,-23.09266,1005.142
2.065811634,-2.98644,0.2430426,-1.199515,-0.07298054,0.0141946,1.012464,32.1422,7.17589,-23.09266,1005.142
2.068288803,-3.292608,0.2430426,-1.260677,-0.0725379,0.01612138,1.002818,32.1422,7.17589,-23.09266,1005.142
2.070765972,-3.537542,0.4245807,-1.199515,-0.07250348,0.01467936,1.010533,32.1422,7.17589,-23.09266,1005.142
2.073242664,-3.598775,0.6061188,-1.138352,-0.06956971,0.01128364,1.009534,32.1422,7.17589,-23.09266,1005.142
2.075719833,-3.721242,0.6666315,-1.138352,-0.07152763,0.008820204,1.00181,32.87824,7.557767,-22.7219,1005.142
2.078196526,-3.537542,0.6061188,-0.8937021,-0.07202711,0.00734168,0.99553,32.87824,7.557767,-22.7219,1005.142
2.080674171,-3.170141,0.6061188,-0.8325397,-0.07108614,0.008301815,0.9878069,32.87824,7.557767,-22.7219,1005.142
2.083150864,-2.680273,0.6666315,-0.9548646,-0.06912886,0.004409455,0.9848801,32.87824,7.557767,-22.7219,1005.141
2.085628033,-1.761771,0.6666315,-0.8325397,-0.06617055,-0.003368579,0.9838587,32.87824,7.557767,-22.7219,1005.141
2.088104725,-0.8432691,1.09022,-0.4044026,-0.05256409,0.007449386,0.99832,32.87824,7.557767,-22.7219,1005.141
2.090581894,-0.7208021,2.058424,0.3907094,-0.06871054,0.02391824,0.997045,32.87824,7.557767,-22.7219,1005.141
2.093058586,-0.6595686,1.332271,0.08489711,-0.0979332,0.006137178,0.9556033,32.87824,7.557767,-22.7219,1005.141
2.095535755,1.851004,-0.3620844,-0.8937021,-0.08371361,-0.01717275,0.9510616,32.87824,7.557767,-22.7219,1005.141
2.098012447,4.239109,-0.9066988,-1.07719,-0.0661777,-0.006795799,0.9761181,32.87824,7.557767,-22.7219,1005.141
2.100489616,5.463778,-0.3015717,-0.6490523,-0.06426174,0.003459603,0.9843659,32.87824,7.557767,-22.7219,1005.141
2.102966309,5.769945,0.4245807,-0.1597527,-0.07358434,0.01606362,0.9811029,32.87824,7.557767,-22.7219,1005.141
2.105443954,5.157611,0.4850934,0.1460596,-0.07551321,0.01899853,0.9907822,32.87824,7.557767,-22.7219,1005.141
2.107921124,4.116642,0.0615045,0.207222,-0.07209907,0.01902318,0.9936596,32.87824,7.557767,-22.7219,1005.141
2.110397816,3.38184,-0.3015717,0.3907094,-0.07255051,0.01366801,0.9950826,32.87824,7.557767,-22.7219,1005.141
2.112874985,3.136906,-0.846186,0.6353592,-0.07301831,0.009767753,0.9940999,32.87824,7.557767,-22.7219,1005.141
2.115351677,2.891973,-1.209262,1.002334,-0.07108881,0.011722,0.9926513,32.87824,7.557767,-22.7219,1005.141
2.120305538,2.524572,-0.7856733,0.8188466,-0.07107016,0.01662406,1.006191,32.87824,7.557767,-22.7219,1005.141
2.122783184,2.708272,-0.4831098,0.7576842,-0.06718504,0.01321815,0.9989125,32.87824,7.557767,-22.7219,1005.14
2.125259399,3.136906,-0.1200336,0.8800091,-0.07295065,0.002971903,1.002753,32.88482,7.199493,-22.27206,1005.14
2.127737045,3.443074,0.0009917939,0.8188466,-0.07205868,0.01562994,0.9999168,32.88482,7.199493,-22.27206,1005.14
2.130213738,3.871708,0.0009917939,0.8188466,-0.07204824,0.01905951,1.008623,32.88482,7.199493,-22.27206,1005.14
2.132690907,4.300342,0.9691951,0.9411715,-0.05353929,0.01966434,1.017695,32.88482,7.199493,-22.27206,1005.14
2.135167599,3.994175,2.179449,1.002334,-0.06085334,0.02156842,1.015332,32.88482,7.199493,-22.27206,1005.14
2.137644768,3.38184,2.118936,0.8800091,-0.09301828,0.0228209,0.9981378,32.88482,7.199493,-22.27206,1005.14
2.140121460,3.932941,1.271759,0.1460596,-0.08806461,-6.633671E-05,0.9868914,32.88482,7.199493,-22.27206,1005.14
2.142598629,5.218844,0.4850934,-0.03742781,-0.07636375,-0.000474107,0.9945483,32.88482,7.199493,-22.27206,1005.14
2.145076275,5.892412,0.6666315,0.2683845,-0.07252591,0.01368559,1.002323,32.88482,7.199493,-22.27206,1005.14
2.147552490,5.647479,1.150733,0.9411715,-0.07309185,0.02584798,0.9990096,32.88482,7.199493,-22.27206,1005.14
2.150030136,5.096377,1.150733,1.185821,-0.07799661,0.02970415,0.9932641,32.88482,7.199493,-22.27206,1005.14
2.152506828,4.300342,1.150733,1.002334,-0.07947246,0.03506214,0.9971611,32.88482,7.199493,-22.27206,1005.14
2.154983997,3.749241,0.9691951,0.8800091,-0.07701462,0.03216021,1.000029,32.88482,7.199493,-22.27206,1005.14
2.157460690,3.136906,0.7271442,0.5741968,-0.07362776,0.03558747,1.000511,32.88482,7.199493,-22.27206,1005.14
2.159937859,2.340871,0.5456061,0.6353592,-0.0692082,0.03270732,1.008194,32.88482,7.199493,-22.27206,1005.14
2.162414551,1.483603,0.6061188,0.5741968,-0.07552342,0.03023529,1.006286,32.88482,7.199493,-22.27206,1005.14
2.164891720,0.5651007,0.5456061,0.4518718,-0.07798615,0.03460034,1.004391,32.88482,7.199493,-22.27206,1005.14
2.167368412,-0.2309344,0.6061188,0.5741968,-0.07846546,0.02922525,0.9976083,32.88482,7.199493,-22.27206,1005.14
2.169846058,-0.7820356,0.5456061,0.7576842,-0.07942611,0.02825106,0.9995392,32.88482,7.199493,-22.27206,1005.14
2.172322273,-1.088203,0.3035553,1.002334,-0.0750508,0.0268059,0.9966119,32.88482,7.199493,-22.27206,1005.14
2.174799919,-0.965736,0.1220172,1.002334,-0.07407981,0.02534313,0.9937029,32.87824,7.557767,-22.7219,1005.14
2.177276611,-0.7208021,0.3035553,1.002334,-0.07358693,0.02535034,0.995631,32.87824,7.557767,-22.7219,1005.14
2.179753780,-0.5983351,0.1825299,0.7576842,-0.0736011,0.02729569,0.9946758,32.87824,7.557767,-22.7219,1005.14
2.182230949,-0.5371017,0.1220172,0.5741968,-0.07308748,0.02536223,0.9994897,32.87824,7.557767,-22.7219,1005.14
2.184707642,-0.3534013,0.364068,0.8800091,-0.07166721,0.03023082,0.9961282,32.87824,7.557767,-22.7219,1005.14
2.187184811,-0.1697009,0.6061188,1.308146,-0.06632085,0.0317228,0.9975547,32.87824,7.557767,-22.7219,1005.14
2.189661503,-0.2921678,1.150733,1.491634,-0.0605121,0.03955551,1.00239,32.87824,7.557767,-22.7219,1005.14
2.192139149,0.0139995,1.513809,1.308146,-0.08342477,0.03988664,0.9870713,32.87824,7.557767,-22.7219,1005.14
2.194615364,1.177435,0.8481696,0.5130343,-0.09410293,0.02518018,0.9691951,32.87824,7.557767,-22.7219,1005.14
2.197093010,2.830739,-0.3015717,-0.2820776,-0.08237916,0.02185555,0.9787674,32.87824,7.557767,-22.7219,1005.14
2.199569702,3.871708,-0.05952091,-0.09859026,-0.07455198,0.02192863,0.99224,32.87824,7.557767,-22.7219,1005.14
2.202046871,3.810475,0.6061188,0.207222,-0.0799583,0.03114899,0.9908689,32.87824,7.557767,-22.7219,1005.139
2.204523563,3.320607,0.364068,0.5130343,-0.07996153,0.03407992,0.9947454,32.87824,7.557767,-22.7219,1005.139
2.207000732,2.647039,0.3035553,0.4518718,-0.08190955,0.0360234,0.9971794,32.87824,7.557767,-22.7219,1005.139
2.209477425,1.973471,0.3035553,0.2683845,-0.07944848,0.03019055,0.9961706,32.87824,7.557767,-22.7219,1005.139
2.211954594,1.422369,0.1220172,0.4518718,-0.07895345,0.02775493,0.9947075,32.87824,7.557767,-22.7219,1005.139
2.214432240,1.60607,0.0009917939,0.207222,-0.0770065,0.02776617,0.9951794,32.87824,7.557767,-22.7219,1005.139
2.216908932,2.034704,0.0615045,0.3907094,-0.07846498,0.02531462,0.9913133,32.87824,7.557767,-22.7219,1005.139
2.219386101,2.218405,-0.1200336,0.3295469,-0.07894313,0.02385133,0.9913085,32.87824,7.557767,-22.7219,1005.139
2.221862793,3.01444,0.1220172,0.207222,-0.07504537,0.02436542,0.9941859,32.87824,7.557767,-22.7219,1005.139
2.224339962,3.688008,0.4850934,0.02373465,-0.07263988,0.03022579,0.9961335,32.87824,7.557767,-22.7219,1005.139
2.226816654,3.810475,1.453297,-0.09859026,-0.06191539,0.03665454,1.013967,32.88258,7.17664,-23.47545,1005.139
2.229293823,3.38184,2.058424,-0.1597527,-0.08338762,0.03942432,0.997205,32.88258,7.17664,-23.47545,1005.139
2.231770515,3.38184,1.150733,-0.7713773,-0.0901572,0.01888436,0.9749333,32.88258,7.17664,-23.47545,1005.139
2.234247685,4.79021,0.2430426,-1.260677,-0.07644287,0.007780174,0.9849375,32.88258,7.17664,-23.47545,1005.139
2.236724377,5.769945,0.2430426,-0.8937021,-0.06816476,0.01565242,1.000861,32.88258,7.17664,-23.47545,1005.139
2.239202023,5.953646,1.029708,-0.5878899,-0.07115033,0.02683307,0.9994866,32.88258,7.17664,-23.47545,1005.139
2.241678715,5.708712,1.453297,-0.465565,-0.07605455,0.0311785,0.9947091,32.88258,7.17664,-23.47545,1005.139
2.244155884,5.525012,1.513809,-0.7102148,-0.08819322,0.02379648,0.9884628,32.88258,7.17664,-23.47545,1005.138
2.246632576,6.014879,0.8481696,-1.566489,-0.0901434,0.02671616,0.9918672,32.88258,7.17664,-23.47545,1005.138
2.249109745,6.443513,0.3035553,-1.933464,-0.07750808,0.0301971,0.9947121,32.88258,7.17664,-23.47545,1005.138
2.251586914,6.259813,0.364068,-1.749977,-0.07555515,0.02825713,0.993726,32.88258,7.17664,-23.47545,1005.138
2.254063606,5.463778,0.2430426,-1.138352,-0.0746042,0.03802409,1.003424,32.88258,7.17664,-23.47545,1005.138
2.256540775,3.932941,0.3035553,-0.6490523,-0.07313422,0.04195047,1.01309,32.88258,7.17664,-23.47545,1005.138
2.259017468,2.034704,0.3035553,-0.5267274,-0.07550476,0.03513735,1.019826,32.88258,7.17664,-23.47545,1005.138
2.261495113,0.1364664,0.364068,-0.3432401,-0.07304968,0.03125571,1.020275,32.88258,7.17664,-23.47545,1005.138
2.263971806,-1.088203,0.7271442,-0.2820776,-0.07404207,0.02683672,1.007225,32.88258,7.17664,-23.47545,1005.138
2.266448975,-1.578071,0.7271442,-0.2209152,-0.07593347,0.01513226,1.003797,32.88258,7.17664,-23.47545,1005.138
2.278833389,1.667303,1.392784,0.5130343,-0.0720048,0.001002287,0.9916359,32.87249,7.924463,-22.72838,1005.138
2.278833389,1.667303,1.392784,0.5130343,-0.0720048,0.001002287,0.9916359,32.87249,7.924463,-22.72838,1005.138
2.281310558,2.953206,1.75586,0.4518718,-0.07104734,0.00784067,0.9984232,32.87249,7.924463,-22.72838,1005.138
2.283788204,4.177875,1.997911,0.3907094,-0.06666815,0.009820393,1.002271,32.87249,7.924463,-22.72838,1005.135
2.286264896,5.341311,2.542525,0.3295469,-0.06377362,0.01372972,1.001792,32.87249,7.924463,-22.72838,1005.135
2.288742065,6.38228,3.32919,0.6965217,-0.06476586,0.01957715,1.005689,32.87249,7.924463,-22.72838,1005.135
2.291218758,6.994615,3.873805,0.8800091,-0.06675915,0.02784363,1.00526,32.87249,7.924463,-22.72838,1005.135
2.293695927,7.545716,4.176368,0.9411715,-0.07409123,0.02973483,0.997587,32.87249,7.924463,-22.72838,1005.135
2.296172619,8.035583,4.539444,0.7576842,-0.07752278,0.03458646,0.9976307,32.87249,7.924463,-22.72838,1005.135
2.298649788,8.219284,4.842008,0.5130343,-0.0785156,0.03847799,0.9981388,32.87249,7.924463,-22.72838,1005.135
2.301126480,8.158051,4.842008,0.3295469,-0.08046586,0.03699777,0.9942805,32.87249,7.924463,-22.72838,1005.135
2.303604126,7.668183,4.539444,0.1460596,-0.08337295,0.03356834,0.9918653,32.87249,7.924463,-22.72838,1005.135
2.306080341,7.606949,4.539444,0.1460596,-0.08293567,0.0423355,0.991908,32.87249,7.924463,-22.72838,1005.135
2.308557987,7.913117,4.176368,0.02373465,-0.08245161,0.03744768,0.983192,32.87249,7.924463,-22.72838,1005.135
2.311034679,9.505187,3.873805,-0.2209152,-0.08053687,0.03939138,0.9773993,32.87249,7.924463,-22.72838,1005.135
2.313511849,10.30122,3.389703,-0.5878899,-0.08498348,0.05887384,0.989108,32.87249,7.924463,-22.72838,1005.135
2.315988541,8.219284,2.784576,-1.07719,-0.08011135,0.06526066,1.002146,32.87249,7.924463,-22.72838,1005.135
2.318465710,6.259813,2.784576,-1.505327,-0.08294918,0.05210328,1.004025,32.87249,7.924463,-22.72838,1005.135
2.320942879,5.218844,3.026627,-1.199515,-0.07995816,0.03994879,1.005394,32.87249,7.924463,-22.72838,1005.135
2.323419571,3.626774,3.08714,-0.7102148,-0.08187456,0.03653728,1.008283,32.87249,7.924463,-22.72838,1005.136
2.325897217,1.60607,2.603038,-0.2820776,-0.08974098,0.04376924,0.9953313,32.87249,7.924463,-22.72838,1005.136
2.328373432,-0.1084674,1.997911,-0.09859026,-0.09023935,0.04326925,0.9909875,32.87249,7.924463,-22.72838,1005.136
2.330851078,-1.639304,1.392784,-0.09859026,-0.08242754,0.03844262,0.9918852,32.87249,7.924463,-22.72838,1005.136
2.333327770,-2.129172,1.150733,-0.465565,-0.08190468,0.03309365,0.9937856,32.87249,7.924463,-22.72838,1005.136
2.335804939,-2.006705,1.150733,-0.4044026,-0.07799116,0.0287303,0.9932591,32.87249,7.924463,-22.72838,1005.136
2.338281632,-1.700538,1.211246,-0.4044026,-0.07994463,0.03164764,0.9956982,32.87249,7.924463,-22.72838,1005.136
2.340758801,-1.639304,1.332271,-0.465565,-0.08138997,0.0306721,0.9981145,32.87249,7.924463,-22.72838,1005.136
2.343235493,-1.823005,1.332271,-0.3432401,-0.08334942,0.03554065,1.002012,32.87249,7.924463,-22.72838,1005.136
2.345712662,-1.884238,1.332271,-0.5267274,-0.07895666,0.03215249,1.001005,32.87249,7.924463,-22.72838,1005.136
2.348189354,-2.435339,1.513809,-0.465565,-0.07456715,0.03022861,1.001454,32.87249,7.924463,-22.72838,1005.136
2.350667000,-2.863973,1.816373,-0.3432401,-0.07794528,0.02729647,1.004353,32.87249,7.924463,-22.72838,1005.136
2.353144169,-3.047674,1.816373,-0.2209152,-0.08185341,0.02628609,0.9976118,32.87249,7.924463,-22.72838,1005.136
2.355620861,-3.170141,1.816373,-0.09859026,-0.08477633,0.02480084,0.9937587,32.87249,7.924463,-22.72838,1005.136
2.358098030,-2.98644,1.574322,0.1460596,-0.08524739,0.02236487,0.9942315,32.87249,7.924463,-22.72838,1005.136
2.360574722,-2.80274,1.574322,0.02373465,-0.07942403,0.02140833,0.9888851,32.87249,7.924463,-22.72838,1005.136
2.363051891,-2.496573,1.634835,-0.1597527,-0.07307933,0.02243482,0.9970613,32.87249,7.924463,-22.72838,1005.137
2.365528584,-2.006705,1.453297,-0.3432401,-0.07791592,0.01705114,0.9960947,32.87249,7.924463,-22.72838,1005.137
2.368005753,-1.455604,1.75586,-0.6490523,-0.08379065,0.01894872,0.9879311,32.87249,7.924463,-22.72838,1005.137
2.370482445,-1.271903,1.513809,-0.465565,-0.08431245,0.02234295,0.9831246,32.87249,7.924463,-22.72838,1005.137
2.372960091,-1.271903,1.332271,-0.3432401,-0.07897419,0.0296956,0.9918213,32.87249,7.924463,-22.72838,1005.137
2.375436783,-1.639304,1.453297,-0.09859026,-0.07705011,0.03409033,0.9927988,32.87249,7.924463,-22.72838,1005.137
2.377913952,-2.190405,1.513809,0.1460596,-0.08001063,0.03991129,0.9899489,32.50924,7.569422,-21.89714,1005.137
2.380390644,-2.863973,1.513809,0.207222,-0.07417406,0.04483065,0.9981477,32.50924,7.569422,-21.89714,1005.137
2.382867813,-3.843709,1.453297,0.1460596,-0.07951495,0.04383147,0.9991372,32.50924,7.569422,-21.89714,1005.137
2.387821674,-5.43578,1.271759,0.08489711,-0.08243297,0.0408831,0.9943112,32.50924,7.569422,-21.89714,1005.137
2.390298843,-5.680713,0.8481696,0.08489711,-0.08191725,0.03357355,0.9908921,32.50924,7.569422,-21.89714,1005.137
2.392775536,-5.558246,0.4850934,0.1460596,-0.08043702,0.02919643,0.9898962,32.50924,7.569422,-21.89714,1005.137
2.395253182,-5.190845,0.4245807,0.3295469,-0.08042715,0.0306701,0.995213,32.50924,7.569422,-21.89714,1005.137
2.397729874,-4.823445,0.5456061,0.5130343,-0.07800645,0.02969712,0.9903681,32.50924,7.569422,-21.89714,1005.137
2.400207043,-4.456044,0.3035553,0.6353592,-0.08287902,0.03015418,0.9884664,32.50924,7.569422,-21.89714,1005.137
2.402683735,-4.088643,0.1825299,0.2683845,-0.07942777,0.02678325,0.9966357,32.50924,7.569422,-21.89714,1005.135
2.405160904,-3.721242,0.3035553,0.3295469,-0.08233047,0.02580133,0.9995425,32.50924,7.569422,-21.89714,1005.135
2.407637596,-3.415075,0.364068,0.3907094,-0.08481778,0.0301488,0.9904076,32.50924,7.569422,-21.89714,1005.135
2.410114765,-3.476308,0.3035553,0.3295469,-0.08876185,0.03791243,0.9875731,32.50924,7.569422,-21.89714,1005.135
2.412591457,-3.660008,0.1825299,0.3295469,-0.08537771,0.04182662,0.9880573,32.50924,7.569422,-21.89714,1005.135
2.415068627,-3.721242,0.3035553,0.207222,-0.08240955,0.03552225,0.9923528,32.50924,7.569422,-21.89714,1005.135
2.417546272,-4.088643,0.364068,0.1460596,-0.07844527,0.02679531,0.9995264,32.50924,7.569422,-21.89714,1005.135
2.420022965,-4.456044,0.5456061,0.02373465,-0.07407536,0.03072391,1.003867,32.50924,7.569422,-21.89714,1005.135
2.422500134,-4.762211,1.029708,0.2683845,-0.07601582,0.02631746,0.9980627,32.50924,7.569422,-21.89714,1005.135
2.424976826,-5.252079,1.392784,0.5130343,-0.07941362,0.02337126,0.99517,32.50924,7.569422,-21.89714,1005.135
2.427453995,-5.61948,1.332271,0.3907094,-0.08089228,0.02334965,0.9893858,32.87824,7.557767,-22.7219,1005.135
2.429930687,-5.43578,1.211246,0.3295469,-0.07993814,0.02725242,0.990366,32.87824,7.557767,-22.7219,1005.135
2.432407856,-5.252079,1.574322,0.1460596,-0.07941419,0.02141536,0.9917812,32.87824,7.557767,-22.7219,1005.135
2.434884548,-4.762211,1.75586,0.08489711,-0.07260671,0.01900543,0.9873875,32.87824,7.557767,-22.7219,1005.135
2.437362194,-4.149877,1.634835,0.5130343,-0.07506017,0.02142161,0.985,32.87824,7.557767,-22.7219,1005.135
2.439838410,-3.598775,1.695347,0.9411715,-0.08043549,0.02186444,0.9782742,32.87824,7.557767,-22.7219,1005.135
2.442316055,-2.863973,1.453297,0.9411715,-0.0819365,0.02524896,0.9715422,32.87824,7.557767,-22.7219,1005.134
2.444792748,-1.578071,1.150733,0.5130343,-0.0814731,0.0267017,0.9672031,32.87824,7.557767,-22.7219,1005.134
2.447269917,-0.2309344,1.09022,0.2683845,-0.07418632,0.02966687,0.9695919,32.87824,7.557767,-22.7219,1005.134
2.449746609,1.054968,1.513809,-0.03742781,-0.07415302,0.0272463,0.9753714,32.87824,7.557767,-22.7219,1005.134
2.452223778,1.667303,1.392784,0.02373465,-0.08238351,0.02380793,0.9807081,32.87824,7.557767,-22.7219,1005.134
2.454700947,1.728537,1.332271,0.02373465,-0.08726643,0.02670197,0.9797844,32.87824,7.557767,-22.7219,1005.134
2.457177639,1.422369,1.392784,0.2683845,-0.08534455,0.03060626,0.9793113,32.87824,7.557767,-22.7219,1005.134
2.459655285,0.993735,1.029708,0.2683845,-0.08826199,0.0296138,0.9778742,32.87824,7.557767,-22.7219,1005.134
2.462131500,0.3201669,0.6666315,0.5741968,-0.08384959,0.02477306,0.9802386,32.87824,7.557767,-22.7219,1005.134
2.464609146,-0.2921678,0.6061188,0.6965217,-0.07117061,0.02339648,0.9878849,32.87824,7.557767,-22.7219,1005.134
2.467085838,-0.9045025,1.029708,1.185821,-0.07264643,0.0302211,0.9942029,32.87824,7.557767,-22.7219,1005.134
2.469563007,-1.02697,1.392784,1.613959,-0.1097664,0.03431605,0.9548475,32.87824,7.557767,-22.7219,1005.134
2.472039700,-0.7820356,-0.3620844,0.9411715,-0.1185347,0.02888294,0.9418352,32.87824,7.557767,-22.7219,1005.134
2.474516869,-0.1697009,-2.116953,0.6353592,-0.1013848,0.02221854,0.9682544,32.87824,7.557767,-22.7219,1005.134
2.476993561,0.5651007,-2.601054,0.5130343,-0.07794964,0.02778223,1.003873,32.87824,7.557767,-22.7219,1005.134
2.479470730,0.7488011,-2.05644,0.5130343,-0.07941674,0.03363535,1.011151,32.88328,7.183856,-23.09544,1005.134
2.481947422,0.6875677,-1.330288,0.5741968,-0.09164048,0.03792545,0.9991732,32.88328,7.183856,-23.09544,1005.135
2.484425068,0.6263342,-1.209262,0.2683845,-0.08962263,0.02820992,1.004422,32.88328,7.183856,-23.09544,1005.135
2.486902237,0.993735,-1.14875,-0.09859026,-0.07498147,0.02147786,1.008168,32.88328,7.183856,-23.09544,1005.135
2.489378929,1.361136,-0.4831098,-0.2209152,-0.07448541,0.01562087,1.001378,32.88328,7.183856,-23.09544,1005.135
2.491856098,2.647039,0.7271442,-0.5878899,-0.07349098,0.01026388,0.9989318,32.88328,7.183856,-23.09544,1005.135
2.494332790,5.096377,2.603038,-1.321839,-0.08081937,0.00238026,0.9762455,32.88328,7.183856,-23.09544,1005.135
2.496809960,6.749681,2.058424,-1.444164,-0.08912794,0.003774811,0.9666445,32.88328,7.183856,-23.09544,1005.135
2.499286652,8.402985,0.6061188,-0.7713773,-0.09735949,0.00229117,0.9748875,32.88328,7.183856,-23.09544,1005.135
2.501763821,9.811355,-0.3015717,-0.465565,-0.09594627,0.01106571,0.9758903,32.88328,7.183856,-23.09544,1005.135
2.504240513,11.03602,-0.9066988,-0.465565,-0.09014888,0.02622338,0.9894513,32.88328,7.183856,-23.09544,1005.135
2.506718159,11.46466,-0.9066988,-0.5878899,-0.07942929,0.03411524,1.008258,32.88328,7.183856,-23.09544,1005.135
2.509194374,10.66862,-0.4225971,-0.5267274,-0.0784478,0.04048193,1.021317,32.88328,7.183856,-23.09544,1005.135
2.511672020,9.505187,0.5456061,-0.5878899,-0.07112766,0.0439598,1.034327,32.88328,7.183856,-23.09544,1005.135
2.514148712,8.035583,1.453297,-0.6490523,-0.06573278,0.0376645,1.037161,32.88328,7.183856,-23.09544,1005.135
2.516625881,6.627214,2.179449,-0.7102148,-0.08038167,0.03901343,1.022286,32.88328,7.183856,-23.09544,1005.135
2.519103050,5.035144,1.997911,-0.6490523,-0.07995915,0.04630341,1.015563,32.88328,7.183856,-23.09544,1005.135
2.521579743,3.504307,1.75586,-0.465565,-0.08385158,0.03748231,1.000576,32.88328,7.183856,-23.09544,1005.135
2.524056912,2.218405,1.453297,-0.4044026,-0.08968917,0.03745094,1.000125,32.88328,7.183856,-23.09544,1005.137
2.526533604,1.054968,1.271759,-0.4044026,-0.09555126,0.04326852,1.002118,32.88328,7.183856,-23.09544,1005.137
2.529011250,-0.2921678,1.211246,-0.3432401,-0.09412781,0.04227292,0.9900383,33.25535,7.203475,-22.27345,1005.137
2.531487942,-1.149436,0.7876569,-0.3432401,-0.1014402,0.04271155,0.9857364,33.25535,7.203475,-22.27345,1005.137
2.533965111,-2.067938,0.0615045,-0.4044026,-0.09899877,0.04126453,0.9861983,33.25535,7.203475,-22.27345,1005.137
2.536441803,-2.863973,-0.4225971,-0.3432401,-0.09363496,0.03934686,0.9871244,33.25535,7.203475,-22.27345,1005.137
2.538918972,-3.415075,-0.4831098,-0.2820776,-0.0941437,0.03981721,0.9813375,33.25535,7.203475,-22.27345,1005.137
2.541395664,-3.721242,-0.9672114,-0.4044026,-0.0872947,0.03645921,0.9875576,33.25535,7.203475,-22.27345,1005.137
2.543872833,-3.904943,-0.9672114,-0.5878899,-0.0931355,0.04082539,0.9934041,33.25535,7.203475,-22.27345,1005.137
2.546349526,-4.02741,-0.846186,-0.8937021,-0.0941027,0.0398465,0.9934044,33.25535,7.203475,-22.27345,1005.137
2.548826695,-4.088643,-0.846186,-1.016027,-0.08625384,0.02869103,0.9947522,33.25535,7.203475,-22.27345,1005.137
2.551304340,-4.149877,-0.6646479,-1.199515,-0.08137526,0.02774938,0.9976166,33.25535,7.203475,-22.27345,1005.137
2.553781033,-4.02741,-0.4831098,-1.321839,-0.08282388,0.02677149,0.9990677,33.25535,7.203475,-22.27345,1005.137
2.556258202,-3.721242,-0.4831098,-1.321839,-0.07744589,0.02290847,1.000949,33.25535,7.203475,-22.27345,1005.137
2.558734894,-3.108907,-0.1805463,-1.321839,-0.07741047,0.01657845,1.000916,33.25535,7.203475,-22.27345,1005.137
2.561212063,-2.251639,0.0615045,-1.321839,-0.08572992,0.02138733,0.9937463,33.25535,7.203475,-22.27345,1005.137
2.563688755,-1.088203,0.4850934,-1.688814,-0.07890925,0.02338667,1.000477,33.25535,7.203475,-22.27345,1005.136
2.566165924,0.07523298,0.5456061,-2.300439,-0.08084425,0.019473,0.9970886,33.25535,7.203475,-22.27345,1005.136
2.568642616,0.993735,0.3035553,-2.606251,-0.07306079,0.02000371,0.9984967,33.25535,7.203475,-22.27345,1005.136
2.571120262,1.851004,0.5456061,-2.606251,-0.07398757,0.01709823,1.007175,33.25535,7.203475,-22.27345,1005.136
2.573596478,2.218405,0.9691951,-2.483926,-0.07104021,0.009801256,1.003743,33.25535,7.203475,-22.27345,1005.136
2.576074124,2.279638,1.029708,-2.361601,-0.07250901,0.01125331,1.003276,33.25535,7.203475,-22.27345,1005.136
2.578550816,2.340871,0.8481696,-2.116951,-0.07105441,0.01027998,1.000367,32.88807,6.878276,-23.09004,1005.136
2.581027985,2.402105,1.211246,-1.872301,-0.07791433,0.01411905,0.9917356,32.88807,6.878276,-23.09004,1005.136
2.583505154,2.218405,1.09022,-1.505327,-0.07792964,0.01361923,0.9864237,32.88807,6.878276,-23.09004,1005.136
2.585981846,2.279638,0.7271442,-1.07719,-0.07645097,0.01364085,0.9922078,32.88807,6.878276,-23.09004,1005.136
2.588459015,2.340871,0.3035553,-0.8937021,-0.08087867,0.0194484,0.9869524,32.88807,6.878276,-23.09004,1005.136
2.590935707,2.524572,0.0615045,-0.7713773,-0.0818917,0.02430324,0.9831214,32.88807,6.878276,-23.09004,1005.136
2.593413353,2.830739,-0.3620844,-0.7102148,-0.07895578,0.01846469,0.9787313,32.88807,6.878276,-23.09004,1005.136
2.595889568,3.19814,-0.4831098,-0.5267274,-0.0799104,0.01847255,0.9840461,32.88807,6.878276,-23.09004,1005.136
2.598367214,3.38184,-0.6041352,-0.465565,-0.08231581,0.01847871,0.9917821,32.88807,6.878276,-23.09004,1005.136
2.600843907,3.504307,-1.027724,-0.4044026,-0.08231635,0.01945608,0.9932351,32.88807,6.878276,-23.09004,1005.136
2.603321076,3.320607,-1.330288,-0.3432401,-0.07646132,0.01607781,0.9931857,32.88807,6.878276,-23.09004,1005.131
2.605797768,2.953206,-1.451313,-0.03742781,-0.08131533,0.0155704,0.9951404,32.88807,6.878276,-23.09004,1005.131
2.608274937,2.769506,-1.572338,0.02373465,-0.07741375,0.01657611,0.9999509,32.88807,6.878276,-23.09004,1005.131
2.610751629,2.891973,-1.693364,0.207222,-0.08177817,0.01460693,1.000448,32.88807,6.878276,-23.09004,1005.131
2.613228798,3.01444,-1.572338,0.3907094,-0.07840059,0.01851643,0.999001,32.88807,6.878276,-23.09004,1005.131
2.615706444,3.075673,-1.572338,0.207222,-0.07988191,0.02338164,1.000482,32.88807,6.878276,-23.09004,1005.131
2.618183136,3.01444,-1.572338,0.3907094,-0.08033989,0.01948841,1.002395,32.88807,6.878276,-23.09004,1005.131
2.620660305,3.136906,-1.330288,0.4518718,-0.08079618,0.01706299,1.007212,32.88807,6.878276,-23.09004,1005.131
2.623136997,3.259373,-1.3908,0.5130343,-0.08276326,0.02388158,1.012085,32.88807,6.878276,-23.09004,1005.131
2.625614166,3.443074,-1.330288,0.7576842,-0.08419827,0.01900244,1.011102,32.88807,6.878276,-23.09004,1005.131
2.628090859,3.504307,-1.088237,0.7576842,-0.08179443,0.02339501,1.010146,32.88807,6.878276,-23.09004,1005.131
2.630568028,3.810475,-0.6646479,0.7576842,-0.08324735,0.02730277,1.01838,32.87753,7.550551,-23.10192,1005.131
2.633044720,4.055408,-0.6041352,0.6965217,-0.08326423,0.03120168,1.019848,32.87753,7.550551,-23.10192,1005.131
2.635521889,3.932941,-0.241059,0.5130343,-0.08328612,0.02923055,1.010184,32.87753,7.550551,-23.10192,1005.131
2.637998581,3.810475,0.0009917939,0.3295469,-0.08472818,0.02825735,1.013566,32.87753,7.550551,-23.10192,1005.131
2.640476227,3.994175,-0.05952091,0.08489711,-0.08673348,0.03749299,1.011211,32.87753,7.550551,-23.10192,1005.131
2.642952442,3.932941,0.1220172,0.207222,-0.09355734,0.0398912,1.010778,32.87753,7.550551,-23.10192,1005.132
2.645430088,3.810475,0.1825299,-0.03742781,-0.09210271,0.04185114,1.012711,32.87753,7.550551,-23.10192,1005.132
2.647907257,3.504307,0.2430426,-0.2820776,-0.08969449,0.04722458,1.014656,32.87753,7.550551,-23.10192,1005.132
2.650383949,3.01444,0.1220172,-0.4044026,-0.08824694,0.04869056,1.01369,32.87753,7.550551,-23.10192,1005.132
2.655337811,1.116202,0.0009917939,-0.465565,-0.08586008,0.05111551,1.004519,32.87753,7.550551,-23.10192,1005.132
2.657814980,0.07523298,0.1825299,-0.3432401,-0.08973976,0.05208094,1.009372,32.87753,7.550551,-23.10192,1005.132
2.660291672,-0.8432691,0.2430426,-0.465565,-0.08830748,0.05598037,1.007936,32.87753,7.550551,-23.10192,1005.132
2.662769318,-1.884238,0.0615045,-0.4044026,-0.09070423,0.05208176,1.01179,32.87753,7.550551,-23.10192,1005.132
2.665246010,-2.374106,-0.1805463,-0.5267274,-0.09025611,0.05450133,1.00456,32.87753,7.550551,-23.10192,1005.132
2.667723179,-2.925207,0.0009917939,-0.7713773,-0.08829176,0.04816966,0.9996901,32.87753,7.550551,-23.10192,1005.132
2.670199871,-3.108907,-0.1200336,-0.7713773,-0.08682624,0.04671526,0.999192,32.87753,7.550551,-23.10192,1005.132
2.672677040,-3.047674,-0.3015717,-0.8937021,-0.08971367,0.04329989,1.002569,32.87753,7.550551,-23.10192,1005.132
2.675153732,-2.80274,-0.1200336,-1.199515,-0.09263328,0.04328362,1.002102,32.87753,7.550551,-23.10192,1005.132
2.677630901,-2.435339,-0.3620844,-1.260677,-0.09264804,0.04327307,0.9977581,32.87753,7.550551,-23.10192,1005.132
2.680108547,-2.190405,-0.6041352,-1.321839,-0.09070055,0.04230694,0.9967772,33.26014,6.897895,-22.26805,1005.132
2.682584763,-1.884238,-0.6646479,-1.383002,-0.08186154,0.03068013,1.002461,33.26014,6.897895,-22.26805,1005.131
2.685062409,-1.761771,-0.7856733,-1.138352,-0.08088722,0.03215296,1.005359,33.26014,6.897895,-22.26805,1005.131
2.687539101,-1.578071,-0.5436226,-1.07719,-0.0808578,0.02630752,1.004364,33.26014,6.897895,-22.26805,1005.131
2.690016270,-1.149436,-0.6041352,-0.9548646,-0.0803649,0.02778136,1.008713,33.26014,6.897895,-22.26805,1005.131
2.692492962,-0.965736,-0.3620844,-0.6490523,-0.07940371,0.02777819,1.005329,33.26014,6.897895,-22.26805,1005.131
2.694970131,-0.4758682,-0.1805463,-0.2820776,-0.08090962,0.03262582,0.9995698,33.26014,6.897895,-22.26805,1005.131
2.697446823,0.1364664,-0.1200336,-0.1597527,-0.0852855,0.03211508,0.9991086,33.26014,6.897895,-22.26805,1005.131
2.699923992,0.8100346,-0.1200336,-0.2209152,-0.08673352,0.03455973,1.006369,33.26014,6.897895,-22.26805,1005.131
2.702400685,1.422369,0.2430426,-0.4044026,-0.08281889,0.0311749,1.007778,33.26014,6.897895,-22.26805,1005.131
2.704877854,1.973471,0.5456061,-0.5878899,-0.07989539,0.03461606,1.01502,33.26014,6.897895,-22.26805,1005.131
2.707354546,2.218405,1.09022,-0.7713773,-0.08089969,0.03849939,1.01215,33.26014,6.897895,-22.26805,1005.131
2.709832192,2.034704,1.574322,-0.5878899,-0.07992214,0.0370413,1.011171,33.26014,6.897895,-22.26805,1005.131
2.712309361,1.851004,1.75586,-0.5267274,-0.08427947,0.03409944,1.012146,33.26014,6.897895,-22.26805,1005.131
2.714786053,1.728537,2.118936,-0.2820776,-0.08426425,0.02873273,1.007774,33.26014,6.897895,-22.26805,1005.131
2.717263222,1.483603,2.360987,-0.2820776,-0.08625432,0.03260166,1.001047,33.26014,6.897895,-22.26805,1005.131
2.719739914,1.299902,2.542525,-0.3432401,-0.08528005,0.03114123,0.9991035,33.26014,6.897895,-22.26805,1005.131
2.722217083,1.361136,2.663551,-0.3432401,-0.08574565,0.02919804,1.001992,33.26014,6.897895,-22.26805,1005.133
