Time (s),Gyroscope X (deg/s),Gyroscope Y (deg/s),Gyroscope Z (deg/s),Accelerometer X (g),Accelerometer Y (g),Accelerometer Z (g),Magnetometer X (uT),Magnetometer Y (uT),Magnetometer Z (uT),Barometer (hPa)
0.019815922,0.1364664,0.1220172,-0.2820776,0.2523229,0.08247239,0.9627662,-32.63749,3.024377,-18.03686,1011.483
0.039632320,0.1364664,0.1825299,-0.2209152,0.2513491,0.08295546,0.9632568,-32.63749,3.024377,-18.03686,1011.483
0.059448719,0.0139995,0.1220172,-0.3432401,0.2508377,0.08537936,0.9598933,-32.64324,3.391073,-18.04334,1011.483
0.081741810,-0.04723396,0.2430426,-0.2209152,0.2484126,0.08683809,0.9642581,-32.64324,3.391073,-18.04334,1011.482
0.101557732,-0.04723396,0.1825299,-0.1597527,0.2528108,0.08247609,0.9632463,-32.33516,3.387175,-18.42451,1011.481
0.121374130,0.07523298,0.1220172,-0.2820776,0.2493934,0.08391573,0.9618244,-32.33516,3.387175,-18.42451,1011.481
0.141190052,0.3201669,0.2430426,-0.1597527,0.2527896,0.08979401,0.9690762,-32.33516,3.387175,-18.42451,1011.484
0.161006451,0.3201669,0.1825299,0.1460596,0.2518196,0.08490215,0.9618162,-32.33925,3.699971,-18.04989,1011.484
0.180822372,0.1976999,0.0009917939,-0.1597527,0.2537584,0.08637416,0.9622958,-32.33925,3.699971,-18.04989,1011.483
0.200638771,0.0139995,0.1220172,-0.09859026,0.2513491,0.08002219,0.9584149,-32.64803,3.696652,-18.04874,1011.483
0.220454693,0.0139995,0.2430426,-0.2820776,0.2547501,0.08297073,0.9622729,-32.64803,3.696652,-18.04874,1011.478
0.240271092,0.1364664,0.1825299,-0.2209152,0.2537224,0.08928166,0.9565188,-32.64803,3.696652,-18.04874,1011.478
0.260087490,0.07523298,0.2430426,-0.1597527,0.2513061,0.09270215,0.9666858,-32.64324,3.391073,-18.04334,1011.477
0.279903412,0.07523298,0.2430426,-0.09859026,0.2523104,0.08881882,0.9695565,-32.64324,3.391073,-18.04334,1011.477
0.299719811,-0.04723396,0.2430426,-0.09859026,0.2513644,0.08198863,0.9661478,-33.00873,3.013178,-18.41549,1011.477
0.319535732,0.0139995,0.0615045,-0.03742781,0.2561961,0.08590217,0.9632454,-33.00873,3.013178,-18.41549,1011.475
0.341828823,-0.1697009,0.1220172,-0.2209152,0.2552152,0.08295802,0.9559954,-33.00873,3.013178,-18.41549,1011.48
0.361645222,-0.04723396,0.1220172,-0.1597527,0.2518273,0.08588538,0.9656826,-32.33995,3.692754,-18.42991,1011.48
0.381461144,0.07523298,0.1825299,-0.1597527,0.2518366,0.08393651,0.9651898,-32.33995,3.692754,-18.42991,1011.474
0.401277542,0.07523298,0.1825299,-0.2209152,0.2547518,0.0829719,0.9627555,-32.64394,3.383856,-18.42336,1011.474
0.421093941,0.2589334,0.0615045,-0.2209152,0.2537868,0.08248346,0.9642063,-32.64394,3.383856,-18.42336,1011.476
0.440909863,0.3201669,0.0615045,-0.09859026,0.2498852,0.08294439,0.9618167,-32.64394,3.383856,-18.42336,1011.476
0.460726261,0.2589334,0.0009917939,-0.2209152,0.2518404,0.08149485,0.9622812,-33.01774,3.701088,-17.604,1011.477
0.480542183,0.1976999,0.1825299,-0.1597527,0.2469662,0.08341738,0.9623178,-33.01774,3.701088,-17.604,1011.477
0.500358582,0.1364664,0.2430426,-0.1597527,0.2493814,0.08635151,0.9623197,-32.33925,3.699971,-18.04989,1011.474
0.520174503,0.0139995,0.2430426,-0.2209152,0.2483962,0.08389311,0.9545897,-32.33925,3.699971,-18.04989,1011.474
0.539990902,-0.04723396,0.1220172,-0.1597527,0.2532727,0.08539429,0.9608454,-32.33925,3.699971,-18.04989,1011.474
0.559807300,0.1976999,0.0009917939,-0.2820776,0.2523197,0.08540332,0.9666428,-33.00802,3.020395,-18.03547,1011.472
0.579623222,-0.04723396,0.0009917939,-0.1597527,0.2532405,0.09319329,0.9642643,-33.00802,3.020395,-18.03547,1011.472
0.599439621,-0.1697009,0.1825299,-0.2209152,0.2557043,0.08687351,0.9632531,-33.00802,3.020395,-18.03547,1011.473
0.621732712,0.0139995,0.0615045,-0.1597527,0.2523441,0.07808773,0.9617783,-32.64874,3.689435,-18.42875,1011.474
0.641548633,0.1364664,0.0615045,-0.09859026,0.2518137,0.08685337,0.9632743,-32.64874,3.689435,-18.42875,1011.474
0.661365032,0.1364664,0.1825299,-0.03742781,0.2542589,0.08443133,0.9632484,-32.33445,3.394392,-18.04449,1011.473
0.681181431,0.1364664,0.1825299,-0.09859026,0.2513082,0.09025933,0.9632946,-32.33445,3.394392,-18.04449,1011.473
0.700997353,0.0139995,0.3035553,-0.1597527,0.2479595,0.08001512,0.9627775,-32.33925,3.699971,-18.04989,1011.474
0.720813751,-0.04723396,0.1825299,-0.2820776,0.2537693,0.08295984,0.9598648,-32.33925,3.699971,-18.04989,1011.474
0.740629673,0.2589334,0.1220172,-0.09859026,0.2484159,0.08390717,0.9603817,-32.33925,3.699971,-18.04989,1011.474
0.760446072,0.07523298,0.0615045,-0.09859026,0.246952,0.08536274,0.9613626,-33.01448,3.379873,-18.42197,1011.474
0.780261993,0.1976999,0.0615045,-0.2209152,0.2552233,0.08149724,0.9559879,-33.01448,3.379873,-18.42197,1011.474
0.800078392,0.0139995,0.2430426,-0.2820776,0.2518381,0.07953778,0.9584098,-33.01448,3.379873,-18.42197,1011.475
0.819894791,0.1364664,0.0615045,-0.2820776,0.2537453,0.08489816,0.9560134,-32.66024,4.422826,-18.44172,1011.475
0.839710712,0.1364664,0.0615045,-0.2820776,0.250829,0.08781751,0.961354,-32.66024,4.422826,-18.44172,1011.472
0.859527111,0.1364664,0.1220172,-0.2209152,0.2489104,0.08538218,0.9652133,-33.00873,3.013178,-18.41549,1011.472
0.881820202,-0.1084674,0.0615045,-0.09859026,0.2503595,0.08391608,0.9598884,-33.00873,3.013178,-18.41549,1011.474
0.901637077,0.07523298,0.0615045,-0.2209152,0.2542578,0.08051953,0.9564709,-33.00873,3.013178,-18.41549,1011.475
0.921452522,-0.04723396,0.0009917939,-0.09859026,0.2532694,0.08539195,0.9598801,-33.02432,4.059364,-18.05383,1011.475
0.941268921,0.1976999,0.364068,-0.2209152,0.2542148,0.09026623,0.9598999,-33.02432,4.059364,-18.05383,1011.47
0.961084843,-0.04723396,0.0615045,-0.03742781,0.2493923,0.08293719,0.9598886,-32.64324,3.391073,-18.04334,1011.47
0.980901241,-0.1697009,0.4850934,-0.1597527,0.2513748,0.07955167,0.9651698,-32.64324,3.391073,-18.04334,1011.47
1.000717163,0.1976999,0.1220172,-0.1597527,0.2513453,0.08246385,0.9613236,-32.64324,3.391073,-18.04334,1011.469
1.020533562,-0.04723396,0.3035553,-0.1597527,0.2527857,0.08636913,0.9623011,-32.6497,3.750551,-18.42984,1011.469
1.040350437,0.1364664,0.2430426,-0.2209152,0.2537977,0.07906913,0.9617754,-32.6497,3.750551,-18.42984,1011.47
1.060165882,0.1364664,0.1825299,-0.1597527,0.2494093,0.08343817,0.9656833,-33.01928,3.685452,-18.42737,1011.47
1.079982281,0.07523298,0.0615045,-0.1597527,0.248418,0.08293098,0.9594113,-33.01928,3.685452,-18.42737,1011.469
1.099799156,0.2589334,0.1220172,-0.2820776,0.2557316,0.08493753,0.9680698,-33.01928,3.685452,-18.42737,1011.469
1.119614601,0.1976999,0.2430426,-0.2820776,0.2552142,0.08784601,0.9637435,-33.01857,3.692668,-18.04735,1011.465
1.139431477,0.0139995,0.3035553,-0.2209152,0.2518131,0.08489747,0.9598855,-33.01857,3.692668,-18.04735,1011.465
1.161724567,0.2589334,0.0615045,-0.1597527,0.2542709,0.08346216,0.9651741,-33.01377,3.38709,-18.04195,1011.466
1.181540966,0.3814003,0.2430426,-0.2209152,0.2498628,0.08341725,0.9560271,-33.01377,3.38709,-18.04195,1011.465
1.201356888,-0.04723396,0.2430426,-0.09859026,0.2571785,0.08298098,0.9612944,-33.01377,3.38709,-18.04195,1011.465
1.221173286,0.1364664,0.0615045,-0.1597527,0.2528076,0.085407,0.9671229,-32.33516,3.387175,-18.42451,1011.465
1.240989208,0.3814003,0.1825299,-0.09859026,0.2518076,0.08587132,0.9598905,-32.33516,3.387175,-18.42451,1011.462
1.260805607,-0.04723396,0.0615045,-0.2209152,0.253783,0.08345848,0.9646941,-32.33445,3.394392,-18.04449,1011.462
1.280622006,0.07523298,0.1825299,-0.2209152,0.2494038,0.08441202,0.9656883,-32.33445,3.394392,-18.04449,1011.461
1.300437927,0.07523298,0.0615045,-0.1597527,0.2493722,0.08683375,0.9603915,-32.33445,3.394392,-18.04449,1011.461
1.320254326,-0.1697009,0.364068,-0.03742781,0.252336,0.08248177,0.9666277,-33.00802,3.020395,-18.03547,1011.462
1.340070248,0.2589334,-0.05952091,-0.09859026,0.2551667,0.09221192,0.9570086,-33.00802,3.020395,-18.03547,1011.462
1.359886646,0.07523298,0.1220172,-0.1597527,0.2513344,0.08587817,0.9637547,-33.01448,3.379873,-18.42197,1011.458
1.379703045,0.0139995,0.2430426,-0.09859026,0.2513284,0.08489612,0.9603708,-33.01448,3.379873,-18.42197,1011.458
1.399518967,-0.1697009,0.1825299,-0.3432401,0.2542365,0.08637083,0.9598798,-33.01448,3.379873,-18.42197,1011.457
1.421812534,-0.04723396,0.1220172,-0.09859026,0.2494071,0.08294773,0.9642327,-33.01519,3.372656,-18.80198,1011.458
1.441628456,0.1364664,0.1825299,-0.2209152,0.2503486,0.08439713,0.9574776,-33.01519,3.372656,-18.80198,1011.458
1.461444855,-0.1697009,0.3035553,-0.2820776,0.2508513,0.08441137,0.9623017,-32.33995,3.692754,-18.42991,1011.458
1.481260777,0.0139995,0.1825299,-0.2820776,0.2538179,0.07957245,0.9685354,-32.33995,3.692754,-18.42991,1011.457
1.501077175,0.1976999,0.2430426,-0.2209152,0.2513436,0.08246267,0.9608409,-32.33995,3.692754,-18.42991,1011.457
1.520893574,0.5038673,0.0615045,-0.2209152,0.2523316,0.08150089,0.9637267,-32.33012,3.013263,-18.79805,1011.453
1.540709495,0.1976999,0.1825299,-0.2209152,0.2498989,0.08344303,0.966646,-32.33012,3.013263,-18.79805,1011.453
1.560525894,0.1976999,0.1220172,-0.03742781,0.2542709,0.08199553,0.9627531,-33.02023,3.746568,-18.42845,1011.456
1.580342293,0.1364664,0.2430426,-0.1597527,0.2503612,0.08831714,0.9676338,-33.02023,3.746568,-18.42845,1011.456
1.600158214,0.4426338,0.2430426,-0.2209152,0.2552491,0.08249336,0.9651638,-33.02023,3.746568,-18.42845,1011.457
1.619974613,0.2589334,0.0615045,-0.2820776,0.2498661,0.08488623,0.9594134,-32.64899,3.757768,-18.04982,1011.457
1.639791012,0.6263342,0.1825299,-0.2820776,0.2523082,0.08539511,0.9632641,-32.64899,3.757768,-18.04982,1011.452
1.659606934,0.3201669,0.1825299,-0.2820776,0.251836,0.08344723,0.964222,-33.38502,3.37589,-18.42058,1011.452
1.679423332,0.2589334,0.1825299,-0.1597527,0.2542338,0.08685775,0.9598823,-33.38502,3.37589,-18.42058,1011.452
1.701716423,0.5651007,0.0615045,-0.3432401,0.254724,0.08735188,0.9618129,-33.38502,3.37589,-18.42058,1011.452
1.721533298,0.3814003,0.3035553,-0.2209152,0.2547441,0.08052205,0.9564682,-33.01448,3.379873,-18.42197,1011.453
1.741348743,0.1364664,0.3035553,-0.1597527,0.2542377,0.08881599,0.9642364,-33.01448,3.379873,-18.42197,1011.453
1.761165142,0.3814003,0.2430426,-0.2209152,0.2513011,0.08976536,0.960396,-33.02432,4.059364,-18.05383,1011.455
1.780982017,0.2589334,0.1220172,-0.1597527,0.2508263,0.08830443,0.9613565,-33.02432,4.059364,-18.05383,1011.455
1.800797462,0.3814003,0.3035553,-0.2209152,0.2527655,0.08733244,0.9579621,-33.02432,4.059364,-18.05383,1011.452
1.820614338,-0.2309344,0.3035553,-0.03742781,0.2533326,0.07468195,0.96079,-32.64324,3.391073,-18.04334,1011.452
1.840430737,0.2589334,0.1220172,-0.09859026,0.2556596,0.09221913,0.9589367,-32.64324,3.391073,-18.04334,1011.451
1.860246658,0.0139995,0.1825299,-0.09859026,0.2459995,0.0843944,0.9657069,-33.02023,3.746568,-18.42845,1011.451
1.880063057,-0.04723396,0.0615045,-0.03742781,0.2493962,0.08489542,0.9642428,-33.02023,3.746568,-18.42845,1011.454
1.899879456,-0.1697009,0.2430426,-0.2209152,0.2527775,0.08489664,0.9574668,-33.02023,3.746568,-18.42845,1011.454
1.919695377,0.1364664,0.2430426,-0.09859026,0.2488907,0.08683475,0.9618421,-33.01448,3.379873,-18.42197,1011.453
1.939511776,-0.2309344,0.2430426,-0.1597527,0.2532645,0.08538843,0.958432,-33.01448,3.379873,-18.42197,1011.453
1.961804867,-0.4758682,0.0615045,-0.1597527,0.2547572,0.08199805,0.9627505,-32.64394,3.383856,-18.42336,1011.455
1.981621265,0.0139995,0.1220172,-0.09859026,0.25426,0.0824766,0.9603424,-32.64394,3.383856,-18.42336,1011.455
2.001437187,-0.1084674,0.0615045,-0.1597527,0.2523246,0.0839402,0.9656699,-32.64394,3.383856,-18.42336,1011.452
2.021253586,-0.1697009,0.1220172,-0.03742781,0.251348,0.08197692,0.9613211,-32.64465,3.376639,-18.80337,1011.452
2.041069984,-0.3534013,0.0009917939,-0.03742781,0.271257,0.08254712,0.9530095,-32.64465,3.376639,-18.80337,1011.454
2.060885906,-0.04723396,-0.1805463,-0.09859026,0.2917029,0.07875626,0.9523954,-32.64465,3.376639,-18.80337,1011.454
2.080702305,2.095937,0.4245807,0.3295469,0.2570347,0.155864,0.8965079,-32.63749,3.024377,-18.03686,1011.455
2.100518703,-0.4758682,-0.3620844,0.08489711,0.2750327,0.03736512,0.9875095,-32.63749,3.024377,-18.03686,1011.455
2.120334625,0.0139995,0.0009917939,0.2683845,0.2519794,0.05959497,0.9669948,-33.38431,3.383107,-18.04056,1011.453
2.140151024,3.320607,0.2430426,1.430471,0.301799,0.08102614,1.064333,-33.38431,3.383107,-18.04056,1011.453
2.159967423,1.973471,0.1220172,0.3295469,0.2882629,0.1776091,0.9620929,-33.38431,3.383107,-18.04056,1011.454
2.179783821,6.259813,-0.7251607,-1.07719,0.3053039,0.01966161,0.8501723,-32.64324,3.391073,-18.04334,1011.454
2.199599743,-4.700978,-3.932334,0.5130343,0.3010105,-0.01647782,0.8152574,-32.64324,3.391073,-18.04334,1011.453
2.219416142,-1.02697,-2.298491,0.7576842,0.2787161,0.06412509,0.970733,-32.64899,3.757768,-18.04982,1011.453
2.241709232,3.320607,-2.419516,1.308146,0.2042838,0.1680539,1.421048,-32.64899,3.757768,-18.04982,1011.454
2.261526108,3.932941,-3.024643,2.837208,0.3269272,0.1750493,1.02896,-32.64899,3.757768,-18.04982,1011.454
2.281342506,-0.965736,-2.72208,0.4518718,0.3368769,0.04668574,0.8829604,-33.38502,3.37589,-18.42058,1011.456
2.301158428,-6.231814,-4.718999,3.081857,0.2787688,0.07721852,1.150356,-33.38502,3.37589,-18.42058,1011.456
2.320974827,-0.5983351,-1.511826,1.002334,0.2974122,-0.02313327,0.890058,-32.64324,3.391073,-18.04334,1011.457
2.340791226,-0.2309344,-0.05952091,-0.8937021,0.2383184,0.06012589,0.8126152,-32.64324,3.391073,-18.04334,1011.457
2.360607147,-5.680713,-1.511826,1.002334,0.2256355,0.04752364,1.066026,-32.64324,3.391073,-18.04334,1011.458
2.380423546,0.3201669,-2.903618,0.6353592,0.2239093,0.1529215,1.161182,-32.65378,4.063347,-18.05522,1011.458
2.400239945,3.320607,-1.632851,1.185821,0.2073141,0.1922478,1.351167,-32.65378,4.063347,-18.05522,1011.454
2.420055866,-2.251639,-0.1805463,-1.260677,0.202232,0.1496782,1.074402,-31.96814,3.780706,-17.22899,1011.454
2.439872265,-1.578071,-1.14875,-0.6490523,0.2217478,0.1038697,1.017103,-31.96814,3.780706,-17.22899,1011.455
2.459688664,-0.3534013,-1.088237,-0.7713773,0.2269779,0.07643515,0.9368094,-31.96814,3.780706,-17.22899,1011.455
2.479504585,1.361136,-0.3015717,-0.8325397,0.2328245,0.09456123,0.9696926,-32.64816,3.766188,-17.60646,1011.456
2.501798153,-0.1697009,1.271759,-1.383002,0.2357946,0.104391,1.001101,-32.64816,3.766188,-17.60646,1011.456
2.521614075,-0.04723396,3.08714,-1.811139,0.2518756,0.1010749,1.004857,-33.01295,3.39551,-17.59859,1011.456
2.541430473,0.3201669,5.447135,-2.055789,0.2922589,0.09983011,1.007526,-33.01295,3.39551,-17.59859,1011.456
2.561246872,-0.1084674,7.323029,-2.850901,0.2975115,0.1095658,0.9949976,-33.01295,3.39551,-17.59859,1011.459
2.581062794,0.0139995,8.593796,-4.379962,0.2697087,0.1093638,0.9710147,-32.64241,3.399492,-17.59998,1011.459
2.600879192,0.4426338,9.077897,-5.786699,0.2570276,0.1117165,0.9643387,-32.64241,3.399492,-17.59998,1011.458
2.620696068,-0.04723396,9.501486,-7.132273,0.2555353,0.1111963,0.9537253,-32.33445,3.394392,-18.04449,1011.458
2.640512466,0.2589334,8.714821,-8.722497,0.2627478,0.1209526,0.9455305,-32.33445,3.394392,-18.04449,1011.459
2.660328388,0.3814003,8.170207,-9.639934,0.2623586,0.1083088,0.9531906,-32.33445,3.394392,-18.04449,1011.459
2.680144787,0.07523298,7.80713,-10.00691,0.2605102,0.08685766,0.946333,-32.33516,3.387175,-18.42451,1011.458
2.699961185,0.2589334,6.959952,-9.762259,0.2537736,0.07514092,0.9482404,-32.33516,3.387175,-18.42451,1011.458
2.719777107,0.07523298,5.689186,-8.905984,0.2508794,0.06292106,0.9351611,-32.63749,3.024377,-18.03686,1011.458
2.739593506,-0.4146348,4.176368,-7.56041,0.247521,0.060003,0.9438527,-32.63749,3.024377,-18.03686,1011.458
2.759409904,-0.2921678,2.966114,-6.153673,0.2490012,0.05562588,0.9428568,-32.63749,3.024377,-18.03686,1011.459
2.781702995,0.3814003,1.634835,-3.707175,0.2427701,0.04930298,0.9592695,-32.32437,2.646567,-18.79157,1011.459
2.801519394,-0.1084674,0.7876569,-1.383002,0.2446821,0.04880035,0.9486375,-32.32437,2.646567,-18.79157,1011.456
2.821335792,0.1364664,-0.1805463,0.5130343,0.2476164,0.0458939,0.9486066,-32.32519,2.638148,-19.23492,1011.456
2.841151714,-0.1697009,-1.088237,2.286746,0.2442399,0.0414963,0.9495677,-32.32519,2.638148,-19.23492,1011.458
2.860968113,-0.2309344,-1.753877,3.999295,0.2461662,0.05078138,0.9592585,-32.32519,2.638148,-19.23492,1011.458
2.880784512,-0.2309344,-2.237978,5.344869,0.2455366,0.07463113,0.9564884,-31.58188,2.668967,-18.03431,1011.456
2.900600433,0.07523298,-2.964131,5.467194,0.2473167,0.1009222,0.9513042,-31.58188,2.668967,-18.03431,1011.456
2.920416832,0.5038673,-3.508745,4.794406,0.2469623,0.08292577,0.9603846,-32.6389,3.009943,-18.79689,1011.456
2.940233707,-0.8432691,-3.266694,5.100219,0.2460061,0.08879898,0.9749003,-32.6389,3.009943,-18.79689,1011.456
2.960050106,-0.2921678,-2.601054,5.344869,0.2566378,0.09858347,0.9710309,-32.6389,3.009943,-18.79689,1011.457
3.017021656,-0.965736,0.6061188,2.776045,0.2256185,0.08627623,0.9822392,-32.31791,2.287089,-18.40507,1011.456
3.019498825,-0.3534013,0.7876569,2.164421,0.2284802,0.08869549,0.9696863,-32.31791,2.287089,-18.40507,1011.456
3.041791916,-0.2309344,2.360987,1.185821,0.2293953,0.1072365,0.9832914,-31.96463,3.391158,-18.4259,1011.455
3.061608315,0.2589334,4.236881,-0.2209152,0.2207194,0.1008916,0.995856,-31.96463,3.391158,-18.4259,1011.455
3.081424713,0.1976999,5.628673,-1.994627,0.2283855,0.110627,0.978005,-32.33516,3.387175,-18.42451,1011.454
3.101240635,1.238669,5.991749,-3.095551,0.2201041,0.1056857,0.965958,-32.33516,3.387175,-18.42451,1011.454
3.121057034,1.116202,6.173287,-4.135312,0.2279132,0.09987934,0.9644373,-31.96392,3.398375,-18.04588,1011.455
3.140873432,1.78977,5.931237,-5.052749,0.2200168,0.1124675,0.9515129,-31.96392,3.398375,-18.04588,1011.455
3.160689354,1.483603,5.144571,-5.725536,0.228382,0.09595834,0.9528304,-31.96392,3.398375,-18.04588,1011.452
3.180505753,0.4426338,4.357906,-5.725536,0.2327725,0.08621322,0.9406893,-31.95958,3.017246,-18.79944,1011.452
3.200322151,0.5038673,2.966114,-5.175074,0.2298828,0.08084077,0.9401949,-31.95958,3.017246,-18.79944,1011.452
3.220139027,0.3814003,1.211246,-4.441124,0.2319525,0.06627357,0.9526584,-31.95958,3.017246,-18.79944,1011.452
3.239954472,0.3201669,0.9086823,-2.912063,0.2339753,0.05802818,0.9617758,-32.32941,3.02048,-18.41803,1011.451
3.259771347,0.3201669,0.9086823,-1.260677,0.2383299,0.05852369,0.9559624,-32.32941,3.02048,-18.41803,1011.451
3.279587746,0.5038673,0.6666315,0.1460596,0.2319973,0.06239457,0.9593957,-31.95383,2.65055,-18.79296,1011.452
3.299404144,0.6875677,0.6666315,0.8800091,0.240701,0.06729273,0.9526157,-31.95383,2.65055,-18.79296,1011.452
3.321697235,1.422369,0.5456061,1.675121,0.2392007,0.08143293,0.9637982,-31.95383,2.65055,-18.79296,1011.451
3.341513634,0.9325016,0.4850934,2.347908,0.2382231,0.08142438,0.9623554,-31.58904,3.021228,-18.80083,1011.451
3.361329556,0.3814003,0.1220172,2.837208,0.2324145,0.0838581,0.9744667,-31.58904,3.021228,-18.80083,1011.454
3.381145954,0.2589334,0.0615045,3.14302,0.2260617,0.08722565,0.97114,-31.95383,2.65055,-18.79296,1011.454
3.400962353,0.1976999,0.3035553,3.265345,0.22753,0.08675096,0.9730603,-31.95383,2.65055,-18.79296,1011.45
3.420778751,0.07523298,0.1825299,3.632319,0.2187231,0.09497869,0.97122,-31.95383,2.65055,-18.79296,1011.45
3.440594673,-0.1084674,0.4245807,3.509995,0.2236127,0.09648924,0.9813372,-31.57037,1.935576,-18.02135,1011.452
3.460411072,-0.4146348,0.7271442,3.14302,0.2173007,0.08961965,0.973131,-31.57037,1.935576,-18.02135,1011.452
3.480227471,-0.2309344,1.09022,2.959532,0.2216519,0.08717956,0.9615104,-31.58329,2.654533,-18.79435,1011.453
3.500044346,0.1364664,1.574322,3.204182,0.210942,0.1008049,0.9809461,-31.58329,2.654533,-18.79435,1011.453
3.519859791,0.5038673,2.118936,2.65372,0.2084579,0.1051548,0.9727765,-31.58329,2.654533,-18.79435,1011.451
3.539676666,0.6263342,2.360987,1.919771,0.2088754,0.1065747,0.9549224,-30.84304,2.654079,-19.24048,1011.451
3.559493065,0.5038673,2.118936,1.002334,0.2128202,0.1066335,0.9708295,-30.84304,2.654079,-19.24048,1011.452
3.581786156,0.07523298,1.816373,0.3295469,0.2045859,0.1027035,0.9742332,-31.5948,3.387924,-18.80731,1011.452
3.601602554,-0.4146348,1.09022,-0.2209152,0.2089042,0.09730672,0.9481172,-31.5948,3.387924,-18.80731,1011.453
3.621418953,0.1364664,1.09022,-0.465565,0.2171101,0.09779426,0.9306983,-31.5948,3.387924,-18.80731,1011.453
3.641235351,-0.5983351,0.8481696,-0.7102148,0.2323293,0.08673044,0.9542094,-31.5948,3.387924,-18.80731,1011.454
3.661051273,-0.6595686,0.9086823,-0.6490523,0.2139766,0.07939302,0.9798541,-31.5948,3.387924,-18.80731,1011.454
3.680867672,0.1976999,1.75586,-0.7102148,0.2144018,0.08472945,0.9707083,-31.22508,3.383487,-19.25205,1011.456
3.700684071,-0.2309344,1.695347,-1.016027,0.2134101,0.09253278,0.977994,-31.22508,3.383487,-19.25205,1011.456
3.720500946,0.0139995,2.239962,-0.9548646,0.2183568,0.07795139,0.9783747,-31.22508,3.383487,-19.25205,1011.457
3.740316391,1.483603,3.08714,-1.138352,0.1325695,0.1252798,1.000808,-30.84879,3.020775,-19.24696,1011.457
3.760133266,1.054968,4.902521,-5.542049,0.09599254,0.1533725,1.017564,-30.84879,3.020775,-19.24696,1011.456
3.779949665,-0.4758682,5.628673,-6.214836,0.2394288,0.05715232,0.9907023,-30.47743,3.033177,-18.80499,1011.456
3.799766064,0.993735,5.810211,-5.052749,0.2697876,0.0879098,0.9588373,-30.47743,3.033177,-18.80499,1011.452
3.819581985,1.78977,5.386622,-4.746937,0.2513277,0.07707369,0.9472983,-30.47743,3.033177,-18.80499,1011.452
3.839398384,-2.251639,4.599957,-0.8937021,0.1478201,-0.01887869,0.9570256,-30.84879,3.020775,-19.24696,1011.451
3.861691952,1.973471,1.695347,3.509995,0.1309387,0.1065722,0.9196308,-30.84879,3.020775,-19.24696,1011.451
3.881507874,0.7488011,-0.846186,1.063496,0.134797,0.1359016,0.9583746,-30.85372,3.39589,-18.81008,1011.452
3.901324272,0.3201669,-0.7856733,-0.03742781,0.2626477,0.07576104,0.9843959,-30.85372,3.39589,-18.81008,1011.452
3.921140671,0.5038673,1.271759,-0.1597527,0.1945515,0.09544523,1.014796,-30.85372,3.39589,-18.81008,1011.455
3.940957546,0.9325016,2.724063,0.08489711,0.2081674,0.08280411,0.9934185,-30.85384,3.394687,-18.87342,1011.455
3.960772991,1.299902,3.692266,-1.199515,0.2381541,0.1072853,0.9846919,-30.85384,3.394687,-18.87342,1011.457
3.980589390,0.5651007,3.389703,-1.505327,0.258739,0.07279474,0.9742658,-31.59632,3.372287,-19.63068,1011.457
4.000406265,1.973471,4.478932,0.08489711,0.1956036,0.07155229,0.9987389,-31.59632,3.372287,-19.63068,1011.454
4.020222664,2.340871,5.870724,-0.4044026,0.2041653,0.1174142,1.017752,-31.59632,3.372287,-19.63068,1011.454
4.040039063,3.136906,8.109694,-0.465565,0.2699172,0.09533554,1.009073,-31.23083,3.750182,-19.25853,1011.454
4.059854984,1.177435,11.0143,-1.749977,0.2727995,0.1173243,1.034752,-31.23083,3.750182,-19.25853,1011.454
4.079671383,6.137346,14.94763,-1.321839,0.2936043,0.1369107,1.035222,-30.85596,3.373036,-20.01347,1011.455
4.099487782,-0.8432691,18.09429,-1.627652,0.2336539,0.01414504,0.937901,-30.85596,3.373036,-20.01347,1011.455
4.121780872,-6.660449,3.208165,-1.688814,-0.4302024,0.05800334,0.1588559,-30.85596,3.373036,-20.01347,1011.456
4.141597271,-0.6595686,-5.62669,0.02373465,0.1971912,0.1865367,1.225697,-31.22649,3.369053,-20.01208,1011.456
4.161413670,-1.02697,3.147652,-0.4044026,0.3370384,0.06195617,0.9554397,-31.22649,3.369053,-20.01208,1011.457
4.181230545,-1.21067,2.239962,-0.7713773,0.113658,0.0686558,0.7814847,-30.47967,3.010324,-20.00838,1011.457
4.201046944,-0.1084674,-2.05644,0.08489711,0.1489563,0.06058427,0.9931458,-30.47967,3.010324,-20.00838,1011.461
4.220862865,-0.3534013,0.1220172,-0.2209152,0.1878078,0.04852462,0.9566703,-30.47967,3.010324,-20.00838,1011.461
4.240679264,-0.8432691,0.9691951,-0.09859026,0.1885871,0.09630099,0.9786319,-30.84375,2.646863,-19.62049,1011.46
4.260495663,-0.4146348,0.6061188,-0.2820776,0.1981309,0.1143089,0.9545383,-30.84375,2.646863,-19.62049,1011.46
4.280312061,-0.5371017,0.1220172,-0.2820776,0.1652288,0.1123026,1.001045,-30.47321,2.650845,-19.62188,1011.46
4.300127983,-0.2309344,0.0615045,-0.03742781,0.1812587,0.08401747,0.9486829,-30.47321,2.650845,-19.62188,1011.46
4.319944382,-1.578071,-0.1200336,-0.465565,0.1959841,0.0851676,0.9901184,-30.47321,2.650845,-19.62188,1011.454
4.339760780,-1.823005,-0.1200336,-0.4044026,0.1686458,0.08446357,0.9588904,-30.47967,3.010324,-20.00838,1011.454
4.359577179,-1.271903,-0.1805463,-0.03742781,0.1846662,0.1143474,0.9995013,-30.47967,3.010324,-20.00838,1011.453
4.379394055,-1.21067,0.0615045,-0.09859026,0.1754425,0.09133449,0.9666114,-30.47967,3.010324,-20.00838,1011.453
4.401687145,-1.823005,-0.3015717,-0.2209152,0.1901754,0.07880152,0.9877042,-30.10843,3.021523,-19.62975,1011.454
4.421503544,-2.067938,-0.05952091,-0.2820776,0.1760477,0.0733337,0.9718251,-30.10843,3.021523,-19.62975,1011.454
4.441319943,-2.006705,0.0615045,-0.2209152,0.1895778,0.09485228,0.9815151,-30.84375,2.646863,-19.62049,1011.453
4.461135864,-1.578071,0.3035553,-0.2820776,0.174953,0.09719615,0.9753324,-30.84375,2.646863,-19.62049,1011.453
4.480952263,-2.006705,-0.05952091,-0.2820776,0.1818347,0.09092833,0.9863642,-30.84375,2.646863,-19.62049,1011.452
4.500768662,-1.639304,0.1825299,-0.2820776,0.1818591,0.07627958,0.969395,-30.10772,3.02874,-19.24973,1011.452
4.520585060,-1.700538,0.3035553,-0.1597527,0.1808527,0.08407237,0.9723367,-30.10772,3.02874,-19.24973,1011.452
4.540401459,-1.39437,0.0009917939,-0.2209152,0.1804564,0.07680114,0.9867818,-30.48471,3.384236,-19.63484,1011.452
4.560217380,-1.149436,0.0009917939,-0.1597527,0.1804127,0.07725877,0.9747175,-30.48471,3.384236,-19.63484,1011.447
4.580033779,-0.965736,0.0009917939,-0.2209152,0.1798806,0.08308997,0.9708889,-30.48471,3.384236,-19.63484,1011.447
4.599850178,-0.2921678,-0.3015717,-0.09859026,0.1765444,0.07383252,0.9756864,-30.48554,3.375816,-20.0782,1011.448
4.619667053,0.1364664,0.1825299,-0.1597527,0.1891907,0.07536575,0.978521,-30.48554,3.375816,-20.0782,1011.448
4.639483452,0.5651007,0.0615045,-0.09859026,0.177015,0.0801791,0.9815086,-30.49679,4.040874,-20.47009,1011.449
4.661776543,0.5651007,-0.1200336,-0.1597527,0.1789488,0.07578108,0.9708564,-30.49679,4.040874,-20.47009,1011.449
4.681592941,1.299902,0.0615045,-0.1597527,0.1921032,0.07928797,0.983352,-30.49679,4.040874,-20.47009,1011.45
4.701409340,1.483603,0.2430426,-0.2209152,0.1692207,0.08159609,0.9801104,-31.22086,3.001155,-20.06894,1011.45
4.721225738,1.60607,-0.241059,-0.1597527,0.1755048,0.08697913,0.9776903,-31.22086,3.001155,-20.06894,1011.45
4.741041660,1.667303,-0.1805463,-0.2209152,0.1867181,0.08265704,0.9785721,-30.47967,3.010324,-20.00838,1011.45
4.760858059,1.973471,0.1220172,-0.09859026,0.1813805,0.08166019,0.9805269,-30.47967,3.010324,-20.00838,1011.451
4.780674457,2.034704,-0.241059,-0.09859026,0.1730698,0.08549757,0.9743173,-30.47967,3.010324,-20.00838,1011.451
4.800491333,1.851004,-0.3015717,-0.2820776,0.1837996,0.08215267,0.9776201,-30.85033,3.005138,-20.07033,1011.452
4.820307732,2.034704,0.1220172,-0.03742781,0.1876504,0.08752194,0.9747306,-30.85033,3.005138,-20.07033,1011.452
4.840124130,1.78977,-0.1200336,-0.4044026,0.1788932,0.08454103,0.9689711,-30.47896,3.01754,-19.62836,1011.453
4.859940052,1.361136,-0.3015717,-0.09859026,0.1842576,0.08897916,0.9805488,-30.47896,3.01754,-19.62836,1011.453
4.879756451,1.361136,0.0009917939,-0.09859026,0.186198,0.08605245,0.9742483,-30.47896,3.01754,-19.62836,1011.452
4.899572849,1.116202,0.1220172,-0.2209152,0.1827168,0.09917944,0.9733694,-30.47979,3.009121,-20.07172,1011.452
4.919389248,0.6263342,0.0009917939,-0.09859026,0.181296,0.09088832,0.9709212,-30.47979,3.009121,-20.07172,1011.454
4.941682339,0.3201669,0.1825299,-0.1597527,0.1861637,0.0977609,0.9834794,-30.4805,3.001904,-20.45173,1011.454
4.961498737,0.1364664,0.3035553,0.02373465,0.1837713,0.08751001,0.9781305,-30.4805,3.001904,-20.45173,1011.452
4.981315613,-0.4146348,0.1825299,-0.2209152,0.1876025,0.09579848,0.9742906,-30.4805,3.001904,-20.45173,1011.452
5.001132011,-0.5983351,0.2430426,-0.09859026,0.1798866,0.08700529,0.9791145,-30.11417,3.388219,-19.63623,1011.451
5.020948410,-0.7820356,0.0009917939,-0.03742781,0.1827637,0.09285763,0.9767154,-30.11417,3.388219,-19.63623,1011.451
5.040764332,-0.7208021,0.2430426,-0.09859026,0.1813827,0.08215063,0.9819773,-30.49046,3.750931,-19.64132,1011.454
5.060580730,-0.9045025,0.1825299,-0.2209152,0.1818298,0.08652492,0.9776533,-30.49046,3.750931,-19.64132,1011.454
5.080397129,-1.149436,0.1825299,-0.3432401,0.1818227,0.08749759,0.9771757,-30.49046,3.750931,-19.64132,1011.456
5.100213528,-1.149436,0.2430426,-0.1597527,0.185257,0.08509231,0.9819713,-30.48624,3.368599,-20.45821,1011.456
5.120029926,-1.333137,0.0009917939,-0.1597527,0.181839,0.08457604,0.9771606,-30.48624,3.368599,-20.45821,1011.457
5.139846802,-1.149436,0.1825299,0.02373465,0.1789484,0.0840916,0.9844141,-30.49046,3.750931,-19.64132,1011.457
5.159662247,-1.02697,0.0615045,-0.09859026,0.1798763,0.08650899,0.9752505,-30.49046,3.750931,-19.64132,1011.456
5.179479122,-0.9045025,0.2430426,-0.09859026,0.1842815,0.08117431,0.9747164,-30.49046,3.750931,-19.64132,1011.456
5.201772690,-0.5371017,0.0009917939,-0.2820776,0.1852706,0.07972442,0.9771169,-30.49129,3.742512,-20.08467,1011.457
5.221589088,-0.2921678,0.0009917939,0.02373465,0.1843039,0.08070144,0.980506,-30.49129,3.742512,-20.08467,1011.457
5.241405010,-0.04723396,0.0615045,-0.03742781,0.1882175,0.07633808,0.9799795,-30.48554,3.375816,-20.0782,1011.453
5.261221409,0.5651007,0.1220172,-0.1597527,0.1862727,0.07681729,0.9809579,-30.48554,3.375816,-20.0782,1011.453
5.281037808,0.5038673,0.1220172,-0.03742781,0.1818772,0.07922573,0.9795462,-30.48554,3.375816,-20.0782,1011.458
5.300854206,0.993735,0.0009917939,-0.09859026,0.1809128,0.0806932,0.9843858,-30.85525,3.380253,-19.63345,1011.458
5.320671082,1.177435,-0.05952091,-0.2820776,0.1808663,0.08163776,0.9723241,-30.85525,3.380253,-19.63345,1011.457
5.340487480,1.177435,-0.05952091,-0.03742781,0.1789625,0.07921298,0.9805276,-30.85608,3.371834,-20.07681,1011.457
5.360303879,1.483603,-0.1200336,0.02373465,0.1789303,0.08407871,0.9791048,-30.85608,3.371834,-20.07681,1011.46
5.380119801,1.60607,-0.3015717,-0.2209152,0.1886313,0.08899947,0.9795595,-30.85608,3.371834,-20.07681,1011.46
5.399936199,1.422369,-0.1200336,-0.1597527,0.1857412,0.08753765,0.9853601,-30.47321,2.650845,-19.62188,1011.455
5.419752598,1.422369,0.0009917939,-0.2820776,0.1852406,0.08508059,0.9771446,-30.47321,2.650845,-19.62188,1011.455
5.439568997,1.483603,0.0009917939,-0.2209152,0.1798757,0.088953,0.9791246,-30.47321,2.650845,-19.62188,1011.455
5.459385395,1.299902,0.1220172,-0.2820776,0.1798517,0.09089131,0.9752732,-30.11417,3.388219,-19.63623,1011.455
5.481678486,0.9325016,0.0615045,-0.1597527,0.1857073,0.08946894,0.9786126,-30.11417,3.388219,-19.63623,1011.456
5.501495361,0.8100346,0.0009917939,-0.2820776,0.1832735,0.09043255,0.9795961,-30.48554,3.375816,-20.0782,1011.456
5.521311760,0.2589334,0.364068,-0.09859026,0.1846959,0.09285832,0.9728434,-30.48554,3.375816,-20.0782,1011.455
5.541128158,0.2589334,-0.05952091,-0.03742781,0.1856931,0.0914143,0.9776573,-30.47825,3.024757,-19.24834,1011.455
5.560944557,-0.1697009,0.0009917939,-0.09859026,0.1842102,0.09481172,0.9762348,-30.47825,3.024757,-19.24834,1011.456
5.580760956,-0.2921678,0.1825299,-0.09859026,0.1866549,0.0919004,0.9752411,-30.47825,3.024757,-19.24834,1011.456
5.600576878,-0.7208021,0.3035553,-0.1597527,0.1813096,0.09138697,0.9757504,-30.47321,2.650845,-19.62188,1011.457
5.620393276,-0.8432691,0.1825299,-0.2209152,0.1827725,0.09481939,0.9825176,-30.47321,2.650845,-19.62188,1011.457
5.640209675,-1.02697,0.1825299,-0.2209152,0.178444,0.08554283,0.9815283,-30.47321,2.650845,-19.62188,1011.457
5.660026550,-1.149436,0.3035553,-0.03742781,0.1793686,0.08795787,0.9713993,-29.80047,3.016423,-20.07426,1011.457
5.679842949,-1.149436,0.364068,-0.2209152,0.1803604,0.08748771,0.9762183,-29.80047,3.016423,-20.07426,1011.454
5.699659347,-1.149436,0.1825299,-0.09859026,0.1828335,0.08361895,0.981977,-30.48554,3.375816,-20.0782,1011.454
5.719475746,-0.965736,0.364068,-0.03742781,0.1823221,0.08604285,0.9786135,-30.48554,3.375816,-20.0782,1011.454
5.741768837,-0.7208021,0.3035553,-0.2209152,0.181339,0.08407489,0.972334,-30.48554,3.375816,-20.0782,1011.454
5.761585236,-0.6595686,0.0615045,-0.1597527,0.1784309,0.08406682,0.9752459,-30.86029,3.754165,-19.25992,1011.455
5.781401634,-0.5371017,0.364068,-0.2209152,0.185246,0.08264011,0.9747187,-30.86029,3.754165,-19.25992,1011.455
5.801218510,-0.6595686,0.2430426,-0.2209152,0.1789326,0.08750242,0.9853972,-30.84879,3.020775,-19.24696,1011.45
5.821034908,-0.2921678,0.0615045,-0.2820776,0.1833231,0.08215718,0.9805189,-30.84879,3.020775,-19.24696,1011.45
5.840850830,-0.2309344,0.2430426,-0.1597527,0.1848012,0.07728963,0.9780723,-30.84879,3.020775,-19.24696,1011.451
5.860667229,-0.04723396,0.2430426,-0.03742781,0.1828422,0.07971419,0.9780955,-30.84304,2.654079,-19.24048,1011.451
5.880483627,0.3201669,0.1825299,-0.2209152,0.1862133,0.08508562,0.9771393,-30.84304,2.654079,-19.24048,1011.452
5.900300026,0.3814003,0.1220172,-0.1597527,0.1803822,0.08505893,0.9786191,-30.48471,3.384236,-19.63484,1011.452
5.920116425,0.6875677,0.2430426,-0.03742781,0.1832642,0.09091479,0.977668,-30.48471,3.384236,-19.63484,1011.451
5.939932823,0.5651007,0.2430426,-0.2820776,0.1847859,0.08118971,0.9800231,-30.48471,3.384236,-19.63484,1011.451
5.959749699,0.8712681,0.0615045,-0.09859026,0.1794117,0.08407771,0.977654,-30.84457,2.638443,-20.06385,1011.451
5.979566097,0.993735,-0.1200336,-0.1597527,0.181338,0.08602962,0.9752401,-30.84457,2.638443,-20.06385,1011.451
5.999381542,0.6875677,0.1220172,-0.2209152,0.1832964,0.0875157,0.9815118,-30.8495,3.013558,-19.62697,1011.45
6.021675587,0.6875677,0.1825299,-0.2820776,0.18088,0.08360303,0.9795742,-30.8495,3.013558,-19.62697,1011.45
6.041491985,0.6263342,0.0009917939,-0.1597527,0.1808713,0.0831079,0.976193,-30.8495,3.013558,-19.62697,1011.45
6.061308384,0.6263342,0.0615045,-0.1597527,0.182285,0.08797181,0.9709008,-30.47404,2.642426,-20.06524,1011.45
6.081124783,0.5651007,0.0009917939,-0.09859026,0.1779238,0.0874716,0.9747836,-30.47404,2.642426,-20.06524,1011.451
6.100940704,0.6263342,-0.1200336,-0.2209152,0.1837696,0.08750884,0.9776478,-30.47896,3.01754,-19.62836,1011.451
6.120757103,0.3814003,-0.1805463,-0.09859026,0.1935044,0.0860984,0.9775872,-30.47896,3.01754,-19.62836,1011.454
6.140573978,0.1364664,0.364068,-0.1597527,0.1881254,0.09191615,0.9786119,-30.47896,3.01754,-19.62836,1011.454
6.160390377,0.3201669,0.4850934,-0.2209152,0.1827664,0.08797081,0.9694501,-30.47404,2.642426,-20.06524,1011.454
6.180206776,0.07523298,0.1220172,-0.2820776,0.1813369,0.08798435,0.9781463,-30.47404,2.642426,-20.06524,1011.454
6.200023174,-0.1697009,0.2430426,-0.2820776,0.1876838,0.08950127,0.9877728,-29.80622,3.383119,-20.08074,1011.451
6.219839573,0.0139995,0.3035553,-0.09859026,0.1760069,0.0821042,0.9742838,-29.80622,3.383119,-20.08074,1011.451
6.239655972,-0.1084674,0.0615045,-0.03742781,0.1847025,0.09432963,0.9771951,-29.80622,3.383119,-20.08074,1011.453
6.259472847,-0.4146348,0.3035553,-0.2820776,0.1861996,0.08458699,0.9723101,-30.83729,2.287385,-19.234,1011.453
6.281765938,-0.4758682,-0.1200336,-0.465565,0.1827659,0.09334806,0.978166,-30.83729,2.287385,-19.234,1011.454
6.301582336,-0.5371017,0.1220172,-0.3432401,0.1823205,0.08897495,0.9829727,-30.85525,3.380253,-19.63345,1011.454
6.321398735,-1.884238,0.1825299,-0.03742781,0.1873843,0.05198916,0.9808243,-30.85525,3.380253,-19.63345,1011.455
6.341215134,-0.6595686,0.0615045,0.08489711,0.1779281,0.08111932,0.9655799,-30.85525,3.380253,-19.63345,1011.455
6.361031532,-0.5983351,0.1825299,-0.09859026,0.1872302,0.08952219,0.997429,-30.85033,3.005138,-20.07033,1011.456
6.380847931,-0.965736,0.6061188,-0.5267274,0.1851572,0.09968715,0.9767374,-30.85033,3.005138,-20.07033,1011.456
6.400664806,-1.21067,-0.5436226,-0.03742781,0.1707307,0.05866311,0.9572985,-30.115,3.379799,-20.07958,1011.452
6.420480251,-0.7820356,0.5456061,-0.2820776,0.2013993,0.08670879,1.011817,-30.115,3.379799,-20.07958,1011.452
6.440297127,-0.4758682,0.9691951,0.08489711,0.1778955,0.09282894,0.9752938,-30.115,3.379799,-20.07958,1011.455
6.460113525,-0.6595686,0.8481696,-0.2209152,0.1744394,0.1005963,0.9729393,-30.48554,3.375816,-20.0782,1011.455
6.479929924,-0.4146348,0.364068,-0.3432401,0.1916664,0.06367691,0.9721727,-30.48554,3.375816,-20.0782,1011.455
6.499746323,0.1976999,0.0009917939,0.3907094,0.1687103,0.08206527,0.9738408,-30.47896,3.01754,-19.62836,1011.455
6.519562721,0.3201669,0.0615045,0.08489711,0.1989818,0.08181759,1.007944,-30.47896,3.01754,-19.62836,1011.459
6.539379120,0.6263342,0.7271442,-0.09859026,0.1760706,0.07041684,0.9737406,-30.47896,3.01754,-19.62836,1011.459
6.561672211,1.422369,1.695347,-1.016027,0.1989385,0.07103143,0.9774801,-30.85454,3.38747,-19.25344,1011.46
6.581489086,3.320607,1.271759,-0.2209152,0.1388777,0.1301911,1.00466,-30.85454,3.38747,-19.25344,1011.46
6.601305485,1.238669,-1.935415,-0.09859026,0.1860741,0.06494243,0.9031868,-30.48975,3.758148,-19.2613,1011.463
6.621121883,1.299902,-1.14875,-0.09859026,0.2005616,0.07848931,1.037844,-30.48975,3.758148,-19.2613,1011.463
6.640938282,3.320607,1.09022,0.5130343,0.1710947,0.10551,0.9985647,-30.48975,3.758148,-19.2613,1011.463
6.660754681,1.973471,0.0615045,-0.2209152,0.1880411,0.08550059,0.9433439,-31.21511,2.63446,-20.06246,1011.463
6.680571079,2.218405,-0.5436226,-0.09859026,0.1842713,0.08801118,0.9829571,-31.21511,2.63446,-20.06246,1011.464
6.700387955,2.157171,0.1825299,-0.2820776,0.1711448,0.09039073,0.9883506,-30.47896,3.01754,-19.62836,1011.464
6.720204353,1.912237,0.0009917939,0.1460596,0.1866899,0.09241428,0.9863452,-30.47896,3.01754,-19.62836,1011.465
6.740020752,1.851004,0.5456061,-0.2820776,0.1978815,0.09785412,0.9969308,-30.47896,3.01754,-19.62836,1011.465
6.759837151,1.78977,0.6666315,-0.09859026,0.1792697,0.09033156,0.9463128,-30.8495,3.013558,-19.62697,1011.466
6.779653072,2.034704,-0.6041352,0.1460596,0.1827282,0.09185448,0.9646434,-30.8495,3.013558,-19.62697,1011.466
6.799469471,1.544836,-0.7251607,0.2683845,0.1813245,0.09726404,0.9897783,-30.8495,3.013558,-19.62697,1011.462
6.821763515,1.667303,0.7876569,-0.09859026,0.201371,0.09206613,1.012328,-30.49525,4.05651,-19.64672,1011.462
6.841579914,0.4426338,1.392784,-0.5878899,0.1890487,0.08455287,0.9520217,-30.49525,4.05651,-19.64672,1011.461
6.861396313,0.5038673,1.150733,-0.7713773,0.1636905,0.105883,0.9672331,-30.85525,3.380253,-19.63345,1011.461
6.881212711,0.5038673,-0.7856733,-0.1597527,0.2075479,0.05484065,0.9083269,-30.85525,3.380253,-19.63345,1011.462
6.901029110,1.054968,-2.177466,1.430471,0.161824,0.1132623,1.002517,-30.85525,3.380253,-19.63345,1011.462
6.920845509,-0.6595686,-1.14875,-0.03742781,0.1964175,0.08610999,0.9761233,-30.47979,3.009121,-20.07172,1011.464
6.940661430,0.6263342,-1.088237,0.2683845,0.1541462,0.09178567,0.9976217,-30.47979,3.009121,-20.07172,1011.464
6.960477829,0.0139995,-0.1200336,-0.2209152,0.1925153,0.08168175,0.965503,-30.10267,2.654828,-19.62327,1011.465
6.980294228,0.2589334,-0.9672114,0.1460596,0.1662241,0.09032454,0.9714834,-30.10267,2.654828,-19.62327,1011.465
7.000111103,-0.4146348,-1.027724,0.1460596,0.1780002,0.07970425,0.9843968,-30.10267,2.654828,-19.62327,1011.462
7.019927502,-0.2921678,-0.4831098,0.5741968,0.2085604,0.08713973,0.9731661,-30.48471,3.384236,-19.63484,1011.462
7.039743900,0.1976999,-0.9672114,0.5741968,0.2099083,0.113467,0.9839129,-30.48471,3.384236,-19.63484,1011.463
7.059560299,-0.1697009,0.6061188,-1.566489,0.1818573,0.1021885,1.011521,-31.21582,2.627243,-20.44248,1011.463
7.079376698,0.6875677,0.5456061,0.08489711,0.1954593,0.06998254,0.9538425,-31.21582,2.627243,-20.44248,1011.463
7.101670742,-0.3534013,-0.3015717,-0.9548646,0.170377,0.1239192,0.9610144,-31.21582,2.627243,-20.44248,1011.463
7.121486664,-4.088643,-0.846186,-3.58485,0.131739,-0.05760572,0.8840303,-30.84879,3.020775,-19.24696,1011.462
7.141303062,3.01444,-2.419516,0.4518718,0.2205021,0.1144247,0.9544164,-30.84879,3.020775,-19.24696,1011.462
7.161119461,-1.088203,-1.572338,-2.178114,0.2022348,0.007274648,0.9834095,-30.48554,3.375816,-20.0782,1011.463
7.180935860,1.177435,-3.266694,3.754644,0.2435888,0.06239756,0.935681,-30.48554,3.375816,-20.0782,1011.463
7.200752258,-3.904943,-2.237978,1.613959,0.1577627,0.1390305,0.9949485,-30.48554,3.375816,-20.0782,1011.464
7.220568657,-2.435339,0.0009917939,-0.2209152,0.2525413,0.06991782,1.006142,-30.47896,3.01754,-19.62836,1011.464
7.240385532,-1.02697,0.7876569,-0.5267274,0.2118512,0.09832028,0.9582425,-30.47896,3.01754,-19.62836,1011.466
7.260201931,-1.02697,1.997911,-0.465565,0.2618875,0.06368601,1.026814,-30.84375,2.646863,-19.62049,1011.466
7.280018330,-1.516837,6.657389,-0.6490523,0.2612395,0.1075665,1.051659,-30.84375,2.646863,-19.62049,1011.467
7.299834728,0.1976999,10.77225,-1.016027,0.255455,0.0806851,1.022592,-30.84375,2.646863,-19.62049,1011.467
7.319651127,0.6263342,9.501486,-1.627652,-0.08379102,0.07545637,0.7956327,-30.861,3.746948,-19.63993,1011.468
7.339467526,1.238669,-2.359004,1.002334,0.3176746,0.158371,0.9980339,-30.861,3.746948,-19.63993,1011.468
7.361760616,-1.39437,0.364068,0.02373465,0.2031196,0.09340221,0.956817,-30.47896,3.01754,-19.62836,1011.464
7.381577492,0.0139995,0.6666315,0.02373465,0.1716549,0.07525522,0.9704109,-30.47896,3.01754,-19.62836,1011.464
7.401393890,0.2589334,0.364068,-0.03742781,0.1769117,0.07717202,0.9462581,-30.47896,3.01754,-19.62836,1011.465
7.421210289,-0.8432691,0.4245807,-0.2820776,0.1983381,0.07876932,0.956768,-30.48554,3.375816,-20.0782,1011.465
7.441026688,-0.4758682,0.3035553,-0.3432401,0.1881995,0.07925846,0.9795118,-30.48554,3.375816,-20.0782,1011.466
7.460843086,-0.6595686,0.364068,-0.09859026,0.2032577,0.08225686,0.9789622,-30.47979,3.009121,-20.07172,1011.466
7.480659485,-0.7820356,0.3035553,-0.4044026,0.1750564,0.06989323,0.9607113,-30.47979,3.009121,-20.07172,1011.466
7.500476360,-0.4758682,0.2430426,-0.2820776,0.1984053,0.08028399,0.9789786,-30.47979,3.009121,-20.07172,1011.466
7.520292759,-0.7820356,0.1825299,-0.5267274,0.2012365,0.08903679,0.9679064,-30.47896,3.01754,-19.62836,1011.466
7.540109157,-1.02697,0.3035553,-0.3432401,0.1895837,0.08850117,0.9727943,-30.47896,3.01754,-19.62836,1011.466
7.559925556,-0.8432691,0.2430426,-0.465565,0.1808555,0.08798535,0.9795968,-30.48554,3.375816,-20.0782,1011.466
7.579741955,-0.6595686,0.2430426,-0.2209152,0.1672571,0.06837345,0.9530233,-30.48554,3.375816,-20.0782,1011.466
7.599558353,-0.965736,0.3035553,-0.5267274,0.1775462,0.08070253,0.995506,-30.48554,3.375816,-20.0782,1011.461
7.619375229,-0.4146348,0.6666315,-0.5878899,0.1706049,0.09377208,0.9782347,-31.22086,3.001155,-20.06894,1011.461
7.641668320,-0.1697009,0.0615045,-0.4044026,0.1691829,0.07716925,0.9617462,-31.22086,3.001155,-20.06894,1011.462
7.661484718,-0.3534013,0.1825299,-0.09859026,0.1653392,0.07522719,0.9723762,-30.12075,3.746494,-20.08606,1011.462
7.681301117,-0.04723396,0.364068,-0.2820776,0.158057,0.08497597,0.9922559,-30.12075,3.746494,-20.08606,1011.462
7.701117515,-0.4146348,0.1220172,-0.465565,0.1619034,0.08936436,0.9864652,-30.12075,3.746494,-20.08606,1011.462
7.720933914,0.07523298,-0.241059,-0.09859026,0.1691644,0.08106698,0.9627316,-30.47896,3.01754,-19.62836,1011.46
7.740750790,0.993735,-0.4225971,-0.2209152,0.1799249,0.08458824,0.9863421,-30.47896,3.01754,-19.62836,1011.46
7.760567188,1.422369,-0.241059,-0.03742781,0.1799653,0.08266164,0.9950201,-30.48554,3.375816,-20.0782,1011.461
7.780383587,1.544836,-0.241059,-0.1597527,0.1911131,0.07829268,0.9765949,-30.48554,3.375816,-20.0782,1011.461
7.800199985,1.177435,0.0009917939,-0.1597527,0.1823307,0.07773819,0.9674693,-30.48554,3.375816,-20.0782,1011.463
7.820016384,2.157171,-0.1805463,-0.09859026,0.1911142,0.08367112,0.9857934,-30.86183,3.738528,-20.08329,1011.463
7.839832783,2.585805,0.1825299,-0.09859026,0.1896175,0.08216998,0.972279,-30.86183,3.738528,-20.08329,1011.458
7.859649658,2.524572,0.5456061,-0.2209152,0.1661776,0.08833584,0.9545798,-30.86183,3.738528,-20.08329,1011.458
7.879466057,2.830739,0.1220172,0.08489711,0.179436,0.09533907,1.003294,-30.4725,2.658062,-19.24187,1011.459
7.901759624,2.708272,0.3035553,-0.03742781,0.1744993,0.08548402,0.9656211,-30.4725,2.658062,-19.24187,1011.459
7.921576023,2.524572,0.6666315,-0.1597527,0.1891209,0.0875377,0.9781014,-30.11993,3.754914,-19.64271,1011.458
7.941392422,2.340871,0.3035553,-0.09859026,0.1861909,0.08702512,0.9737706,-30.11993,3.754914,-19.64271,1011.458
7.961208343,2.463338,0.4245807,-0.09859026,0.1861621,0.09629309,0.9805759,-30.84375,2.646863,-19.62049,1011.458
7.981024742,2.463338,0.3035553,-0.09859026,0.1807448,0.1030613,0.9719521,-30.84375,2.646863,-19.62049,1011.458
8.000841618,2.402105,-0.3620844,-0.1597527,0.1797961,0.09965126,0.9733878,-30.84375,2.646863,-19.62049,1011.461
8.020658016,1.912237,0.1825299,-0.03742781,0.1818126,0.1075341,1.007205,-30.84375,2.646863,-19.62049,1011.461
8.040474415,1.728537,0.3035553,-0.2209152,0.181229,0.1055066,0.9753407,-30.84375,2.646863,-19.62049,1011.462
8.060290813,0.9325016,0.1825299,-0.2820776,0.1845928,0.1030509,0.9593813,-30.84375,2.646863,-19.62049,1011.462
8.080107212,0.5038673,0.2430426,-0.2820776,0.1856562,0.1050763,0.9893119,-30.1035,2.646409,-20.06662,1011.461
8.099923611,-0.3534013,0.5456061,0.02373465,0.1778787,0.104061,0.9888667,-30.1035,2.646409,-20.06662,1011.461
8.119740486,-0.8432691,0.0615045,-0.03742781,0.1924602,0.09239761,0.9670064,-30.85608,3.371834,-20.07681,1011.457
8.139556885,-0.6595686,-0.1200336,-0.2820776,0.1977129,0.1138664,0.9738454,-30.85608,3.371834,-20.07681,1011.457
8.159373283,-0.9045025,-0.05952091,-0.2209152,0.2012656,0.09590176,0.9877313,-30.85608,3.371834,-20.07681,1011.456
8.181666851,-0.965736,0.4245807,-0.1597527,0.1905521,0.09632512,0.9844134,-30.84457,2.638443,-20.06385,1011.456
8.201483727,-0.8432691,0.1825299,0.02373465,0.1959121,0.09244921,0.9809854,-30.84457,2.638443,-20.06385,1011.457
8.221300125,-1.02697,0.5456061,-0.2820776,0.09802496,0.09575786,0.9482334,-30.838,2.280168,-19.61401,1011.457
8.241116524,-3.047674,0.5456061,-0.7713773,0.1635005,0.01027336,0.8967547,-30.838,2.280168,-19.61401,1011.456
8.260932922,1.361136,0.3035553,0.02373465,0.1595914,0.04886088,0.9548958,-30.838,2.280168,-19.61401,1011.456
8.280749321,0.0139995,0.0615045,-0.5267274,0.1555813,0.1025313,1.008288,-30.47979,3.009121,-20.07172,1011.457
8.300565720,0.4426338,0.0009917939,-0.4044026,0.1850432,0.1103608,0.9608645,-30.47979,3.009121,-20.07172,1011.457
8.320382595,2.034704,-0.05952091,-0.09859026,0.1739056,0.1078929,0.971049,-30.10843,3.021523,-19.62975,1011.455
8.340198994,3.443074,-0.241059,0.4518718,0.1511593,0.1220314,1.027237,-30.10843,3.021523,-19.62975,1011.455
8.360015392,1.422369,0.4850934,-0.4044026,0.2002037,0.08947766,0.9510207,-30.10843,3.021523,-19.62975,1011.458
8.379831791,1.177435,0.0009917939,-0.09859026,0.1715678,0.09230344,0.9729124,-30.47979,3.009121,-20.07172,1011.458
8.399648190,2.647039,0.1220172,0.08489711,0.1802847,0.1030775,0.9796774,-30.47979,3.009121,-20.07172,1011.458
8.419464588,3.01444,-0.1200336,0.08489711,0.1782816,0.1128036,0.9787731,-30.8495,3.013558,-19.62697,1011.458
8.441757679,2.708272,0.0009917939,-0.03742781,0.1715719,0.1103946,1.003897,-30.8495,3.013558,-19.62697,1011.459
8.461574555,2.830739,-0.1805463,-0.03742781,0.1696046,0.1069468,0.9918228,-30.8495,3.013558,-19.62697,1011.459
8.481390953,2.953206,-0.4225971,-0.03742781,0.1798468,0.0908878,0.9738252,-30.11417,3.388219,-19.63623,1011.46
8.501207352,3.259373,-0.241059,0.08489711,0.1773836,0.1035634,0.9854881,-30.11417,3.388219,-19.63623,1011.46
8.521023750,3.19814,-0.3015717,0.2683845,0.1545741,0.089302,0.9763687,-30.84528,2.631226,-20.44386,1011.456
8.540840149,4.239109,-0.7856733,-0.03742781,0.1671032,0.08586288,0.9367029,-30.84528,2.631226,-20.44386,1011.456
8.560656547,5.769945,-0.846186,0.02373465,0.1929576,0.09631895,0.9766774,-30.84528,2.631226,-20.44386,1011.457
8.580473423,5.525012,-0.4225971,0.1460596,0.1963478,0.1085484,0.99265,-30.46746,2.28415,-19.6154,1011.457
8.600289822,5.831179,-0.6041352,0.02373465,0.1758044,0.1000478,0.944451,-30.46746,2.28415,-19.6154,1011.458
8.620106220,6.504747,-1.3908,-0.09859026,0.1986992,0.11437,0.9786693,-30.47979,3.009121,-20.07172,1011.458
8.639922619,6.504747,0.0615045,-0.1597527,0.1953118,0.1089869,0.9747989,-30.47979,3.009121,-20.07172,1011.459
8.659739017,5.953646,0.1825299,-0.09859026,0.1870332,0.1079585,0.9700121,-30.47979,3.009121,-20.07172,1011.459
8.679555416,5.831179,-0.5436226,-0.03742781,0.1777511,0.1201026,0.9778481,-30.83882,2.271748,-20.05737,1011.459
8.699372291,5.463778,0.0009917939,-0.09859026,0.2001982,0.1163616,0.9936345,-30.83882,2.271748,-20.05737,1011.459
8.721665859,5.096377,0.0009917939,-0.09859026,0.1723075,0.1239187,0.9566596,-30.46899,2.268514,-20.43877,1011.452
8.741482258,4.60651,-0.6646479,0.207222,0.181102,0.127904,0.9749739,-30.46899,2.268514,-20.43877,1011.452
8.761298656,4.239109,-0.5436226,0.02373465,0.1952661,0.125087,0.987914,-30.46899,2.268514,-20.43877,1011.453
8.781115532,3.504307,0.1220172,0.02373465,0.1820823,0.1259589,0.973993,-30.47321,2.650845,-19.62188,1011.453
8.800931930,3.075673,0.3035553,-0.2209152,0.1819873,0.137624,0.9653653,-30.47321,2.650845,-19.62188,1011.454
8.820748329,2.463338,-0.3015717,-0.03742781,0.179113,0.1356847,0.9750247,-30.46899,2.268514,-20.43877,1011.454
8.840564728,1.912237,-0.1805463,-0.09859026,0.1932247,0.1313636,0.9700984,-30.46899,2.268514,-20.43877,1011.455
8.860381126,1.177435,-0.05952091,-0.2820776,0.1800584,0.1361591,0.9677818,-30.46899,2.268514,-20.43877,1011.455
8.880197525,0.3814003,0.0009917939,-0.1597527,0.1800415,0.140058,0.9692499,-30.46171,1.917455,-19.60892,1011.454
8.900014400,-0.3534013,0.0009917939,-0.2820776,0.1825348,0.1337593,0.9769267,-30.46171,1.917455,-19.60892,1011.454
8.919830799,-1.21067,-0.3015717,0.02373465,0.1766546,0.1351641,0.9663472,-30.08625,1.546323,-20.04718,1011.453
8.939647198,-2.067938,-0.4831098,0.02373465,0.1669394,0.130722,0.9625161,-30.08625,1.546323,-20.04718,1011.453
8.959463596,-2.557806,-1.632851,0.02373465,0.1552085,0.1320861,0.9476244,-30.08625,1.546323,-20.04718,1011.455
8.981757641,-2.863973,-2.72208,0.5741968,0.1738636,0.1083517,0.9594673,-30.83953,2.264531,-20.43739,1011.455
9.001574039,-3.904943,-2.964131,0.6353592,0.1708565,0.1439606,0.9920061,-30.83953,2.264531,-20.43739,1011.45
9.021390438,-5.007145,-3.024643,0.5130343,0.1720189,0.1177022,1.004414,-30.46899,2.268514,-20.43877,1011.45
9.041206837,-9.905823,-2.540542,0.7576842,0.1938952,0.09581012,0.965568,-30.46899,2.268514,-20.43877,1011.449
9.061023235,-7.272783,-2.661567,-0.09859026,0.190818,0.1186582,0.9565313,-30.46899,2.268514,-20.43877,1011.449
9.080839634,-4.700978,-3.024643,-0.5267274,0.1792194,0.08931787,0.9298968,-31.21582,2.627243,-20.44248,1011.452
9.100656509,-8.987321,-5.505664,0.6353592,0.135956,0.06906435,0.9029996,-31.21582,2.627243,-20.44248,1011.452
9.120472908,-6.905383,-8.954888,2.531395,0.1028204,0.08791255,0.9153448,-30.1035,2.646409,-20.06662,1011.452
9.140289307,-6.354281,-13.06975,3.999295,0.1217435,0.05669169,0.8508846,-30.1035,2.646409,-20.06662,1011.452
9.160105705,-25.39789,-17.48718,4.060457,0.1001489,0.1262057,1.050706,-30.1035,2.646409,-20.06662,1011.455
9.179922104,11.21972,-21.72307,4.182782,0.2495858,0.02875325,0.4996169,-31.20853,2.276185,-19.61263,1011.455
9.199738503,-44.8089,-33.03894,2.959532,0.06890489,0.1441917,0.9032699,-31.20853,2.276185,-19.61263,1011.455
9.219555378,12.44439,-40.90559,4.488594,0.1527075,0.0605048,0.9520972,-31.20853,2.276185,-19.61263,1011.455
9.239371777,-11.98776,-48.34866,5.039056,0.1743303,0.08096343,0.9086428,-31.23012,3.757399,-18.87851,1011.456
9.261665344,-2.925207,-53.00813,3.020695,0.2443214,0.1208956,0.9615595,-31.23012,3.757399,-18.87851,1011.456
9.281481743,-6.844149,-40.30047,-3.156713,0.6198927,0.1660061,1.495026,-32.32941,3.02048,-18.41803,1011.459
9.301298618,-96.73488,9.864562,-24.93055,0.8477065,-0.2689108,-0.4454433,-32.32941,3.02048,-18.41803,1011.459
9.321115017,30.3858,28.68401,3.754644,0.8751015,0.4858757,1.128919,-32.32941,3.02048,-18.41803,1011.459
9.340931416,-6.966616,43.32809,-7.132273,0.4550551,0.04568695,1.022285,-32.32576,3.057767,-16.45461,1011.459
9.360747814,-4.149877,47.80603,-5.847861,0.3623935,-0.06071653,0.9150913,-32.32576,3.057767,-16.45461,1011.46
9.380564213,-3.843709,42.60194,0.3295469,0.3337329,-0.01879852,0.99414,-32.33375,3.401609,-17.66448,1011.46
9.400380612,-2.680273,34.7958,3.326507,0.3072104,0.01719956,0.8347036,-32.33375,3.401609,-17.66448,1011.461
9.420197487,1.667303,28.86555,5.589519,0.2761829,0.03226321,0.888528,-32.33375,3.401609,-17.66448,1011.461
9.440013886,3.932941,26.92914,5.650681,0.03487303,0.05553763,0.7610934,-31.22437,3.390704,-18.87203,1011.463
9.459830284,27.26289,17.06557,-13.37084,-0.02580303,0.5193313,0.9887358,-31.22437,3.390704,-18.87203,1011.463
9.479646683,-67.03664,11.74046,-10.43505,-0.06854344,-0.4222451,0.7394157,-31.23154,3.742965,-19.63855,1011.46
9.499463081,34.05981,-4.113872,4.610919,-0.1004361,0.3740795,0.6847936,-31.23154,3.742965,-19.63855,1011.46
9.521757126,11.83206,-10.58873,1.613959,0.2015187,0.1025818,0.9303255,-31.23154,3.742965,-19.63855,1011.461
9.541573524,0.8100346,-9.560016,1.797446,0.2099663,0.08061022,1.08945,-30.48975,3.758148,-19.2613,1011.461
9.561389923,1.728537,-8.107711,1.797446,0.2037516,0.04119952,0.913587,-30.48975,3.758148,-19.2613,1011.461
9.581206322,-3.047674,-4.96105,-0.5878899,0.2635769,0.05310308,1.076949,-31.22579,3.37627,-19.63206,1011.461
9.601022720,4.97391,1.816373,-0.2209152,0.3315949,0.06416193,1.07422,-31.22579,3.37627,-19.63206,1011.46
9.620839596,4.667743,3.268678,-0.1597527,0.2224886,0.09148724,0.9287058,-31.22579,3.37627,-19.63206,1011.46
9.640655994,4.177875,1.876886,-1.811139,0.1770745,0.1488075,0.9693111,-31.21358,2.650096,-19.23909,1011.463
9.660472393,5.525012,2.724063,-0.465565,0.1690634,0.08867301,1.088268,-31.21358,2.650096,-19.23909,1011.463
9.680289268,8.158051,6.354825,-0.3432401,0.269908,0.09435114,1.004724,-30.11993,3.754914,-19.64271,1011.465
9.700106144,2.402105,10.89328,-1.688814,0.352185,0.09092797,1.023563,-30.11993,3.754914,-19.64271,1011.465
9.719922543,-0.1084674,14.40302,-1.383002,0.1085516,-0.04084922,0.8152204,-30.11993,3.754914,-19.64271,1011.463
9.739738941,-2.98644,-3.508745,0.5741968,0.0715963,0.05409238,0.6884832,-30.85033,3.005138,-20.07033,1011.463
9.759555340,5.463778,0.9691951,0.5130343,0.187461,0.2066713,1.11532,-30.85033,3.005138,-20.07033,1011.459
9.779371738,3.075673,1.574322,-0.1597527,0.1619834,0.1775623,1.0125,-31.22004,3.009575,-19.62559,1011.459
9.801664829,-1.39437,1.816373,-0.3432401,0.1929047,0.1422352,1.036766,-31.22004,3.009575,-19.62559,1011.462
9.821482182,-2.557806,0.6666315,-0.465565,0.2059276,0.1192489,0.9670706,-31.22004,3.009575,-19.62559,1011.462
9.841298580,-4.272344,0.0009917939,-0.2820776,0.1934503,0.08459309,0.9592381,-30.47404,2.642426,-20.06524,1011.462
9.861114979,-2.680273,-0.1200336,0.02373465,0.1942021,0.07598566,1.022903,-30.47404,2.642426,-20.06524,1011.462
9.880931377,-2.557806,0.4850934,-0.09859026,0.185732,0.09681968,0.9979574,-31.22004,3.009575,-19.62559,1011.463
9.900748253,-3.108907,-0.241059,0.02373465,0.1928058,0.1098989,0.9545448,-31.22004,3.009575,-19.62559,1011.463
9.920564651,-4.272344,-0.3015717,-0.2820776,0.1691777,0.0972093,0.9932232,-31.22004,3.009575,-19.62559,1011.464
9.940381050,-4.088643,-0.9066988,0.2683845,0.1815444,0.04120092,0.9619764,-31.21429,2.642879,-19.61911,1011.464
9.960197449,-3.537542,-1.209262,0.2683845,0.1314305,0.03310402,0.942902,-31.21429,2.642879,-19.61911,1011.465
9.980013847,-1.700538,-0.1200336,-0.1597527,0.2656045,0.1129582,1.056972,-30.10925,3.013104,-20.0731,1011.465
9.999830246,-1.333137,0.7876569,-0.09859026,0.1630305,0.1116228,0.9257559,-30.10925,3.013104,-20.0731,1011.467
10.019647121,-1.945472,1.211246,-0.1597527,0.2127427,0.07710202,1.042115,-30.10925,3.013104,-20.0731,1011.467
10.039463520,-1.884238,1.150733,-0.3432401,0.1594489,0.02138218,0.8678733,-30.86183,3.738528,-20.08329,1011.468
10.061757088,0.8712681,0.7876569,0.1460596,0.1875002,0.0515831,1.014126,-30.86183,3.738528,-20.08329,1011.468
10.081573486,-0.8432691,0.2430426,-0.2209152,0.1677196,0.04880407,0.9138233,-30.47896,3.01754,-19.62836,1011.464
10.101390362,0.07523298,-0.4831098,-0.1597527,0.1832943,0.05671524,0.9301897,-30.47896,3.01754,-19.62836,1011.464
10.121206760,1.116202,-0.7251607,-0.03742781,0.1815443,0.06711105,1.004585,-30.47896,3.01754,-19.62836,1011.465
10.141023159,1.361136,-0.1805463,-0.2820776,0.2151523,0.06194377,1.010649,-30.47825,3.024757,-19.24834,1011.465
10.160839558,3.688008,0.2430426,-0.03742781,0.1910349,0.0743258,0.9471316,-30.47825,3.024757,-19.24834,1011.467
10.180655956,3.19814,0.0615045,0.02373465,0.1946331,0.0676378,0.992932,-31.23154,3.742965,-19.63855,1011.467
10.200472355,1.299902,0.6666315,-0.2820776,0.1730581,0.07082304,0.9467293,-31.23154,3.742965,-19.63855,1011.468
10.220289707,1.60607,0.6061188,-0.09859026,0.1766195,0.08366358,1.013868,-31.23154,3.742965,-19.63855,1011.468
10.240106106,1.78977,-0.3620844,0.08489711,0.1914231,0.09479088,0.9520614,-30.49046,3.750931,-19.64132,1011.469
10.259922504,1.361136,0.1825299,-0.3432401,0.1822418,0.09038533,0.9622252,-30.49046,3.750931,-19.64132,1011.469
10.279738903,2.034704,0.6061188,-0.2209152,0.1834236,0.04067485,0.9416909,-30.49046,3.750931,-19.64132,1011.467
10.299555779,0.4426338,0.0615045,-0.1597527,0.1935879,0.08175827,0.9949409,-30.85525,3.380253,-19.63345,1011.467
10.319372177,0.1364664,0.7271442,-0.4044026,0.1923594,0.1104138,0.9670994,-30.85525,3.380253,-19.63345,1011.47
10.341665745,0.5038673,0.6666315,0.08489711,0.1551947,0.1242543,0.9306904,-30.85033,3.005138,-20.07033,1011.47
10.361482143,0.0139995,0.3035553,-0.03742781,0.1786193,0.07393515,1.013807,-30.85033,3.005138,-20.07033,1011.469
10.381299019,-1.578071,0.6666315,0.08489711,0.186177,0.07039353,0.9423112,-30.49046,3.750931,-19.64132,1011.469
10.401115418,-1.945472,-0.3015717,0.08489711,0.1919645,0.08554416,0.9529762,-30.49046,3.750931,-19.64132,1011.469
10.420931816,-0.7208021,-0.7251607,0.08489711,0.1827537,0.08258417,0.9568729,-30.49046,3.750931,-19.64132,1011.469
10.440748215,0.7488011,-1.814389,0.5741968,0.1546588,0.05856365,0.9506285,-30.49046,3.750931,-19.64132,1011.47
10.460564613,2.218405,-4.416436,0.2683845,0.1755916,0.04939805,0.9412959,-30.49046,3.750931,-19.64132,1011.47
10.480381012,-1.884238,-5.384639,0.5741968,0.1725868,0.08843066,0.9801271,-30.49046,3.750931,-19.64132,1011.471
10.500197888,0.5038673,-1.874902,0.1460596,0.4127765,0.03165869,1.151802,-30.47979,3.009121,-20.07172,1011.471
10.520014286,-0.1697009,4.478932,-0.7102148,0.2250701,0.09796225,0.9832675,-30.47979,3.009121,-20.07172,1011.473
10.539830685,1.483603,1.513809,0.08489711,0.008187418,0.1033533,0.8585033,-30.85537,3.379051,-19.69679,1011.473
10.559647560,0.0139995,-1.3908,0.207222,0.2238158,0.08490147,1.021821,-30.85537,3.379051,-19.69679,1011.472
10.579464435,-0.9045025,-0.3620844,-0.2820776,0.1925403,0.0777887,0.9664482,-30.85537,3.379051,-19.69679,1011.472
10.599280834,-1.823005,-1.632851,-0.09859026,0.1345619,0.09159125,0.9591136,-30.84879,3.020775,-19.24696,1011.469
10.621574402,-0.4146348,-6.655406,0.08489711,0.07984406,0.1087308,0.9150948,-30.84879,3.020775,-19.24696,1011.469
10.641390800,-1.578071,-11.13335,-0.1597527,0.1706319,0.1799766,0.9854348,-31.22004,3.009575,-19.62559,1011.471
10.661207676,-2.129172,-2.903618,0.3907094,0.4964044,0.06727554,1.203174,-31.22004,3.009575,-19.62559,1011.471
10.681024074,-5.313313,3.147652,-0.4044026,0.1333618,0.01354923,0.9065901,-31.22004,3.009575,-19.62559,1011.472
10.700840473,-3.966176,-0.846186,-0.1597527,0.1612844,0.09953336,0.9643177,-30.4725,2.658062,-19.24187,1011.472
10.720656872,-1.945472,0.2430426,0.02373465,0.2226408,0.1072399,0.9992569,-30.4725,2.658062,-19.24187,1011.473
10.740473270,-1.02697,0.5456061,-0.1597527,0.1896555,0.0650866,0.9552972,-30.85454,3.38747,-19.25344,1011.473
10.760289669,-2.680273,1.332271,-0.2209152,0.2682617,0.06326695,1.041257,-30.85454,3.38747,-19.25344,1011.472
10.780106544,-1.271903,11.86148,-1.505327,0.5416785,0.07145304,1.222737,-30.85454,3.38747,-19.25344,1011.472
10.799922943,-0.4758682,28.38145,-2.483926,-0.09608251,0.1168523,0.8248733,-30.48975,3.758148,-19.2613,1011.473
10.819739819,-10.88556,-7.684122,0.02373465,0.3110958,0.02992661,0.8540548,-30.48975,3.758148,-19.2613,1011.473
10.839556217,-6.354281,1.150733,-2.239276,0.4274123,0.1132074,1.014095,-30.85537,3.379051,-19.69679,1011.472
10.859373093,12.44439,-1.935415,1.613959,0.1903779,0.1693876,1.196203,-30.85537,3.379051,-19.69679,1011.472
10.881666183,4.728976,-0.1805463,0.02373465,0.1667886,0.08989404,0.9936814,-30.85537,3.379051,-19.69679,1011.471
10.901483059,1.483603,1.09022,-0.03742781,0.1948542,0.06060659,0.9035991,-31.21933,3.016792,-19.24557,1011.471
10.921299458,3.38184,0.4850934,-0.2820776,0.1933093,0.04670538,0.9981411,-31.21933,3.016792,-19.24557,1011.472
10.941116333,2.463338,0.1825299,-0.1597527,0.1738074,0.007949013,0.9203377,-30.48471,3.384236,-19.63484,1011.472
10.960932732,1.299902,0.364068,-0.2820776,0.1943436,0.00275597,0.9438498,-30.48471,3.384236,-19.63484,1011.467
10.980749130,1.483603,0.0615045,-0.09859026,0.1782418,0.04272259,0.9943418,-30.48471,3.384236,-19.63484,1011.467
11.000565529,3.075673,-0.1200336,-0.2209152,0.1854938,0.102027,0.9366853,-30.48554,3.375816,-20.0782,1011.467
11.020381927,4.667743,0.2430426,-0.03742781,0.1824573,0.0998279,1.040949,-30.48554,3.375816,-20.0782,1011.467
11.040198326,4.545276,-0.3620844,-0.09859026,0.1975232,0.06909961,0.9871315,-30.84962,3.012355,-19.69031,1011.468
11.060015202,1.912237,0.0009917939,-0.03742781,0.1788032,0.06003309,0.902236,-30.84962,3.012355,-19.69031,1011.468
11.079832077,3.994175,-0.6646479,0.207222,0.1887845,0.06222096,0.9803866,-30.84962,3.012355,-19.69031,1011.469
11.099648476,4.60651,-1.088237,0.3295469,0.1652721,0.08251231,0.964691,-30.85537,3.379051,-19.69679,1011.469
11.119465351,3.259373,0.0009917939,-0.3432401,0.2296735,0.108413,1.066799,-30.85537,3.379051,-19.69679,1011.469
11.139281750,3.565541,-0.241059,-0.3432401,0.185947,0.1161832,0.9502705,-30.48483,3.383033,-19.69818,1011.469
11.161575317,3.38184,-0.3620844,0.08489711,0.1835733,0.1152342,0.9657242,-30.48483,3.383033,-19.69818,1011.47
11.181391716,1.912237,-2.237978,0.1460596,0.1661188,0.1000267,0.9565708,-30.48483,3.383033,-19.69818,1011.47
11.201208115,2.891973,-3.448232,-0.09859026,0.179103,0.08923467,0.8956268,-30.85033,3.005138,-20.07033,1011.467
11.221024990,-1.02697,-2.298491,0.3907094,0.2004565,0.07401443,0.9996903,-30.85033,3.005138,-20.07033,1011.467
11.240841389,-2.680273,-0.4225971,-0.2820776,0.2136385,0.05407511,0.9816566,-30.85454,3.38747,-19.25344,1011.468
11.260657787,-1.271903,1.876886,-0.09859026,0.24688,0.05632403,1.035064,-30.85454,3.38747,-19.25344,1011.468
11.280474186,-3.170141,1.816373,-0.6490523,0.1622984,0.083924,0.9507169,-30.85454,3.38747,-19.25344,1011.47
11.300290585,-3.598775,0.6061188,-0.2209152,0.1985844,0.1460647,0.9971746,-30.47404,2.642426,-20.06524,1011.47
11.320107937,-2.129172,5.507648,-0.7102148,0.2447935,0.1153666,1.090886,-30.47404,2.642426,-20.06524,1011.471
11.339924336,-5.129612,-0.1805463,-0.09859026,0.1579431,0.03810664,0.7390924,-30.84304,2.654079,-19.24048,1011.471
11.359740734,-5.374546,1.574322,-0.03742781,0.1802566,0.05207093,1.030097,-30.84304,2.654079,-19.24048,1011.471
11.379557133,-5.252079,0.9086823,-0.2820776,0.1803772,0.04007908,0.9030902,-30.84304,2.654079,-19.24048,1011.471
11.399374008,-4.088643,0.6061188,-0.1597527,0.2028532,0.03586996,0.9265969,-31.20865,2.274982,-19.67596,1011.47
11.421667576,-2.680273,-0.1200336,0.207222,0.1862932,0.06167692,0.9620556,-31.20865,2.274982,-19.67596,1011.47
11.441483975,-3.415075,0.3035553,-0.1597527,0.1931491,0.04121328,0.9421231,-30.48554,3.375816,-20.0782,1011.472
11.461300373,-2.98644,-0.241059,-0.2820776,0.177699,0.06663445,1.017153,-30.48554,3.375816,-20.0782,1011.472
11.481117249,-1.271903,-0.3015717,-0.1597527,0.1894281,0.09425637,0.9366238,-30.48554,3.375816,-20.0782,1011.475
11.500933647,0.3201669,-0.4225971,0.08489711,0.1872525,0.07731627,0.9838512,-31.23166,3.741763,-19.70188,1011.475
11.520750523,0.4426338,-1.511826,0.207222,0.1323796,0.06584667,0.9898849,-31.23166,3.741763,-19.70188,1011.475
11.540566921,0.1364664,-3.448232,0.08489711,0.1540357,0.0824181,0.949789,-30.85454,3.38747,-19.25344,1011.475
11.560383797,0.8100346,-4.597974,0.6353592,0.2211584,0.1140598,1.003644,-30.85454,3.38747,-19.25344,1011.47
11.580200195,3.38184,-0.4225971,-0.03742781,0.3062819,0.07770243,1.089874,-30.85454,3.38747,-19.25344,1011.47
11.600016594,2.034704,1.816373,-1.138352,0.1630206,0.03325239,0.9364551,-31.23716,4.040124,-20.0873,1011.471
11.619832992,0.6875677,1.271759,-0.465565,0.2073046,0.08141095,1.023342,-31.23716,4.040124,-20.0873,1011.471
11.639649391,1.361136,2.966114,-0.465565,0.1646283,0.1127073,0.9682284,-31.23716,4.040124,-20.0873,1011.472
11.659465790,1.973471,-0.5436226,-0.03742781,0.196299,0.09580278,0.9573492,-30.49058,3.749729,-19.70466,1011.472
11.679283142,1.483603,0.0009917939,0.02373465,0.1862243,0.09193773,0.9916548,-30.49058,3.749729,-19.70466,1011.467
11.701576233,2.708272,0.6666315,-0.2209152,0.1833122,0.08117162,0.975687,-31.22591,3.375068,-19.6954,1011.467
11.721393585,0.9325016,1.150733,-0.3432401,0.1959928,0.0797962,0.9838161,-31.22591,3.375068,-19.6954,1011.469
11.741209984,0.3201669,0.0009917939,-0.1597527,0.1812511,0.08596752,0.9496583,-31.22591,3.375068,-19.6954,1011.469
11.761026382,0.2589334,-0.1805463,-0.2820776,0.1897065,0.07245609,0.9823648,-30.10854,3.020321,-19.69309,1011.47
11.780842781,0.3201669,-0.05952091,-0.09859026,0.1905581,0.09144064,0.9781135,-30.10854,3.020321,-19.69309,1011.47
11.800659180,0.3201669,0.3035553,-0.1597527,0.1910532,0.09340491,0.983913,-30.84962,3.012355,-19.69031,1011.469
11.820475578,0.3201669,0.2430426,-0.2820776,0.1813609,0.08164613,0.9747348,-30.84962,3.012355,-19.69031,1011.469
11.840292454,0.2589334,0.1825299,-0.09859026,0.1799385,0.08068699,0.9839085,-30.84962,3.012355,-19.69031,1011.47
11.860109329,0.4426338,0.1220172,-0.2820776,0.1872082,0.07728463,0.9708189,-30.47908,3.016338,-19.6917,1011.47
11.879925728,1.177435,0.3035553,-0.1597527,0.1813941,0.07629231,0.9756725,-30.47908,3.016338,-19.6917,1011.472
11.899742603,0.9325016,0.2430426,-0.2209152,0.1793784,0.08209837,0.9646116,-30.10925,3.013104,-20.0731,1011.472
11.919559002,1.116202,-0.1200336,-0.2209152,0.1828427,0.07727019,0.9742215,-30.10925,3.013104,-20.0731,1011.469
11.939375401,1.361136,0.1220172,-0.09859026,0.1818842,0.07531979,0.9751821,-30.10925,3.013104,-20.0731,1011.469
11.961668968,1.299902,0.1220172,-0.09859026,0.1852259,0.08653668,0.9752214,-30.86112,3.745745,-19.70327,1011.469
11.981485367,1.361136,-0.05952091,-0.1597527,0.185722,0.08214633,0.970852,-30.86112,3.745745,-19.70327,1011.469
12.001302242,1.667303,0.2430426,-0.09859026,0.1989184,0.07932789,0.9852458,-31.22086,3.001155,-20.06894,1011.47
12.021118641,1.60607,0.0615045,-0.2820776,0.1900919,0.08754156,0.9776133,-31.22086,3.001155,-20.06894,1011.47
12.040935516,1.912237,0.1220172,-0.2820776,0.1925579,0.08024558,0.9756317,-31.22086,3.001155,-20.06894,1011.471
12.060752392,2.218405,0.1220172,0.02373465,0.1871902,0.08020501,0.9703513,-30.84962,3.012355,-19.69031,1011.471
12.080568790,2.585805,0.1220172,-0.1597527,0.1886405,0.0870506,0.9790668,-30.84962,3.012355,-19.69031,1011.467
12.100385189,2.769506,0.0615045,-0.03742781,0.18817,0.08363727,0.9780865,-30.84962,3.012355,-19.69031,1011.467
12.120201588,2.830739,-0.05952091,-0.09859026,0.1813352,0.08504991,0.9728217,-30.84962,3.012355,-19.69031,1011.467
12.140017986,3.075673,-0.05952091,-0.2209152,0.1861888,0.09093458,0.9795828,-30.84962,3.012355,-19.69031,1011.467
12.159834385,3.443074,0.2430426,-0.1597527,0.1852221,0.08897834,0.9781301,-30.11429,3.387016,-19.69957,1011.467
12.179651737,3.443074,-0.05952091,-0.1597527,0.1934701,0.09487359,0.9819766,-30.11429,3.387016,-19.69957,1011.467
12.199468136,3.259373,0.0009917939,-0.03742781,0.1856512,0.09920626,0.9781803,-30.48483,3.383033,-19.69818,1011.467
12.219284535,3.075673,0.1220172,-0.1597527,0.18911,0.08948539,0.9781114,-30.48483,3.383033,-19.69818,1011.464
12.241578579,2.218405,0.3035553,-0.4044026,0.2417245,0.1049773,1.029549,-30.48483,3.383033,-19.69818,1011.464
12.261394978,5.463778,-1.088237,-0.2209152,0.1707841,0.1292427,0.9465591,-30.83882,2.271748,-20.05737,1011.464
12.281211376,1.483603,1.09022,-0.1597527,0.2198949,0.1029479,1.042691,-30.83882,2.271748,-20.05737,1011.465
12.301027775,1.116202,0.6061188,-0.2820776,0.1623338,0.07906061,0.9531052,-30.84962,3.012355,-19.69031,1011.465
12.320844174,-1.271903,-0.05952091,-0.3432401,0.2207414,0.1101959,1.017624,-30.84962,3.012355,-19.69031,1011.466
12.340661526,0.6875677,0.364068,-0.465565,0.1879987,0.1001365,0.9550037,-30.84962,3.012355,-19.69031,1011.466
12.360477924,1.116202,0.0009917939,-0.03742781,0.1773956,0.1011276,0.9849928,-31.21441,2.641677,-19.68244,1011.463
12.380294323,-0.7208021,-0.1805463,-0.3432401,0.1708856,0.1175823,0.9571176,-31.21441,2.641677,-19.68244,1011.463
12.400110722,-0.6595686,1.211246,0.1460596,0.1828832,0.1115201,1.042455,-31.22015,3.008372,-19.68892,1011.465
12.419927597,-3.353841,0.6666315,-0.1597527,0.1720877,0.0395318,0.8958927,-31.22015,3.008372,-19.68892,1011.465
12.439743996,-2.80274,-0.4831098,-0.4044026,0.1840997,0.09424393,0.9429278,-31.22015,3.008372,-19.68892,1011.465
12.459560871,-2.190405,0.0009917939,-0.09859026,0.1448111,0.1092695,0.9987279,-30.16526,2.645745,-20.06639,1011.469
12.479377747,-2.925207,0.7876569,-1.016027,0.2532533,0.1073797,0.9913672,-30.16526,2.645745,-20.06639,1011.469
12.501671314,-3.537542,1.211246,-0.8325397,0.1730065,0.08740777,0.9588817,-30.10279,2.653625,-19.68661,1011.47
12.521487713,-3.537542,0.2430426,-0.03742781,0.182451,0.04360308,0.9465381,-30.10279,2.653625,-19.68661,1011.471
12.541304111,-5.190845,0.3035553,-0.03742781,0.1915274,0.0855768,0.9674592,-30.10279,2.653625,-19.68661,1011.471
12.561120987,-4.823445,0.1825299,-0.2820776,0.1841069,0.09913778,0.9530891,-30.47825,3.024757,-19.24834,1011.466
12.580937385,-5.497013,0.3035553,0.02373465,0.1867401,0.0904947,0.9979194,-30.47825,3.024757,-19.24834,1011.466
12.600753784,-6.109347,0.364068,-0.465565,0.1904352,0.09868592,0.9540174,-30.16526,2.645745,-20.06639,1011.466
12.620570660,-6.721682,0.364068,-0.09859026,0.1941702,0.06374105,0.9933972,-30.16526,2.645745,-20.06639,1011.466
12.640387535,-7.150316,1.150733,0.02373465,0.1930934,0.08174989,0.9925302,-30.16526,2.645745,-20.06639,1011.466
12.660203934,-7.21155,0.3035553,-0.03742781,0.1909875,0.08749152,0.9549224,-29.79893,3.03206,-19.25089,1011.467
12.680020332,-7.578951,0.1220172,-0.2820776,0.198443,0.07884431,0.9876591,-29.79893,3.03206,-19.25089,1011.467
12.699836731,-7.456484,0.7271442,-0.03742781,0.1984572,0.07543232,0.9861936,-30.48483,3.383033,-19.69818,1011.466
12.719654083,-7.578951,0.1825299,-0.1597527,0.1945259,0.06267247,0.9533275,-30.48483,3.383033,-19.69818,1011.466
12.739470482,-6.905383,0.1825299,0.02373465,0.1897419,0.06905933,0.9871739,-30.48483,3.383033,-19.69818,1011.463
12.759286880,-6.476748,0.0009917939,-0.465565,0.1979613,0.06124571,0.9600587,-31.23166,3.741763,-19.70188,1011.463
12.781580448,-7.21155,-0.846186,0.2683845,0.1945014,-0.005442064,0.976629,-31.23166,3.741763,-19.70188,1011.462
12.801397324,-1.088203,0.2430426,0.2683845,0.1612954,0.1019856,0.9715703,-30.1818,3.753047,-19.70581,1011.463
12.821213722,0.8712681,-0.6646479,1.002334,0.1599488,0.08690327,0.9797057,-30.1818,3.753047,-19.70581,1011.463
12.841030121,-0.7820356,-0.1200336,-0.5267274,0.2761526,0.04871941,1.049345,-30.1818,3.753047,-19.70581,1011.463
12.860846519,0.6263342,1.574322,-0.5878899,0.1927676,0.0383525,0.9681752,-30.1818,3.753047,-19.70581,1011.463
12.880663872,2.340871,0.364068,0.2683845,0.1407235,0.01754565,0.9326349,-30.1818,3.753047,-19.70581,1011.463
12.900480270,3.688008,-0.1200336,-0.1597527,0.2121848,0.07607058,1.019426,-30.1818,3.753047,-19.70581,1011.464
12.920296669,5.096377,0.5456061,-0.03742781,0.1752621,0.04461886,0.9794047,-30.16947,3.028077,-19.2495,1011.464
12.940113068,5.218844,1.029708,0.5741968,0.1797402,0.04715816,1.013181,-30.16947,3.028077,-19.2495,1011.457
12.959929466,8.586685,1.211246,1.185821,0.1698471,0.05921062,0.9843361,-30.48975,3.758148,-19.2613,1011.457
12.979746819,9.750121,0.2430426,0.8800091,0.1994411,0.06664576,0.9750414,-30.48975,3.758148,-19.2613,1011.458
12.999563217,9.811355,0.0615045,-0.7713773,0.2152469,0.1051759,0.9669473,-30.48975,3.758148,-19.2613,1011.458
13.019379616,10.66862,-0.05952091,-0.3432401,0.1591496,0.03177968,0.9398474,-30.19152,4.433741,-19.27434,1011.46
13.041673660,10.97479,-0.241059,0.3907094,0.1931994,0.08133679,1.022936,-30.19152,4.433741,-19.27434,1011.457
13.061490059,11.58712,0.364068,-0.1597527,0.1759032,0.09180754,0.9598538,-30.47825,3.024757,-19.24834,1011.457
13.081306458,12.56686,-0.4225971,-0.03742781,0.2041329,0.106147,0.9896991,-30.47825,3.024757,-19.24834,1011.458
13.101122856,12.87303,-0.9066988,-0.3432401,0.1847127,0.08162624,0.9592707,-30.47825,3.024757,-19.24834,1011.458
13.120940208,12.81179,-0.7251607,-0.1597527,0.1681254,0.1079026,0.9874918,-30.16372,2.661381,-19.24302,1011.458
13.140756607,13.11796,0.1220172,-0.03742781,0.2079637,0.1242126,1.001838,-30.16372,2.661381,-19.24302,1011.457
13.160573006,14.15893,-0.05952091,-0.7713773,0.2116866,0.1265572,0.9564576,-31.22508,3.383487,-19.25205,1011.457
13.180389404,16.73074,-1.874902,-1.016027,0.2223037,0.1177542,0.91774,-31.22508,3.383487,-19.25205,1011.459
13.200205803,10.97479,-2.843105,-0.7102148,0.03824048,0.02981993,0.9931111,-31.22508,3.383487,-19.25205,1011.459
13.220023155,9.566421,-1.14875,0.4518718,0.2919298,0.08087387,1.022393,-30.84387,2.64566,-19.68383,1011.458
13.239839554,10.23999,1.332271,0.8800091,0.1808204,0.1932116,0.9999274,-30.84387,2.64566,-19.68383,1011.458
13.259655953,8.158051,0.6666315,-0.5878899,0.1780918,0.1376004,0.9639385,-30.15375,1.912354,-20.05343,1011.458
13.279472828,8.402985,-0.5436226,-0.1597527,0.1945089,0.136135,0.9266748,-30.15375,1.912354,-20.05343,1011.458
13.299289227,6.321046,-0.05952091,-0.6490523,0.1859291,0.15968,1.016621,-30.15375,1.912354,-20.05343,1011.459
13.321582794,6.076113,1.453297,-0.5267274,0.1732796,0.2350412,0.9968047,-30.46253,1.909035,-20.05227,1011.459
13.341400147,5.463778,0.4850934,0.1460596,0.2125416,0.149944,0.9604345,-30.46253,1.909035,-20.05227,1011.461
13.361216545,2.218405,0.6061188,-0.2209152,0.2191292,0.1369669,1.016805,-30.46253,1.909035,-20.05227,1011.461
13.381032944,0.2589334,2.118936,-0.6490523,0.1640517,0.144417,0.9939765,-30.46253,1.909035,-20.05227,1011.462
13.400849342,1.361136,0.364068,0.08489711,0.1836941,0.1555519,0.924903,-30.46253,1.909035,-20.05227,1011.462
13.420665741,-0.1084674,0.5456061,-0.2209152,0.1878323,0.155749,0.9977658,-30.46828,2.275731,-20.05876,1011.459
13.440483093,-1.02697,0.364068,0.02373465,0.2042662,0.1430515,0.9469295,-30.46828,2.275731,-20.05876,1011.459
13.460299492,-1.455604,0.1220172,0.02373465,0.1984855,0.1440385,0.9648252,-30.83307,1.905053,-20.05089,1011.459
13.480115891,-3.108907,0.1825299,-0.09859026,0.215563,0.1285227,0.9554812,-30.83307,1.905053,-20.05089,1011.459
13.499932289,-4.823445,-0.05952091,-0.4044026,0.2043478,0.1211106,0.9347494,-30.83307,1.905053,-20.05089,1011.462
13.519749164,-3.231374,0.3035553,-0.2209152,0.2086738,0.1455404,0.9599504,-30.82661,1.545574,-19.66439,1011.462
13.539566040,-4.02741,0.0009917939,-0.03742781,0.2251312,0.09717199,0.8572841,-30.82661,1.545574,-19.66439,1011.462
13.559382439,-4.578511,0.0615045,-0.5267274,0.2010509,0.1348581,0.988898,-30.46899,2.268514,-20.43877,1011.462
13.581676483,-6.231814,-0.5436226,-0.03742781,0.1844818,0.1352372,0.9798197,-30.46899,2.268514,-20.43877,1011.459
13.601492882,-3.476308,0.0009917939,-0.2209152,0.0917571,0.08613041,0.8058282,-30.46899,2.268514,-20.43877,1011.459
13.621309280,-2.251639,0.364068,0.3907094,0.1685545,0.1212075,0.8499944,-30.15446,1.905138,-20.43345,1011.46
13.641125679,-5.986881,0.2430426,-0.6490523,0.1730743,0.09381161,0.989323,-30.15446,1.905138,-20.43345,1011.46
13.660943031,-7.02785,-0.05952091,-0.465565,0.1915632,0.07240289,0.9562896,-30.16526,2.645745,-20.06639,1011.461
13.680759430,-5.068378,0.4245807,0.02373465,0.1793691,0.08404724,0.9651045,-30.16526,2.645745,-20.06639,1011.461
13.700575828,-3.782475,0.1220172,-0.03742781,0.1887964,0.132282,0.9566123,-30.16526,2.645745,-20.06639,1011.457
13.720392227,-5.61948,-0.6041352,-0.2820776,0.1810574,0.1420494,0.9851829,-30.84457,2.638443,-20.06385,1011.457
13.740209579,-5.680713,0.7876569,-0.4044026,0.1915997,0.1320713,1.065199,-30.84457,2.638443,-20.06385,1011.458
13.760025978,-5.068378,2.4215,-0.465565,0.1314217,0.1051058,0.9162419,-30.1595,2.27905,-20.05991,1011.458
13.779842377,-6.721682,2.663551,0.08489711,0.1578518,0.1410496,1.024402,-30.1595,2.27905,-20.05991,1011.462
13.799658775,-5.497013,0.8481696,0.2683845,0.2055464,0.0645679,0.9079051,-30.1595,2.27905,-20.05991,1011.462
13.819475651,-5.741947,-1.632851,0.207222,0.1891187,0.09760121,0.7088185,-30.83307,1.905053,-20.05089,1011.463
13.839292526,-10.88556,-2.177466,-1.138352,0.163386,0.1244437,1.193706,-30.83307,1.905053,-20.05089,1011.463
13.903696537,-5.313313,0.7876569,-0.4044026,0.1893454,0.118152,0.95171,-30.83729,2.287385,-19.234,1011.462
13.921035767,-5.61948,0.4245807,-0.3432401,0.1954454,0.09246075,0.9867802,-30.84387,2.64566,-19.68383,1011.462
13.940852165,-3.904943,0.4245807,0.08489711,0.169135,0.09131232,0.9709899,-30.84387,2.64566,-19.68383,1011.463
13.960669518,-2.129172,1.634835,-0.1597527,0.1818939,0.05758347,1.091416,-30.47908,3.016338,-19.6917,1011.463
13.980485916,-0.3534013,2.663551,-0.09859026,0.1818177,0.04237397,1.044036,-30.47908,3.016338,-19.6917,1011.463
14.000302315,0.2589334,2.239962,1.002334,0.1878307,0.006354189,1.036578,-30.47908,3.016338,-19.6917,1011.463
14.020118713,-2.557806,-0.4831098,0.207222,0.2214577,-0.00207779,0.9002355,-30.85537,3.379051,-19.69679,1011.463
14.039936066,0.3201669,-2.237978,0.6353592,0.2193209,0.06797166,0.6742309,-30.85537,3.379051,-19.69679,1011.463
14.059752464,0.07523298,-1.874902,0.3295469,0.1791096,0.06200638,0.7101385,-30.85537,3.379051,-19.69679,1011.466
14.079568863,-18.23357,1.029708,-2.973226,0.2471963,0.1488031,1.422645,-30.1703,3.019657,-19.69286,1011.466
14.099385262,19.05761,-3.811309,2.65372,0.1512869,0.32187,1.108387,-30.1703,3.019657,-19.69286,1011.462
14.121679306,7.300782,-1.330288,0.02373465,0.2161957,0.1685161,0.7790229,-30.84962,3.012355,-19.69031,1011.462
14.141495705,3.688008,-0.6646479,-0.5878899,0.1742553,0.102909,0.9227536,-30.84962,3.012355,-19.69031,1011.463
14.161313057,4.116642,-0.6646479,0.3907094,0.1698638,0.1084548,1.212896,-30.84962,3.012355,-19.69031,1011.463
14.181129456,5.096377,-0.4831098,0.8188466,0.2165782,0.1243021,0.8183733,-30.48483,3.383033,-19.69818,1011.464
14.200945854,1.422369,-1.088237,0.1460596,0.1317426,0.109246,1.017141,-30.48483,3.383033,-19.69818,1011.464
14.220762253,0.9325016,-3.38772,0.3907094,0.08332557,0.1537799,1.011843,-30.83812,2.278965,-19.67735,1011.466
14.240579605,5.035144,-7.018482,0.8800091,0.1643709,0.1819432,1.006717,-30.83812,2.278965,-19.67735,1011.466
14.260396004,1.851004,-0.3015717,-0.465565,0.4557025,0.1430901,1.229851,-30.83812,2.278965,-19.67735,1011.463
14.280212402,0.1364664,8.351745,-0.9548646,0.338333,0.1003233,1.112983,-30.84387,2.64566,-19.68383,1011.463
14.300028801,-2.374106,8.533283,-1.07719,-0.2673204,0.1007757,0.7861485,-30.84387,2.64566,-19.68383,1011.464
14.319846153,2.769506,4.478932,-0.2820776,0.0657409,0.1335906,0.9563273,-30.47979,3.009121,-20.07172,1011.464
14.339662552,-3.415075,3.692266,0.1460596,0.2030502,0.02036688,0.9588556,-30.47979,3.009121,-20.07172,1011.466
14.359478951,-3.843709,1.271759,0.2683845,0.1757387,0.05341414,0.9910316,-30.47979,3.009121,-20.07172,1011.466
14.379295349,-4.884678,-0.241059,0.8800091,0.199781,0.1067749,0.8555415,-30.83812,2.278965,-19.67735,1011.463
14.401589394,-6.109347,-0.1805463,0.7576842,0.1858453,0.1177209,0.7803761,-30.83812,2.278965,-19.67735,1011.463
14.421406269,-4.272344,-0.6646479,0.5741968,0.1806602,0.07918988,0.7652436,-30.47333,2.649642,-19.68522,1011.463
14.441222668,24.50739,-0.3015717,2.837208,-0.04436264,0.4142438,2.076254,-30.47333,2.649642,-19.68522,1011.463
14.461039543,14.22016,-4.840024,3.38767,0.2897992,0.1561615,0.9494246,-30.47333,2.649642,-19.68522,1011.464
14.480855942,3.504307,-1.753877,-0.8325397,0.2259526,0.1024465,0.8215885,-30.85033,3.005138,-20.07033,1011.464
14.500672817,0.5038673,-0.7856733,0.08489711,0.1265677,0.09858805,1.050902,-30.85033,3.005138,-20.07033,1011.465
14.520489693,2.034704,-2.540542,-0.03742781,0.1448654,0.05162138,0.919755,-30.16526,2.645745,-20.06639,1011.465
14.540306091,1.78977,-6.715919,0.5741968,0.06533509,0.1106687,0.9422141,-30.16526,2.645745,-20.06639,1011.466
14.560122490,0.1976999,-6.594893,0.5130343,0.1834446,0.1650072,1.009904,-30.16526,2.645745,-20.06639,1011.466
14.579939365,-2.129172,-6.897457,0.3295469,0.273348,0.107105,1.036145,-31.21441,2.641677,-19.68244,1011.462
14.599756241,0.2589334,1.634835,-0.2820776,0.3891878,0.06558393,1.136177,-31.21441,2.641677,-19.68244,1011.462
14.619572639,5.586245,6.89944,-1.138352,0.3227219,0.1067072,0.9668496,-30.49058,3.749729,-19.70466,1011.463
14.639389038,0.9325016,9.198922,-0.2820776,0.2022727,0.09593141,0.9978623,-30.49058,3.749729,-19.70466,1011.463
14.661682606,-5.129612,0.9086823,-0.465565,-0.01222359,0.002061709,0.6963977,-30.49058,3.749729,-19.70466,1011.465
14.681499958,2.218405,0.364068,-0.09859026,0.2409038,0.06988203,1.016341,-30.16455,2.652962,-19.68637,1011.465
14.701316357,0.4426338,1.75586,-0.465565,0.2046152,0.0592149,0.9112614,-30.16455,2.652962,-19.68637,1011.466
14.721132755,1.177435,0.0009917939,-0.2209152,0.1922476,0.1230446,0.9550981,-30.85608,3.371834,-20.07681,1011.466
14.740949154,1.60607,0.3035553,0.02373465,0.1826878,0.1299576,1.015521,-30.85608,3.371834,-20.07681,1011.462
14.760766506,0.7488011,0.3035553,-0.2209152,0.1801208,0.1073602,0.9386728,-30.85608,3.371834,-20.07681,1011.462
14.780582905,1.728537,-0.3015717,0.08489711,0.193337,0.1133556,0.9733841,-30.47404,2.642426,-20.06524,1011.463
14.800399303,1.728537,0.1220172,0.2683845,0.1959762,0.1012947,1.014335,-30.47404,2.642426,-20.06524,1011.463
14.820216179,1.361136,0.4245807,-0.03742781,0.1846801,0.09626913,0.9738263,-30.1703,3.019657,-19.69286,1011.464
14.840033054,1.054968,0.9086823,0.2683845,0.1827485,0.09675771,0.9786662,-30.1703,3.019657,-19.69286,1011.464
14.859849453,2.279638,0.3035553,-0.03742781,0.1811485,0.09518275,0.9347432,-30.1703,3.019657,-19.69286,1011.461
14.879665852,3.565541,-0.1805463,-0.1597527,0.1840891,0.1123246,0.969568,-30.47908,3.016338,-19.6917,1011.461
14.899482727,3.688008,-0.6646479,-0.4044026,0.1836372,0.1079468,0.9724441,-30.47908,3.016338,-19.6917,1011.461
14.919299602,3.565541,-0.9672114,-0.09859026,0.1875403,0.1060204,0.9728954,-30.17171,3.005223,-20.45289,1011.461
14.941593647,3.320607,0.3035553,-0.2209152,0.1962846,0.1177917,0.9893191,-30.17171,3.005223,-20.45289,1011.462
14.961410046,2.953206,0.2430426,-0.09859026,0.1825804,0.1147259,0.9589696,-30.17171,3.005223,-20.45289,1011.462
14.981226444,2.585805,0.3035553,0.08489711,0.1854936,0.1220706,0.9696103,-30.84962,3.012355,-19.69031,1011.464
15.001042843,3.01444,0.364068,0.08489711,0.1923384,0.1323981,0.9971386,-30.84962,3.012355,-19.69031,1011.464
15.020860195,2.769506,0.1825299,0.207222,0.1821035,0.1230409,0.975426,-31.22086,3.001155,-20.06894,1011.465
15.040676594,1.60607,0.1825299,-0.2209152,0.2026891,0.09637281,0.9780725,-31.22086,3.001155,-20.06894,1011.465
15.060492992,2.647039,0.1825299,-0.09859026,0.1796482,0.1122562,0.9507675,-31.22086,3.001155,-20.06894,1011.46
15.080310345,3.075673,-0.1200336,-0.03742781,0.1885192,0.1202072,0.9980623,-30.47979,3.009121,-20.07172,1011.46
15.100126743,2.279638,0.2430426,-0.3432401,0.1835668,0.1152296,0.9637936,-30.47979,3.009121,-20.07172,1011.459
15.119943142,2.402105,-0.1200336,-0.2209152,0.1850361,0.1142668,0.9652287,-30.16526,2.645745,-20.06639,1011.459
15.139759541,2.279638,-0.1200336,-0.2209152,0.1932417,0.1318646,0.9758931,-30.16526,2.645745,-20.06639,1011.46
15.159576893,1.483603,0.3035553,-0.4044026,0.211273,0.1270955,0.9786659,-30.16526,2.645745,-20.06639,1011.46
15.179393292,1.054968,0.0615045,-0.09859026,0.1859511,0.1284079,0.971571,-30.1703,3.019657,-19.69286,1011.464
15.201686859,-0.04723396,0.3035553,0.08489711,0.1888613,0.1215732,0.9580051,-30.1703,3.019657,-19.69286,1011.464
15.221503258,-0.3534013,0.2430426,-0.09859026,0.2000562,0.1240821,0.9647141,-30.84457,2.638443,-20.06385,1011.461
15.241320133,-0.2921678,0.2430426,0.02373465,0.1952546,0.1236122,0.9821144,-30.84457,2.638443,-20.06385,1011.461
15.261137009,-2.006705,0.5456061,-0.3432401,0.2109108,0.1310927,1.021647,-30.84457,2.638443,-20.06385,1011.463
15.280953407,-2.98644,0.0615045,-0.6490523,0.189579,0.1016973,0.9931346,-30.84387,2.64566,-19.68383,1011.463
15.300770760,-3.782475,0.0009917939,-0.8325397,0.1999757,0.1528681,0.9885136,-30.84387,2.64566,-19.68383,1011.464
15.320587158,-1.088203,-0.3620844,0.08489711,0.1914526,0.09334533,0.9583286,-30.84387,2.64566,-19.68383,1011.464
15.340403557,-1.945472,0.1220172,0.2683845,0.1917877,0.1362605,0.9846117,-30.16526,2.645745,-20.06639,1011.465
15.360219956,-2.557806,0.364068,-0.3432401,0.181128,0.114723,0.9609083,-30.16526,2.645745,-20.06639,1011.465
15.380036831,-2.129172,-0.1805463,-0.09859026,0.1816324,0.1162051,0.968636,-31.21511,2.63446,-20.06246,1011.465
15.399853706,-2.557806,-0.1805463,-0.4044026,0.1899098,0.1147882,0.9690661,-31.21511,2.63446,-20.06246,1011.465
15.419670105,-1.823005,-0.05952091,0.207222,0.1937694,0.1250525,0.9768205,-31.21511,2.63446,-20.06246,1011.469
15.439486981,-3.292608,0.1220172,-0.4044026,0.2112977,0.1344463,0.9980107,-30.83882,2.271748,-20.05737,1011.469
15.459303856,-3.843709,0.7271442,-0.5878899,0.1807061,0.1123222,0.9758613,-30.83882,2.271748,-20.05737,1011.464
15.481597901,-3.292608,1.271759,-0.3432401,0.185047,0.1108524,0.9627976,-30.47404,2.642426,-20.06524,1011.464
15.501414299,-3.353841,0.1825299,-0.2820776,0.1860611,0.1055095,0.9661434,-30.47404,2.642426,-20.06524,1011.467
15.521230698,-3.108907,0.0615045,0.02373465,0.2026443,0.1002518,0.9713351,-30.47404,2.642426,-20.06524,1011.467
15.541047096,-2.129172,0.364068,0.4518718,0.1915159,0.08703523,0.9665014,-30.84387,2.64566,-19.68383,1011.467
15.560864448,-1.884238,0.0615045,0.207222,0.1792466,0.1162253,0.9821641,-30.84387,2.64566,-19.68383,1011.467
15.580680847,-2.312872,0.8481696,-0.2820776,0.1880409,0.1114107,0.9859527,-30.47908,3.016338,-19.6917,1011.47
15.600497246,-2.129172,0.8481696,-0.3432401,0.1968657,0.09586272,0.9809977,-30.47908,3.016338,-19.6917,1011.47
15.620314598,-1.823005,1.029708,-0.5267274,0.1948582,0.1046079,0.9771923,-30.47908,3.016338,-19.6917,1011.471
15.640130997,-1.578071,0.4850934,-0.09859026,0.1714623,0.0932058,0.9434742,-31.5914,2.997172,-20.06755,1011.471
15.659947395,-1.088203,0.0009917939,0.08489711,0.1977718,0.1065754,0.9791172,-31.5914,2.997172,-20.06755,1011.471
15.679764271,-1.02697,0.1825299,-0.1597527,0.1861359,0.09920761,0.9776949,-30.83729,2.287385,-19.234,1011.471
15.699581146,-0.5983351,0.1220172,0.02373465,0.1812197,0.1059888,0.9734126,-30.83729,2.287385,-19.234,1011.472
15.719397545,-0.2309344,-0.3015717,-0.2820776,0.1836436,0.1020849,0.964691,-30.83729,2.287385,-19.234,1011.472
15.741691112,0.4426338,-0.6646479,-0.8325397,0.1770203,0.06600557,0.9597152,-30.47979,3.009121,-20.07172,1011.474
15.761507511,0.1976999,-1.209262,-0.3432401,0.1841169,0.106478,0.9680897,-30.47979,3.009121,-20.07172,1011.474
15.781324863,0.8712681,-1.632851,0.08489711,0.1521244,0.09367643,0.9783354,-30.48483,3.383033,-19.69818,1011.475
15.801141262,1.667303,-1.935415,0.9411715,0.1662077,0.08591293,0.959394,-30.48483,3.383033,-19.69818,1011.475
15.820957661,1.054968,-2.540542,1.552796,0.1559582,0.0926782,0.9599674,-30.48483,3.383033,-19.69818,1011.478
15.840775013,-2.251639,-3.085156,1.185821,0.1956793,0.129926,0.9744217,-30.84387,2.64566,-19.68383,1011.478
15.860591412,0.07523298,-2.540542,-2.667413,0.2198826,0.1285044,0.9385638,-30.84387,2.64566,-19.68383,1011.477
15.880407810,6.627214,-3.750796,-2.300439,0.1218902,0.1037282,0.9713123,-30.85537,3.379051,-19.69679,1011.477
15.900225162,2.095937,-3.448232,0.1460596,0.2184271,0.06626871,0.9797624,-30.85537,3.379051,-19.69679,1011.473
15.920041561,-0.4146348,-2.05644,1.919771,0.2910472,0.04035684,0.9821279,-30.85537,3.379051,-19.69679,1011.473
15.939857960,2.708272,0.2430426,2.65372,0.2542348,0.115213,1.006848,-31.22508,3.383487,-19.25205,1011.476
15.959674358,2.585805,3.450216,1.002334,0.2803709,0.1489913,1.02522,-31.22508,3.383487,-19.25205,1011.476
15.979491711,1.973471,6.838927,-2.116951,0.3407056,0.1380807,1.01518,-30.47908,3.016338,-19.6917,1011.478
15.999308109,-0.965736,10.34866,-3.156713,0.2676539,0.05877782,0.9982789,-30.47908,3.016338,-19.6917,1011.478
16.021601677,12.81179,4.781495,-1.321839,-0.2080117,0.2543705,0.7460678,-30.47908,3.016338,-19.6917,1011.479
16.041418552,4.239109,-0.5436226,-0.03742781,0.2219458,0.1108554,1.086644,-30.84387,2.64566,-19.68383,1011.479
16.061235428,-1.333137,1.816373,-0.7102148,0.2411867,0.02916279,0.889669,-30.84387,2.64566,-19.68383,1011.48
16.081051826,4.239109,1.211246,-0.03742781,0.1788732,0.06692738,0.9341278,-31.21933,3.016792,-19.24557,1011.48
16.100868702,5.708712,1.634835,-0.1597527,0.1948321,0.1148556,0.9864159,-31.21933,3.016792,-19.24557,1011.476
16.120685577,3.259373,1.09022,-0.7102148,0.2154929,0.1186952,0.9187475,-31.21933,3.016792,-19.24557,1011.476
16.140501976,4.116642,0.0009917939,-0.5878899,0.2078693,0.136367,0.9941778,-30.85537,3.379051,-19.69679,1011.477
16.160318375,3.01444,0.364068,-0.2820776,0.2294607,0.09555028,0.9832311,-30.85537,3.379051,-19.69679,1011.477
16.180135727,1.912237,-0.1805463,-0.2209152,0.2260913,0.05986999,0.9347985,-30.47979,3.009121,-20.07172,1011.479
16.199952126,1.361136,0.1825299,0.02373465,0.2208568,0.1241107,0.9317784,-30.47979,3.009121,-20.07172,1011.479
16.219768524,1.177435,0.364068,-0.465565,0.2225894,0.1081809,0.985747,-30.47979,3.009121,-20.07172,1011.48
16.239585877,2.585805,0.6061188,0.02373465,0.1046822,0.1313726,0.9623777,-31.20782,2.283401,-19.23261,1011.48
16.259402275,-3.721242,-0.1805463,-0.9548646,0.1725743,0.1250871,1.036789,-31.20782,2.283401,-19.23261,1011.477
16.281696320,2.157171,-0.1805463,-0.4044026,0.1352798,0.1256353,0.9404601,-30.84528,2.631226,-20.44386,1011.477
16.301512718,4.300342,0.0009917939,-0.03742781,0.1901997,0.2784225,1.180835,-30.84528,2.631226,-20.44386,1011.477
16.321329594,-1.516837,-0.05952091,-1.138352,0.1786392,0.1308024,0.9706581,-30.84528,2.631226,-20.44386,1011.477
16.341145992,0.9325016,-0.4831098,-0.465565,0.1847565,0.05232523,0.9238844,-30.46911,2.267311,-20.50211,1011.478
16.360962868,7.055848,0.2430426,-0.1597527,0.1245731,0.1377964,0.9584403,-30.46911,2.267311,-20.50211,1011.478
16.380779266,3.19814,0.0615045,-0.3432401,0.183664,0.1128547,0.9883974,-30.46828,2.275731,-20.05876,1011.477
16.400596142,2.708272,-0.05952091,-0.2820776,0.1586228,0.1394439,0.9626065,-30.46828,2.275731,-20.05876,1011.477
16.420412541,3.259373,-0.3015717,-0.3432401,0.1592184,0.1722789,1.048689,-30.46828,2.275731,-20.05876,1011.472
16.440229416,1.851004,-0.4225971,-0.2209152,0.163003,0.1365356,0.9587061,-30.1595,2.27905,-20.05991,1011.472
16.460046291,1.973471,0.1825299,-0.09859026,0.1616149,0.1297346,0.9683324,-30.1595,2.27905,-20.05991,1011.474
16.479862690,3.259373,0.1825299,0.207222,0.2093048,0.1358688,0.9864447,-30.1595,2.27905,-20.05991,1011.474
16.499679566,2.402105,-0.3015717,0.2683845,0.1602053,0.1400286,0.9997671,-30.83307,1.905053,-20.05089,1011.477
16.519496441,0.7488011,-0.3015717,-0.2820776,0.1937873,0.1118657,0.9603416,-30.83307,1.905053,-20.05089,1011.477
16.539312839,1.177435,-0.1805463,-0.2820776,0.1951342,0.1098377,0.9241229,-30.47404,2.642426,-20.06524,1011.476
16.561606884,3.19814,0.0009917939,0.1460596,0.1684751,0.1405618,1.001173,-30.47404,2.642426,-20.06524,1011.476
16.581423283,3.320607,-0.7251607,0.207222,0.1747098,0.13271,0.9624838,-31.21511,2.63446,-20.06246,1011.477
16.601240158,2.402105,-0.6041352,-0.1597527,0.190738,0.137667,0.9643523,-31.21511,2.63446,-20.06246,1011.477
16.621057033,2.953206,-0.846186,0.1460596,0.183539,0.1225428,0.9676928,-31.21511,2.63446,-20.06246,1011.479
16.640873432,5.157611,-0.9066988,0.5741968,0.1976109,0.1294374,0.9695818,-30.46758,2.282948,-19.67874,1011.479
16.660690308,6.19858,-1.330288,-0.3432401,0.1797846,0.2083165,1.006285,-30.46758,2.282948,-19.67874,1011.477
16.680507183,0.07523298,-1.814389,-0.1597527,0.1701554,0.1814478,0.9907544,-30.46758,2.282948,-19.67874,1011.477
16.700323582,-1.700538,-1.209262,-0.7713773,0.1975851,0.1543514,1.003015,-30.47333,2.649642,-19.68522,1011.482
16.720140457,1.728537,-0.4225971,-0.03742781,0.1884089,0.1284392,0.9792807,-30.47333,2.649642,-19.68522,1011.482
16.739956856,2.279638,-0.4831098,-0.2820776,0.1771294,0.1307585,0.9557031,-30.47979,3.009121,-20.07172,1011.482
16.759774208,1.361136,-1.3908,-0.1597527,0.164891,0.1438378,0.9539066,-30.47979,3.009121,-20.07172,1011.482
16.779590607,0.6875677,-2.72208,0.08489711,0.1697342,0.1506929,0.9592246,-30.47979,3.009121,-20.07172,1011.484
16.799407005,0.8712681,-2.72208,0.02373465,0.2057439,0.1508943,0.9653034,-31.21511,2.63446,-20.06246,1011.484
16.819224358,-0.1697009,-1.330288,-0.1597527,0.2311908,0.1398939,0.993103,-31.21511,2.63446,-20.06246,1011.481
16.841517925,-0.5983351,1.029708,-0.09859026,0.1825099,0.1493854,0.9953489,-30.83729,2.287385,-19.234,1011.481
16.861334801,-1.761771,0.0009917939,0.02373465,0.1585911,0.1418656,0.9573097,-30.83729,2.287385,-19.234,1011.482
16.881151199,-2.374106,0.1220172,-0.1597527,0.2063186,0.143627,0.9792607,-30.83729,2.287385,-19.234,1011.482
16.900968075,-2.435339,0.6061188,0.02373465,0.1795261,0.1331905,0.9494277,-30.46758,2.282948,-19.67874,1011.481
16.920784473,-2.374106,0.1825299,-0.09859026,0.1878102,0.1361782,0.9590511,-30.46758,2.282948,-19.67874,1011.481
16.940601349,-2.680273,0.4245807,0.2683845,0.1946092,0.1523394,0.9827482,-30.83812,2.278965,-19.67735,1011.483
16.960418224,-3.598775,0.3035553,-0.03742781,0.1922494,0.1333122,0.9725272,-30.83812,2.278965,-19.67735,1011.483
16.980234623,-2.435339,0.4245807,-0.03742781,0.1971256,0.1230803,0.9594156,-30.83812,2.278965,-19.67735,1011.484
17.000051022,-3.047674,0.9086823,0.08489711,0.2067971,0.1309132,0.9560242,-30.82661,1.545574,-19.66439,1011.484
17.019868374,-4.02741,1.453297,-0.2209152,0.2254266,0.1164491,0.9756377,-30.82661,1.545574,-19.66439,1011.481
17.039684773,-3.353841,3.692266,0.02373465,0.2916961,0.1320384,1.038103,-30.46758,2.282948,-19.67874,1011.481
17.059501171,0.3201669,6.596876,0.2683845,0.2806416,0.1639947,0.9866812,-30.46758,2.282948,-19.67874,1011.481
17.079318523,-2.129172,5.326109,-0.465565,0.03590929,0.1437289,0.7822959,-30.46758,2.282948,-19.67874,1011.481
17.101612091,-0.965736,-0.1805463,0.02373465,0.2269189,0.1502127,1.040964,-30.16455,2.652962,-19.68637,1011.48
17.121428967,-0.965736,1.332271,0.08489711,0.1889558,0.116752,0.9777696,-30.16455,2.652962,-19.68637,1011.48
17.141245365,-0.6595686,0.1825299,-0.2209152,0.1920449,0.08706822,0.9790483,-31.21358,2.650096,-19.23909,1011.48
17.161062241,1.973471,0.4850934,-0.03742781,0.1757857,0.128389,0.9856244,-31.21358,2.650096,-19.23909,1011.48
17.180878639,3.38184,0.1825299,0.02373465,0.2019617,0.1338412,0.969098,-31.21358,2.650096,-19.23909,1011.475
17.200695992,4.667743,0.4245807,-0.1597527,0.2080334,0.1076408,0.9949948,-30.47908,3.016338,-19.6917,1011.475
17.220512390,5.463778,0.1220172,-0.09859026,0.199105,0.1011155,0.9332273,-30.47908,3.016338,-19.6917,1011.475
17.240328789,7.117082,0.0615045,0.08489711,0.1918739,0.1299668,0.9995421,-30.45678,1.54234,-20.0458,1011.475
17.260146141,6.19858,-0.1805463,0.02373465,0.2132376,0.1080534,0.9529754,-30.45678,1.54234,-20.0458,1011.474
17.279962540,7.178315,0.0009917939,-0.09859026,0.2062899,0.1602281,0.9981706,-30.45678,1.54234,-20.0458,1011.474
17.299778938,7.239549,-0.1200336,-0.1597527,0.2159688,0.149978,0.9671734,-31.20936,2.267765,-20.05598,1011.477
17.319596291,5.525012,-0.1805463,-0.09859026,0.2153776,0.1528338,0.9411267,-31.20936,2.267765,-20.05598,1011.477
17.339412689,5.463778,-0.05952091,-0.03742781,0.2314473,0.1553761,0.9511881,-30.46758,2.282948,-19.67874,1011.473
17.361706257,3.320607,-0.1200336,-0.2209152,0.1998929,0.1664973,0.9866534,-30.46758,2.282948,-19.67874,1011.473
17.381523132,2.953206,-0.5436226,0.08489711,0.2092899,0.2024886,0.949138,-30.46758,2.282948,-19.67874,1011.476
17.401340008,0.07523298,-0.3015717,-0.1597527,0.2172484,0.1405688,0.8990605,-30.15375,1.912354,-20.05343,1011.476
17.421156407,1.054968,0.0615045,-0.4044026,0.1191487,0.1787805,1.004052,-30.15375,1.912354,-20.05343,1011.477
17.440973759,-3.966176,0.4850934,-0.8325397,0.1440467,0.07030345,0.995636,-30.83236,1.91227,-19.67087,1011.477
17.460790157,-4.700978,-0.1200336,-1.016027,0.170148,0.04280401,1.04555,-30.83236,1.91227,-19.67087,1011.473
17.480606556,-3.415075,-0.5436226,-0.03742781,0.158173,0.1340899,0.9645122,-30.83236,1.91227,-19.67087,1011.473
17.500423908,0.6263342,-0.1200336,0.3295469,0.2004705,0.208263,0.9395623,-30.83882,2.271748,-20.05737,1011.474
17.520240307,-1.088203,-0.05952091,-0.1597527,0.2077288,0.2047087,1.065483,-30.83882,2.271748,-20.05737,1011.474
17.540056705,-2.98644,0.1825299,-0.2820776,0.1641008,0.1356524,0.9939312,-30.1595,2.27905,-20.05991,1011.47
17.559874058,-1.823005,0.1825299,-0.1597527,0.2073337,0.1260629,0.9627538,-30.1595,2.27905,-20.05991,1011.47
17.579690456,-0.6595686,-0.05952091,-0.2820776,0.188961,0.1765419,0.9351183,-30.1595,2.27905,-20.05991,1011.471
17.599507332,-1.700538,-0.1200336,-0.09859026,0.1800359,0.1684086,1.014285,-31.21511,2.63446,-20.06246,1011.471
17.619324207,-2.557806,0.1825299,-0.3432401,0.1917796,0.146521,0.9991449,-31.21511,2.63446,-20.06246,1011.472
17.641617775,-3.047674,0.2430426,-0.03742781,0.1944153,0.1619783,0.9417711,-30.45678,1.54234,-20.0458,1011.472
17.661434174,-4.639744,0.3035553,0.02373465,0.1920802,0.1473685,0.946053,-30.45678,1.54234,-20.0458,1011.468
17.681251526,-4.884678,0.1220172,0.02373465,0.1801148,0.145488,0.9996861,-30.45678,1.54234,-20.0458,1011.468
17.701067924,-4.639744,-0.1200336,0.207222,0.1766442,0.1317345,0.9576414,-30.83882,2.271748,-20.05737,1011.471
17.720884323,-4.456044,-0.1805463,0.02373465,0.184992,0.1259682,0.9715638,-30.83882,2.271748,-20.05737,1011.471
17.740701675,-3.904943,0.0615045,-0.09859026,0.1883898,0.130381,0.9768773,-30.4725,2.658062,-19.24187,1011.472
17.760518074,-3.598775,-0.1805463,-0.1597527,0.1820512,0.1303366,0.972085,-30.4725,2.658062,-19.24187,1011.472
17.780334949,-3.353841,0.0009917939,-0.2820776,0.1825194,0.1288596,0.9643521,-30.4725,2.658062,-19.24187,1011.468
17.800151825,-2.557806,-0.7856733,-0.2820776,0.1665104,0.1234274,0.9673078,-31.20936,2.267765,-20.05598,1011.468
17.819968224,-1.455604,-0.5436226,-0.1597527,0.2028458,0.1626263,0.9904788,-31.20936,2.267765,-20.05598,1011.469
17.839785099,-1.149436,-0.3015717,-0.03742781,0.203611,0.102208,0.9727879,-31.20936,2.267765,-20.05598,1011.469
17.859601974,-1.02697,-0.3015717,-0.2820776,0.16506,0.1180484,0.9610134,-31.21511,2.63446,-20.06246,1011.467
17.879418373,-0.2309344,-1.511826,-0.03742781,0.1883693,0.1122781,0.9410663,-31.21511,2.63446,-20.06246,1011.467
17.899235249,-0.8432691,-1.3908,-0.2209152,0.1884111,0.127463,0.9783103,-30.83307,1.905053,-20.05089,1011.468
17.921529293,1.78977,-0.7251607,-0.3432401,0.1961548,0.1348095,0.979271,-30.83307,1.905053,-20.05089,1011.468
17.941345692,2.524572,-1.269775,-0.2209152,0.175745,0.1141826,0.950316,-30.83307,1.905053,-20.05089,1011.469
17.961162567,3.749241,-1.814389,0.02373465,0.2093319,0.1221998,0.9718939,-30.46828,2.275731,-20.05876,1011.469
17.980979443,4.422809,-0.3015717,-0.03742781,0.2473597,0.1302854,1.012272,-30.46828,2.275731,-20.05876,1011.469
18.000795841,4.912677,0.4245807,-0.2820776,0.1742381,0.1253849,0.9547259,-29.79401,2.656945,-19.68776,1011.469
18.020612717,5.280077,-0.1805463,-0.2209152,0.1829649,0.1390992,0.969229,-29.79401,2.656945,-19.68776,1011.466
18.040429592,5.831179,-0.1805463,0.02373465,0.1980581,0.1411449,0.9773624,-29.79401,2.656945,-19.68776,1011.466
18.060246468,5.647479,0.0615045,-0.2820776,0.1780711,0.1395411,0.9610525,-30.46758,2.282948,-19.67874,1011.469
18.080062866,5.708712,-0.4225971,-0.09859026,0.1605343,0.1413853,0.9558485,-30.46758,2.282948,-19.67874,1011.469
18.099879265,5.708712,-1.632851,0.08489711,0.1741128,0.1463168,0.9524207,-30.83741,2.286181,-19.29733,1011.469
18.119696617,4.545276,-1.814389,0.3907094,0.2018413,0.1562432,0.9706617,-30.83741,2.286181,-19.29733,1011.469
18.139513016,3.259373,-1.451313,-0.09859026,0.2101673,0.1514391,0.9797623,-30.83741,2.286181,-19.29733,1011.468
18.159330368,3.504307,-0.846186,-0.09859026,0.232044,0.1559464,0.9844925,-30.47262,2.656859,-19.3052,1011.468
18.181623936,3.075673,0.364068,-0.03742781,0.1993687,0.1591346,0.9634498,-30.47262,2.656859,-19.3052,1011.468
18.201440334,1.728537,0.1220172,-0.09859026,0.1979119,0.1610842,0.9673293,-30.46183,1.916252,-19.67226,1011.468
18.221257210,0.7488011,0.0009917939,-0.1597527,0.1847602,0.1570903,0.9548312,-30.46183,1.916252,-19.67226,1011.469
18.241074085,-0.2921678,-0.4831098,0.02373465,0.1891498,0.1595664,0.9625427,-30.46183,1.916252,-19.67226,1011.469
18.260890484,-1.21067,-0.3620844,-0.1597527,0.2179159,0.1602557,0.984592,-30.45607,1.549557,-19.66578,1011.464
18.280707836,-1.823005,0.6666315,-0.09859026,0.1891629,0.1581091,0.9639832,-30.45607,1.549557,-19.66578,1011.464
18.300524235,-2.741507,-0.1200336,-0.03742781,0.1945239,0.1537451,0.96007,-31.20865,2.274982,-19.67596,1011.466
18.320340633,-3.476308,-0.1200336,-0.1597527,0.1862782,0.1542068,0.9673576,-31.20865,2.274982,-19.67596,1011.466
18.340157986,-3.537542,-0.3015717,0.02373465,0.1970271,0.1503867,0.9754847,-31.20865,2.274982,-19.67596,1011.469
18.359974384,-3.904943,0.2430426,0.1460596,0.194138,0.1440369,0.9735373,-30.15375,1.912354,-20.05343,1011.469
18.379791260,-4.762211,0.0009917939,-0.1597527,0.1874834,0.09766885,0.9424441,-30.15375,1.912354,-20.05343,1011.465
18.399608135,-3.660008,-0.6646479,-0.2209152,0.176119,0.1321931,0.9470277,-30.46687,2.290164,-19.29872,1011.465
18.419424534,-4.21111,-2.177466,-0.5878899,0.160942,0.1530646,0.9520448,-30.46687,2.290164,-19.29872,1011.466
18.439241409,-7.02785,-2.903618,-0.6490523,0.1804596,0.1463671,0.9596264,-30.46687,2.290164,-19.29872,1011.466
18.461535454,-4.149877,-1.3908,-0.03742781,0.2494255,0.1108266,1.01554,-31.21441,2.641677,-19.68244,1011.463
18.481351853,-4.700978,0.6061188,-0.03742781,0.2209098,0.1549474,0.9980634,-31.21441,2.641677,-19.68244,1011.463
18.501169205,-6.231814,0.4245807,-0.6490523,0.1961356,0.1308848,0.9671839,-30.47837,3.023554,-19.31168,1011.462
18.520985603,-4.517277,-0.1200336,-0.09859026,0.1997227,0.0797015,0.9364927,-30.47837,3.023554,-19.31168,1011.462
18.540802479,-4.333577,-0.3015717,-0.03742781,0.2107986,0.1246572,0.9781733,-30.47837,3.023554,-19.31168,1011.458
18.560618877,-4.088643,0.3035553,-0.1597527,0.1980685,0.1401745,0.9788054,-30.84316,2.652876,-19.30381,1011.458
18.580435753,-3.660008,-0.1805463,0.02373465,0.1936755,0.1318296,0.9604447,-30.84316,2.652876,-19.30381,1011.459
18.600252628,-3.476308,-0.241059,-0.2820776,0.1888946,0.1206193,0.9662055,-30.83741,2.286181,-19.29733,1011.459
18.620069027,-2.496573,-0.7856733,-0.5878899,0.1815287,0.1244418,0.9517851,-30.83741,2.286181,-19.29733,1011.456
18.639886379,-0.04723396,-1.874902,-0.2820776,0.1751412,0.1160516,0.9189548,-30.83741,2.286181,-19.29733,1011.456
18.659702778,-0.2921678,-2.843105,0.207222,0.2171033,0.1207664,0.9665346,-30.84387,2.64566,-19.68383,1011.456
18.679519176,-5.129612,-2.237978,1.430471,0.1953026,0.113869,0.9801334,-30.84387,2.64566,-19.68383,1011.456
18.699336529,-22.94855,-7.442071,-1.016027,0.05320071,0.1738311,0.9107482,-30.47333,2.649642,-19.68522,1011.459
18.721630096,-2.80274,-3.206182,0.6965217,0.3265555,0.128542,1.128638,-30.47333,2.649642,-19.68522,1011.459
18.741446495,0.6263342,3.026627,-0.9548646,0.3253382,0.06564271,1.095982,-30.47333,2.649642,-19.68522,1011.461
18.761263847,7.851883,9.804049,0.1460596,0.3396081,0.008636555,1.050722,-30.84738,3.035209,-18.48692,1011.461
18.781080246,6.688447,12.82968,0.4518718,0.1165599,0.2280317,1.039072,-30.84738,3.035209,-18.48692,1011.46
18.800897598,6.810915,10.71174,-0.9548646,0.1862597,0.1928145,1.025477,-31.21358,2.650096,-19.23909,1011.46
18.820713997,8.464218,10.40918,-1.811139,0.2471932,0.1379883,0.9761118,-31.21358,2.650096,-19.23909,1011.46
18.840530395,26.83426,6.838927,-0.9548646,0.04928515,0.1517939,0.8672155,-31.21358,2.650096,-19.23909,1011.46
18.860347748,7.178315,-0.1805463,0.5130343,0.229465,0.02417807,0.8670217,-30.83882,2.271748,-20.05737,1011.461
18.880164146,10.72986,0.2430426,-0.03742781,0.201111,0.1026355,0.9534967,-30.83882,2.271748,-20.05737,1011.461
18.899981022,9.933822,-0.241059,0.08489711,0.2073293,0.1294819,0.9671155,-30.46758,2.282948,-19.67874,1011.463
18.919797897,10.30122,0.4245807,-0.1597527,0.2123115,0.1085705,0.9674635,-30.46758,2.282948,-19.67874,1011.463
18.939614773,11.03602,0.3035553,-0.3432401,0.2189226,0.1309527,0.9463044,-30.46758,2.282948,-19.67874,1011.46
18.959431171,8.341751,-0.05952091,-0.2209152,0.1932261,0.07304501,1.017101,-30.83812,2.278965,-19.67735,1011.46
18.979247570,12.13823,0.1220172,0.7576842,0.2125899,0.1304237,0.9424749,-30.83812,2.278965,-19.67735,1011.462
19.001541615,9.750121,0.0615045,-0.7102148,0.154457,0.2231693,1.162405,-30.15879,2.286267,-19.6799,1011.462
19.021358490,7.545716,0.1220172,-0.4044026,0.1975702,0.180251,1.041279,-30.15879,2.286267,-19.6799,1011.463
19.041175365,10.11752,-0.05952091,-0.03742781,0.2330382,0.1315231,0.9505742,-30.15879,2.286267,-19.6799,1011.463
19.060992241,10.30122,0.0615045,0.2683845,0.1879172,0.1745306,0.9109797,-30.46183,1.916252,-19.67226,1011.464
19.080808640,3.688008,-0.1805463,0.207222,0.200078,0.1216533,0.9671149,-30.46183,1.916252,-19.67226,1011.464
19.100625992,5.953646,0.2430426,-0.2209152,0.1837412,0.1609631,0.9476165,-30.46183,1.916252,-19.67226,1011.462
19.120442390,6.19858,0.6666315,-0.1597527,0.2011988,0.1615067,0.933526,-30.14729,1.552876,-19.66693,1011.462
19.140258789,2.891973,-0.1200336,0.2683845,0.2127934,0.1483123,0.8889884,-30.14729,1.552876,-19.66693,1011.463
19.160076141,2.095937,0.0615045,0.5130343,0.1420708,0.2185436,1.088117,-30.45761,1.53392,-20.48915,1011.463
19.179892540,4.422809,0.1825299,0.2683845,0.2456121,0.1996352,0.8992086,-30.45761,1.53392,-20.48915,1011.465
19.199709892,0.5651007,-0.241059,-0.03742781,0.2509862,0.08367386,0.8580386,-30.45761,1.53392,-20.48915,1011.465
19.219526291,6.076113,0.0009917939,0.5130343,0.1906098,0.1879292,1.0095,-30.15458,1.903934,-20.49679,1011.468
19.239343166,4.116642,0.364068,0.5130343,0.1303809,0.2244806,0.9501656,-30.15458,1.903934,-20.49679,1011.468
19.261637211,3.38184,0.3035553,0.08489711,0.1306832,0.1978087,0.9949159,-30.14883,1.537239,-20.49031,1011.464
19.281453610,2.034704,0.1220172,0.08489711,0.09484197,0.2105821,0.9169838,-30.14883,1.537239,-20.49031,1011.464
19.301270962,3.504307,-0.1805463,-0.03742781,0.1347059,0.2958414,1.052353,-30.14883,1.537239,-20.49031,1011.467
19.321087360,7.729416,0.0009917939,0.5130343,0.1843268,0.2589548,0.9954191,-30.15458,1.903934,-20.49679,1011.467
19.340903759,-0.1697009,0.0009917939,-0.1597527,0.2239287,0.218243,0.9892011,-30.15458,1.903934,-20.49679,1011.468
19.360720635,-3.047674,0.1825299,-0.3432401,0.1733154,0.2145341,0.9735307,-30.82661,1.545574,-19.66439,1011.468
19.380537510,-4.02741,0.4245807,-0.2209152,0.181153,0.2151034,0.990867,-30.82661,1.545574,-19.66439,1011.464
19.400354385,-5.068378,-0.1200336,-0.2209152,0.1912966,0.1857744,0.9221206,-30.82661,1.545574,-19.66439,1011.464
19.420170784,-6.537982,0.3035553,0.02373465,0.1927897,0.2043836,0.962753,-30.45103,1.175644,-20.03932,1011.465
19.439988136,-8.068818,-0.1200336,-0.3432401,0.1763199,0.1926118,0.9627827,-30.45103,1.175644,-20.03932,1011.465
19.459804535,-8.497453,0.1220172,0.02373465,0.1774034,0.1863407,0.9849477,-30.15375,1.912354,-20.05343,1011.461
19.479621887,-8.558686,0.2430426,-0.09859026,0.1793851,0.1648663,0.96021,-30.15375,1.912354,-20.05343,1011.461
19.499438286,-9.232254,-0.1805463,-0.2820776,0.1861785,0.1746682,0.9718074,-30.15375,1.912354,-20.05343,1011.462
19.519254684,-9.722122,-0.1805463,-0.3432401,0.165751,0.1701614,0.9641733,-30.82086,1.178879,-19.65791,1011.462
19.541549206,-9.844589,-2.237978,-0.1597527,0.1515641,0.154385,0.9139713,-30.82086,1.178879,-19.65791,1011.459
19.561365604,-10.39569,-4.840024,-0.03742781,0.109754,0.1580897,0.9248381,-30.47404,2.642426,-20.06524,1011.459
19.581182003,-8.068818,-9.499503,0.5741968,0.1137445,0.143515,0.9300509,-30.47404,2.642426,-20.06524,1011.459
19.600999355,-10.57939,-9.681041,0.8800091,0.2141462,0.1700994,1.03631,-30.47404,2.642426,-20.06524,1011.459
19.620815754,-6.231814,-5.566177,0.2683845,0.3355677,0.1137607,1.037287,-30.82732,1.538357,-20.04441,1011.462
19.640632629,-9.232254,-1.14875,0.8188466,0.2173891,0.1563133,0.9662329,-30.82732,1.538357,-20.04441,1011.462
19.660449505,-5.61948,-0.6041352,0.4518718,0.2159608,0.158772,0.9792857,-30.82732,1.538357,-20.04441,1011.459
19.680266380,-6.905383,-1.027724,0.5130343,0.1804628,0.1419695,0.953329,-30.82732,1.538357,-20.04441,1011.459
19.700082779,-12.17146,-2.116953,0.7576842,0.1654244,0.1130751,0.917062,-30.82732,1.538357,-20.04441,1011.459
19.719900131,-14.49833,-6.050279,0.3907094,0.1709404,0.1690969,0.9153889,-30.46183,1.916252,-19.67226,1011.459
19.739716530,-1.700538,-4.658486,2.042096,0.2076109,0.1757809,0.9832802,-30.46183,1.916252,-19.67226,1011.462
19.759532928,-11.92653,-4.658486,1.858608,0.1947351,0.0986535,0.9313079,-30.83741,2.286181,-19.29733,1011.462
19.779350281,-6.905383,-4.840024,1.246984,0.2169422,0.04913209,0.9439643,-30.83741,2.286181,-19.29733,1011.46
19.801643848,-1.088203,-4.900537,1.308146,0.1526548,0.1530077,0.9462978,-30.83741,2.286181,-19.29733,1011.46
19.821461201,-0.6595686,-5.868741,1.369309,0.1640124,0.1082123,0.9228369,-31.2137,2.648893,-19.30243,1011.464
19.841277599,10.30122,-10.83078,1.124659,0.2238975,0.1157014,0.6686589,-31.2137,2.648893,-19.30243,1011.464
19.861093998,-34.64414,-14.15898,-1.260677,0.1752582,0.3352938,1.171556,-30.47262,2.656859,-19.3052,1011.465
19.880911350,39.81575,-15.97436,0.3295469,0.2193282,0.1510851,0.8131863,-30.47262,2.656859,-19.3052,1011.465
19.900727749,3.994175,-12.3436,-1.566489,0.3391576,-0.01187304,1.027451,-30.47262,2.656859,-19.3052,1011.467
19.920544624,5.525012,-5.021563,2.347908,0.2776977,0.1467068,1.09328,-30.84808,3.027992,-18.86694,1011.467
19.940361500,5.831179,2.360987,3.326507,0.261707,0.166364,1.000312,-30.84808,3.027992,-18.86694,1011.468
19.960178375,3.932941,3.268678,0.5130343,0.2070109,0.1766749,0.9514313,-31.21791,3.031226,-18.48553,1011.468
19.979994774,3.19814,1.271759,-1.07719,0.2230885,0.1254469,0.8752996,-31.21791,3.031226,-18.48553,1011.466
19.999812126,2.095937,-0.846186,-0.6490523,0.1811356,0.1142396,0.9623538,-31.21791,3.031226,-18.48553,1011.466
20.019628525,3.749241,-0.241059,0.207222,0.2343255,0.1214867,1.026296,-31.5942,3.393938,-18.49062,1011.469
20.039445877,5.096377,2.239962,0.4518718,0.2418965,0.1340874,0.9852918,-31.5942,3.393938,-18.49062,1011.469
20.059262276,4.116642,3.510728,-0.2820776,0.2644418,0.1201504,1.013092,-31.5942,3.393938,-18.49062,1011.471
20.081555843,4.728976,4.963033,-0.6490523,0.2707724,0.0928122,0.9704413,-30.83587,2.301818,-18.47396,1011.471
20.101373196,7.300782,6.294313,-1.260677,0.261211,0.1433776,0.9596517,-30.83587,2.301818,-18.47396,1011.472
20.121189594,7.97435,7.202003,-1.933464,0.299097,0.1665168,0.9832144,-31.57695,2.293852,-18.47118,1011.472
20.141006947,1.299902,9.743537,-2.667413,0.2655931,0.1595367,0.987706,-31.57695,2.293852,-18.47118,1011.468
20.160823345,-2.496573,12.16405,0.5741968,0.2759984,0.07891927,1.053845,-31.58424,2.64491,-19.30104,1011.468
20.180639744,9.38272,15.85532,2.65372,0.2511089,0.2124787,0.9634407,-31.58424,2.64491,-19.30104,1011.469
20.200456619,9.688888,17.36814,-3.217876,0.3874961,0.2946336,1.017176,-31.58424,2.64491,-19.30104,1011.469
20.220273495,-5.986881,20.33326,-2.850901,0.193832,0.003857005,0.795676,-31.58998,3.011606,-19.30752,1011.468
20.240090370,1.238669,15.18968,-4.746937,0.1031624,0.2326619,0.9686983,-31.58998,3.011606,-19.30752,1011.468
20.259906769,6.38228,13.01122,2.592558,0.1219372,0.08058361,0.6617964,-31.58998,3.011606,-19.30752,1011.465
20.279724121,-10.76309,3.268678,-2.912063,-0.04439283,0.04290974,0.7431206,-30.46828,2.275731,-20.05876,1011.465
20.299540520,-6.599215,-2.540542,-0.09859026,0.172314,0.1949536,0.9328906,-30.46828,2.275731,-20.05876,1011.467
20.319357872,-2.557806,-0.7856733,-0.4044026,0.2819152,0.0809628,1.080853,-30.47404,2.642426,-20.06524,1011.467
20.341651440,-4.02741,2.239962,-0.09859026,0.1833705,0.1126449,0.9019986,-30.47404,2.642426,-20.06524,1011.47
20.361467838,-2.98644,-0.4225971,-0.3432401,0.1634375,0.1413898,0.9514886,-30.47404,2.642426,-20.06524,1011.47
20.381285191,0.1364664,0.364068,-0.2820776,0.1835093,0.1469652,0.9991924,-30.84457,2.638443,-20.06385,1011.465
20.401101589,-0.1084674,0.7876569,-0.1597527,0.1883669,0.1303646,0.9701199,-30.84457,2.638443,-20.06385,1011.465
20.420918942,0.2589334,2.239962,0.02373465,0.2176101,0.1330053,0.9926592,-30.46911,2.267311,-20.50211,1011.469
20.440735340,-0.04723396,2.360987,-0.09859026,0.164916,0.1355449,0.947589,-30.46911,2.267311,-20.50211,1011.469
20.460552216,-0.5371017,1.211246,0.08489711,0.1868232,0.1351853,0.9532593,-30.46911,2.267311,-20.50211,1011.469
20.480369091,0.6875677,0.7876569,0.3295469,0.1994615,0.1499124,0.975469,-29.80047,3.016423,-20.07426,1011.469
20.500185967,1.116202,0.7271442,0.207222,0.1780067,0.1492725,0.9582068,-29.80047,3.016423,-20.07426,1011.47
20.520002365,2.034704,0.9691951,0.3907094,0.1888357,0.1293769,0.9633547,-30.48061,3.000701,-20.51507,1011.47
20.539819717,1.299902,0.3035553,0.1460596,0.1960446,0.1503747,0.9725941,-30.48061,3.000701,-20.51507,1011.469
20.559636116,0.7488011,0.1825299,-0.2209152,0.1844911,0.1362216,0.9841688,-30.48061,3.000701,-20.51507,1011.469
20.579453468,1.116202,0.4850934,0.3907094,0.201442,0.1303927,0.9536374,-29.78321,1.916337,-20.05482,1011.465
20.599269867,0.8100346,0.364068,-0.2820776,0.1980594,0.1538565,0.9986655,-29.78321,1.916337,-20.05482,1011.465
20.621563435,0.1976999,0.0615045,-0.2209152,0.2023243,0.1503769,0.96001,-30.47979,3.009121,-20.07172,1011.464
20.641380787,-0.04723396,0.364068,-0.2820776,0.193645,0.1381632,0.9619256,-30.47979,3.009121,-20.07172,1011.464
20.661197185,-0.7820356,0.6061188,-0.2209152,0.2101821,0.1529162,0.9865274,-30.47979,3.009121,-20.07172,1011.468
20.681014061,-2.251639,0.4245807,-0.3432401,0.2082283,0.1367674,0.9574944,-30.82661,1.545574,-19.66439,1011.468
20.700830936,-2.925207,0.5456061,-0.03742781,0.2004297,0.14307,0.9628789,-30.82661,1.545574,-19.66439,1011.465
20.720647812,-3.966176,0.1825299,-0.09859026,0.2101586,0.1524106,0.978802,-30.15458,1.903934,-20.49679,1011.465
20.740464210,-4.945911,0.0009917939,-0.03742781,0.2086349,0.140135,0.9396504,-30.15458,1.903934,-20.49679,1011.465
20.760281563,-5.497013,0.0615045,-0.3432401,0.2032972,0.1650483,0.9842139,-30.15458,1.903934,-20.49679,1011.465
20.780097961,-5.741947,0.1220172,-0.7713773,0.1971571,0.1465687,1.007321,-30.47979,3.009121,-20.07172,1011.462
20.799915314,-6.354281,0.0615045,-0.2820776,0.2023989,0.1323419,0.9521941,-30.47979,3.009121,-20.07172,1011.462
20.819731712,-7.640184,-0.4831098,-0.8937021,0.2180038,0.11632,0.9380288,-30.48061,3.000701,-20.51507,1011.465
20.839548588,-7.946352,-0.6041352,-0.2209152,0.1540077,0.1127082,0.9914552,-30.48061,3.000701,-20.51507,1011.465
20.859365463,-6.599215,0.4850934,-0.09859026,0.1869775,0.1455619,1.015577,-30.48061,3.000701,-20.51507,1011.461
20.881659031,-6.782916,-0.05952091,-0.4044026,0.1829209,0.1204906,0.9256926,-30.85115,2.996718,-20.51368,1011.461
20.901476383,-8.313752,-0.241059,-0.1597527,0.1768138,0.1108343,0.9729789,-30.85115,2.996718,-20.51368,1011.462
20.921292782,-7.150316,0.5456061,-0.2820776,0.1613954,0.09765714,0.9937508,-30.85033,3.005138,-20.07033,1011.462
20.941109657,-7.762651,-0.05952091,-0.2820776,0.1784195,0.08992516,0.9815509,-30.85033,3.005138,-20.07033,1011.46
20.960926533,-6.782916,-0.6041352,-0.09859026,0.235221,0.08232689,0.9392079,-30.85033,3.005138,-20.07033,1011.46
20.980743408,-6.537982,0.0615045,-0.6490523,0.1780452,0.05431503,0.9557881,-30.47404,2.642426,-20.06524,1011.463
21.000559807,-5.129612,-0.05952091,-0.1597527,0.1831671,0.1020894,0.9675897,-30.47404,2.642426,-20.06524,1011.463
21.020377159,-4.088643,-0.4831098,0.02373465,0.1856437,0.1070228,0.9888394,-30.1595,2.27905,-20.05991,1011.459
21.040193558,-2.741507,-0.241059,-0.1597527,0.1905299,0.1070644,0.9955704,-30.1595,2.27905,-20.05991,1011.459
21.060010910,-2.680273,-0.4225971,-0.03742781,0.1948519,0.08895954,0.9495992,-30.1595,2.27905,-20.05991,1011.462
21.079827309,-2.129172,-0.9672114,0.1460596,0.1948253,0.09578468,0.9530132,-31.22661,3.367851,-20.07542,1011.462
21.099644184,-0.965736,-1.3908,0.2683845,0.1992222,0.113421,0.9878324,-31.22661,3.367851,-20.07542,1011.462
21.119460583,0.1364664,-1.269775,0.08489711,0.1806272,0.1352428,0.9904597,-30.48412,3.39025,-19.31816,1011.462
21.139277935,-2.312872,-0.7251607,-0.09859026,0.1759033,0.102074,0.9768003,-30.48412,3.39025,-19.31816,1011.459
21.161571503,-1.21067,-1.511826,-0.09859026,0.171873,0.1146646,0.9566145,-30.48412,3.39025,-19.31816,1011.459
21.181388378,-1.945472,-1.632851,-0.2820776,0.2113309,0.1246925,0.9916856,-30.48483,3.383033,-19.69818,1011.46
21.201205254,-2.741507,0.4245807,-0.5267274,0.2002663,0.1085884,1.000834,-30.48483,3.383033,-19.69818,1011.46
21.221021652,-1.823005,0.1220172,-0.4044026,0.1495697,0.123886,0.9920195,-30.48483,3.383033,-19.69818,1011.464
21.240839005,-0.04723396,1.634835,0.02373465,0.1592336,0.163979,1.039475,-30.48483,3.383033,-19.69818,1011.464
21.260655403,-2.312872,2.300474,-0.465565,0.1268015,0.1707632,1.095678,-30.48483,3.383033,-19.69818,1011.461
21.280472755,-3.843709,2.360987,-0.5878899,0.1426351,0.1398935,0.9815207,-30.47979,3.009121,-20.07172,1011.461
21.300289154,-3.292608,0.1220172,-0.1597527,0.2201199,0.06169843,0.898157,-30.47979,3.009121,-20.07172,1011.463
21.320106030,-1.21067,0.0615045,0.1460596,0.1774852,0.06305958,0.9485959,-30.85466,3.386267,-19.31677,1011.463
21.339922905,-1.578071,-0.5436226,-0.09859026,0.1857827,0.08805622,0.9983947,-30.85466,3.386267,-19.31677,1011.46
21.359739781,-2.129172,-0.846186,-0.2209152,0.1720142,0.09472184,0.9651995,-30.85466,3.386267,-19.31677,1011.46
21.379556179,-1.639304,-1.209262,-0.09859026,0.1826867,0.09426919,0.9564505,-30.18109,3.760264,-19.3258,1011.462
21.399373531,-2.435339,-1.027724,-0.3432401,0.206794,0.0672138,0.9928632,-30.18109,3.760264,-19.3258,1011.462
21.421667099,0.6263342,0.0615045,-0.09859026,0.2018452,0.08423802,0.9958738,-30.48483,3.383033,-19.69818,1011.463
21.441484451,1.60607,-0.05952091,-0.09859026,0.1884943,0.10259,0.9617711,-30.48483,3.383033,-19.69818,1011.463
21.461300850,1.60607,0.1825299,-0.3432401,0.1987547,0.09827693,0.9684502,-30.48483,3.383033,-19.69818,1011.462
21.481118202,1.60607,0.2430426,0.02373465,0.1764523,0.09087721,0.9767398,-30.17605,3.386353,-19.69934,1011.462
21.500934601,1.78977,-0.05952091,-0.2209152,0.1833079,0.0875239,0.9848906,-30.17605,3.386353,-19.69934,1011.462
21.520751476,2.769506,0.2430426,-0.03742781,0.1909904,0.09873766,0.9742872,-30.17605,3.386353,-19.69934,1011.462
21.540568352,3.19814,0.4245807,-0.2209152,0.1924902,0.08704144,0.9669787,-30.86041,3.752962,-19.32325,1011.461
21.560385227,3.504307,0.1220172,-0.2209152,0.1788937,0.08503029,0.9699389,-30.86041,3.752962,-19.32325,1011.461
21.580201626,3.38184,0.3035553,-0.4044026,0.1915313,0.09193495,0.9790761,-30.47979,3.009121,-20.07172,1011.46
21.600018978,3.259373,0.3035553,-0.3432401,0.1816644,0.1010729,0.9531124,-30.47979,3.009121,-20.07172,1011.46
21.619835377,3.075673,0.1220172,-0.03742781,0.2031471,0.1046659,0.9834219,-30.47979,3.009121,-20.07172,1011.456
21.639652729,2.769506,0.3035553,-0.09859026,0.1865993,0.1050603,0.9806185,-30.16959,3.026874,-19.31284,1011.456
