Time (s),Gyroscope X (deg/s),Gyroscope Y (deg/s),Gyroscope Z (deg/s),Accelerometer X (g),Accelerometer Y (g),Accelerometer Z (g),Magnetometer X (uT),Magnetometer Y (uT),Magnetometer Z (uT),Barometer (hPa)
0.000000000,0.1976999,0.1825299,0.08489711,-0.009185379,-0.007902336,1.000417,49.66882,-35.30334,-80.50124,1004.549
0.009907246,0.3201669,0.1825299,-0.09859026,-0.003834671,-0.008362747,0.9999028,50.34156,-34.93776,-80.95361,1004.549
0.029722214,0.1976999,0.0615045,-0.09859026,-0.01210442,-0.005962709,1.003339,50.34156,-34.93776,-80.95361,1004.549
0.049537182,0.07523298,0.2430426,-0.1597527,-0.005773431,-0.008368127,1.001844,50.34156,-34.93776,-80.95361,1004.548
0.069352627,0.1364664,0.1825299,-0.2209152,-0.005267471,-0.01128481,1.002792,50.34732,-35.30445,-80.94714,1004.548
0.089167595,0.1976999,0.1220172,-0.3432401,-0.004799685,-0.008851191,1.001354,50.34732,-35.30445,-80.94714,1004.549
0.108983040,0.07523298,0.1825299,-0.09859026,-0.004322086,-0.007877167,1.000391,50.71785,-35.30047,-80.94852,1004.549
0.128798008,0.1976999,0.3035553,-0.2209152,-0.002361458,-0.007367286,1.005692,50.71785,-35.30047,-80.94852,1004.551
0.148612976,0.2589334,0.1220172,-0.2209152,-0.006269043,-0.007888407,0.9999186,50.71785,-35.30047,-80.94852,1004.551
0.168428421,0.1976999,0.1220172,-0.1597527,-0.006269597,-0.008377675,0.9989507,50.34732,-35.30445,-80.94714,1004.55
0.188243389,0.1976999,0.1825299,-0.1597527,-0.004817144,-0.00690818,0.999433,50.34732,-35.30445,-80.94714,1004.55
0.208058357,0.1976999,0.0615045,-0.09859026,-0.004775092,-0.008833614,1.008594,50.34732,-35.30445,-80.94714,1004.553
0.230350494,0.1364664,0.0009917939,-0.09859026,-0.003356472,-0.003966192,1.00475,49.97749,-35.30122,-80.56573,1004.553
0.250165463,0.1364664,0.2430426,-0.2209152,-0.004336266,-0.005931813,0.9994354,49.97749,-35.30122,-80.56573,1004.55
0.269980431,0.1976999,0.1220172,-0.03742781,-0.006761353,-0.005939711,1.001379,50.72361,-35.66716,-80.94204,1004.55
0.289795876,0.1364664,-0.05952091,-0.3432401,-0.005781028,-0.004951454,1.00524,50.72361,-35.66716,-80.94204,1004.548
0.309610844,0.1364664,0.1825299,-0.03742781,-0.006298533,-0.006442867,0.9936513,50.72361,-35.66716,-80.94204,1004.548
0.329426289,0.1976999,0.1220172,-0.2209152,-0.00630396,-0.004002385,0.9960773,50.33582,-34.57106,-80.96009,1004.545
0.349241257,0.1976999,0.1825299,-0.2209152,-0.006270106,-0.005933678,1.002825,50.33582,-34.57106,-80.96009,1004.545
0.369056225,0.1976999,0.0615045,-0.2820776,-0.008214337,-0.006431842,1.00235,50.71715,-35.30769,-81.32854,1004.548
0.388871670,0.3201669,0.0615045,-0.03742781,-0.002412749,-0.00202635,0.9994449,50.71715,-35.30769,-81.32854,1004.548
0.408686638,0.1364664,0.0615045,-0.09859026,-0.005775047,-0.006902668,1.003782,50.71715,-35.30769,-81.32854,1004.547
0.428501606,0.1364664,0.0615045,-0.2820776,-0.006765718,-0.005453958,1.000899,50.34156,-34.93776,-80.95361,1004.547
0.448317051,0.1976999,0.0009917939,0.02373465,-0.004825873,-0.005936674,0.9984727,50.34156,-34.93776,-80.95361,1004.544
0.468132019,0.0139995,0.1220172,-0.2209152,-0.00917344,-0.0132714,0.9950801,50.34732,-35.30445,-80.94714,1004.544
0.490423679,0.1976999,0.0615045,-0.2209152,-0.003841761,-0.00739007,0.9994252,50.34732,-35.30445,-80.94714,1004.542
0.510239124,0.1976999,0.0009917939,-0.2209152,-0.0009532289,-0.002996164,0.9979839,50.34732,-35.30445,-80.94714,1004.542
0.530054093,0.1976999,0.0009917939,-0.09859026,-0.005776132,-0.006414571,1.004267,50.71128,-34.9422,-81.39835,1004.543
0.549869537,0.1364664,0.0615045,-0.2820776,-0.006287056,-0.006434665,0.99703,50.71128,-34.9422,-81.39835,1004.543
0.569684506,0.07523298,0.2430426,-0.2209152,-0.006287587,-0.0054573,0.9984832,50.34649,-35.31287,-81.39049,1004.542
0.589499474,0.1364664,0.1825299,-0.3432401,-0.01164705,-0.005492016,0.9956162,50.34649,-35.31287,-81.39049,1004.542
0.609314919,0.2589334,0.1825299,-0.2820776,-0.00823071,-0.004976927,0.9999443,50.34649,-35.31287,-81.39049,1004.542
0.629129887,0.2589334,0.0009917939,-0.1597527,-0.006752093,-0.007888581,1.000887,51.08839,-35.29649,-80.94991,1004.542
0.648944855,0.1976999,0.0615045,-0.1597527,-0.005290379,-0.008367954,1.000876,51.08839,-35.29649,-80.94991,1004.541
0.668760300,0.1364664,0.0615045,-0.2209152,-0.009193555,-0.006441563,1.000425,50.34732,-35.30445,-80.94714,1004.541
0.688575268,0.07523298,0.1220172,-0.2209152,-0.01018912,-0.003529737,0.9985144,50.34732,-35.30445,-80.94714,1004.542
0.708390236,0.2589334,0.1220172,-0.2209152,-0.005765832,-0.0117848,0.9984478,50.34732,-35.30445,-80.94714,1004.542
0.728205681,0.1364664,0.0009917939,-0.03742781,-0.007256945,-0.003993358,1.001875,50.71703,-35.30889,-81.39188,1004.541
0.748020649,0.1976999,0.2430426,-0.2209152,-0.001891502,-0.005909855,1.003284,50.71703,-35.30889,-81.39188,1004.541
0.770313263,0.1364664,0.2430426,-0.1597527,-0.007245536,-0.008385052,0.9979906,50.34156,-34.93776,-80.95361,1004.54
0.790127754,0.1976999,0.0615045,-0.2209152,-0.007719302,-0.008867464,1.000887,50.34156,-34.93776,-80.95361,1004.54
0.809943676,0.07523298,0.1220172,-0.03742781,-0.007747107,-0.004487486,0.9999442,50.34156,-34.93776,-80.95361,1004.539
0.829758644,0.1976999,0.2430426,-0.2820776,-0.006300127,-0.003510773,0.9980105,49.97678,-35.30844,-80.94575,1004.539
0.849573612,0.2589334,0.1220172,-0.2820776,-0.008168497,-0.01079893,1.008602,49.97678,-35.30844,-80.94575,1004.54
0.869389057,0.1976999,0.1220172,-0.3432401,-0.009187528,-0.005459512,1.003808,50.34227,-34.93054,-80.57359,1004.54
0.889204025,0.2589334,0.1220172,-0.2209152,-0.00628537,-0.003500227,1.002355,50.34227,-34.93054,-80.57359,1004.541
0.909018994,0.1976999,0.1220172,-0.2209152,-0.001903002,-0.00738469,0.9974839,50.34227,-34.93054,-80.57359,1004.541
0.928834439,0.07523298,0.1220172,-0.09859026,-0.00726348,-0.002531412,1.002365,50.71774,-35.30167,-81.01186,1004.54
0.948649407,0.5038673,0.0009917939,-0.2209152,-0.003352152,-0.007385209,1.000388,50.71774,-35.30167,-81.01186,1004.54
0.968464852,0.1364664,0.1220172,-0.2209152,-0.003364669,-0.003972051,1.002336,50.02692,-34.57558,-81.02228,1004.542
0.988279819,0.0139995,0.1220172,-0.2209152,-0.008238377,-0.005960151,0.9960778,50.02692,-34.57558,-81.02228,1004.542
1.008094788,0.1364664,0.1825299,-0.09859026,-0.006270106,-0.005933678,1.002825,50.02692,-34.57558,-81.02228,1004.541
1.030386925,0.1976999,0.0615045,0.02373465,-0.007254773,-0.00496955,1.000904,50.03267,-34.94228,-81.01579,1004.541
1.050201893,0.3814003,0.0009917939,-0.2820776,-0.002892565,-0.004957445,0.9965364,50.03267,-34.94228,-81.01579,1004.542
1.070016861,0.2589334,0.0615045,-0.09859026,-0.01063291,-0.009368318,1.001383,50.34145,-34.93896,-81.01695,1004.542
1.089832306,0.3201669,0.1220172,-0.3432401,-0.005797978,-0.00545244,0.9994458,50.34145,-34.93896,-81.01695,1004.543
1.109647274,0.1364664,0.0615045,-0.09859026,-0.008221495,-0.009859063,0.9946097,50.34145,-34.93896,-81.01695,1004.543
1.129462242,0.1364664,0.1220172,-0.03742781,-0.006755372,-0.007890924,0.9999213,50.35295,-35.67235,-81.00399,1004.538
1.149277687,0.2589334,0.1825299,-0.09859026,-0.00337617,-0.005446886,0.9965365,50.35295,-35.67235,-81.00399,1004.538
1.169092655,0.3201669,0.3035553,-0.2209152,-0.0077384,-0.006925625,0.9984835,50.03267,-34.94228,-81.01579,1004.538
1.188908100,0.2589334,0.1825299,-0.2209152,-0.0004227217,-0.008828538,1.00133,50.03267,-34.94228,-81.01579,1004.538
1.208723545,0.1364664,0.2430426,-0.1597527,-0.008228585,-0.008886386,0.9941321,50.03267,-34.94228,-81.01579,1004.539
1.228538990,0.2589334,0.1220172,-0.3432401,-0.007244404,-0.005939883,1.002347,50.71844,-35.29446,-80.63184,1004.539
1.248353958,0.2589334,0.1220172,-0.2209152,-0.006255372,-0.007389765,1.004748,50.71844,-35.29446,-80.63184,1004.542
1.268168926,0.2589334,0.2430426,-0.09859026,-0.002866355,-0.006405329,1.001838,50.03925,-35.30056,-80.56596,1004.542
1.287984371,0.1976999,0.1220172,-0.2209152,-0.001403579,-0.008839431,0.9989216,50.03925,-35.30056,-80.56596,1004.541
1.310276032,0.2589334,0.4245807,-0.2209152,-0.006759183,-0.006915904,1.000409,50.03925,-35.30056,-80.56596,1004.541
1.330091000,0.1364664,0.1220172,-0.2209152,-0.004808969,-0.008368952,0.9994254,50.71281,-34.92656,-80.57498,1004.541
1.349906445,0.1364664,0.1220172,-0.2820776,-0.004803519,-0.009342803,0.9994204,50.71281,-34.92656,-80.57498,1004.541
1.369721413,0.1976999,0.364068,-0.2820776,-0.003374507,-0.003979082,0.9994401,49.66717,-35.32018,-81.38794,1004.536
1.389536858,0.2589334,-0.05952091,-0.3432401,-0.00774549,-0.005952947,0.9980059,49.66717,-35.32018,-81.38794,1004.536
1.409351826,0.07523298,0.1825299,-0.3432401,-0.001915519,-0.003971531,0.9994321,49.66717,-35.32018,-81.38794,1004.535
1.429166794,0.4426338,0.1825299,-0.09859026,-0.006803961,-0.004503544,0.9912507,50.34074,-34.94618,-81.39697,1004.535
1.448982716,0.1364664,0.1220172,-0.03742781,-0.007256967,-0.00545999,0.9994538,50.34074,-34.94618,-81.39697,1004.538
1.468797684,0.1364664,0.2430426,-0.1597527,-0.008238886,-0.003516154,0.9999518,50.34074,-34.94618,-81.39697,1004.538
1.488613129,0.07523298,0.0615045,-0.2209152,-0.004333564,-0.00788537,0.9970119,50.03842,-35.30898,-81.00932,1004.534
1.508428097,0.1976999,0.1825299,-0.09859026,-0.004794789,-0.01031431,1.000381,50.03842,-35.30898,-81.00932,1004.534
1.528243542,0.1364664,0.0009917939,-0.3432401,-0.003858134,-0.005935155,0.9970193,50.34216,-34.93174,-80.63693,1004.533
1.548058510,0.1976999,0.0615045,-0.03742781,-0.002855985,-0.007375662,1.003281,50.34216,-34.93174,-80.63693,1004.533
1.570350170,0.1976999,0.0009917939,-0.1597527,-0.004814927,-0.004951107,1.003304,50.34216,-34.93174,-80.63693,1004.534
1.590165615,0.1364664,0.2430426,-0.09859026,-0.001904642,-0.007385862,0.9970012,50.34216,-34.93174,-80.63693,1004.534
1.609980583,0.2589334,0.1825299,-0.2820776,-0.00822526,-0.005950776,0.9999393,50.34216,-34.93174,-80.63693,1004.532
1.629795551,0.2589334,0.1220172,-0.09859026,-0.006751539,-0.007399313,1.001855,50.33641,-34.56505,-80.64341,1004.532
1.649611473,0.1364664,0.2430426,-0.03742781,-0.00723519,-0.01082202,0.9970127,50.33641,-34.56505,-80.64341,1004.533
1.669426441,0.07523298,0.1825299,-0.03742781,-0.00870995,-0.005952122,1.000425,50.33641,-34.56505,-80.64341,1004.533
1.689241886,0.1364664,0.1220172,-0.09859026,-0.007753666,-0.004492173,0.9980134,50.04559,-35.66124,-80.2428,1004.532
1.709056854,0.1364664,-0.05952091,-0.1597527,-0.00872413,-0.004006767,0.9994693,50.04559,-35.66124,-80.2428,1004.532
1.728872299,0.1364664,0.0615045,-0.2820776,-0.008226345,-0.00546268,1.000424,50.3472,-35.30566,-81.01048,1004.531
1.748687267,0.1976999,-0.05952091,-0.3432401,-0.00627066,-0.006422947,1.001857,50.3472,-35.30566,-81.01048,1004.531
1.768502236,0.1364664,0.0615045,-0.2209152,-0.002392034,-0.005433649,0.99991,50.3472,-35.30566,-81.01048,1004.53
1.788317681,0.2589334,0.0615045,-0.2820776,-0.00432696,-0.004947418,1.003784,50.34862,-35.29122,-80.25043,1004.53
1.808132649,0.07523298,0.0615045,-0.09859026,-0.001418289,-0.005916711,0.9994195,50.34862,-35.29122,-80.25043,1004.525
1.827947617,0.3201669,0.1220172,-0.03742781,-0.006769552,-0.00594557,0.9989659,50.71691,-35.31009,-81.45522,1004.525
1.850240231,0.1364664,0.0009917939,-0.2209152,-0.008213783,-0.005942574,1.003318,50.71691,-35.31009,-81.45522,1004.526
1.870055199,0.2589334,0.1825299,-0.2209152,-0.005797448,-0.006429804,0.9979928,50.71691,-35.31009,-81.45522,1004.526
1.889870644,0.1976999,0.1825299,-0.09859026,-0.006277773,-0.006916902,0.9989582,50.71269,-34.92776,-80.63832,1004.527
1.909685612,0.1364664,0.0615045,-0.09859026,-0.007261355,-0.00644087,0.9965526,50.71269,-34.92776,-80.63832,1004.527
1.929501057,0.1364664,0.2430426,-0.1597527,-0.01019513,-0.003045156,0.9975516,50.3472,-35.30566,-81.01048,1004.527
1.949316025,0.1976999,0.0615045,-0.1597527,-0.006290889,-0.006926276,0.9950969,50.3472,-35.30566,-81.01048,1004.527
1.969130993,0.07523298,0.2430426,-0.1597527,-0.007747661,-0.004976755,0.9989762,50.3472,-35.30566,-81.01048,1004.528
1.988946438,0.2589334,0.0615045,-0.1597527,-0.003854324,-0.006910177,0.9965316,50.34145,-34.93896,-81.01695,1004.528
2.008761883,0.1364664,0.1220172,-0.03742781,-0.01014873,-0.006922976,1.004771,50.34145,-34.93896,-81.01695,1004.527
2.028577328,0.3201669,0.2430426,-0.03742781,-0.004824743,-0.003491505,1.002829,49.65709,-34.57235,-80.64087,1004.527
2.048392296,0.1976999,0.1220172,-0.2209152,-0.00724877,-0.005454131,1.001867,49.65709,-34.57235,-80.64087,1004.526
2.068207741,0.07523298,0.3035553,-0.09859026,-0.01018206,-0.005969047,0.9965711,49.65709,-34.57235,-80.64087,1004.526
2.088022709,0.0139995,0.3035553,-0.2820776,-0.008245466,-0.004987474,0.9956002,50.34791,-35.29844,-80.63046,1004.525
2.110314369,0.1364664,0.1825299,-0.2209152,-0.001910069,-0.00494538,0.9994271,50.34791,-35.29844,-80.63046,1004.525
2.130130291,0.1976999,0.0615045,-0.2820776,-0.01013349,-0.01082306,1.002821,50.71269,-34.92776,-80.63832,1004.52
2.149945259,0.1364664,0.0009917939,0.02373465,-0.005278902,-0.008359751,1.004255,50.71269,-34.92776,-80.63832,1004.52
2.169760704,0.2589334,0.1825299,-0.1597527,-0.005298577,-0.008373813,0.9984628,50.71269,-34.92776,-80.63832,1004.519
2.189575672,0.3201669,0.1220172,-0.2820776,-0.00435809,-0.00350305,0.9970345,50.34216,-34.93174,-80.63693,1004.519
2.209390640,0.1364664,0.1825299,-0.1597527,-0.008727432,-0.005475744,0.996083,50.34216,-34.93174,-80.63693,1004.52
2.229206085,0.1976999,0.0615045,-0.09859026,-0.005801258,-0.005454783,0.9984805,50.34216,-34.93174,-80.63693,1004.52
2.249021053,0.1976999,0.1825299,-0.1597527,-0.00482585,-0.004470041,1.000894,50.34216,-34.93174,-80.63693,1004.522
2.268836498,0.3201669,0.1220172,-0.1597527,-0.01109959,-0.0108234,1.004757,50.34216,-34.93174,-80.63693,1004.522
2.288651466,0.07523298,0.1825299,-0.09859026,-0.00678424,-0.001556218,1.001885,50.71774,-35.30167,-81.01186,1004.521
2.308467388,0.1976999,0.0009917939,-0.03742781,-0.00919845,-0.004978446,1.001397,50.71774,-35.30167,-81.01186,1004.521
2.328282356,0.2589334,0.2430426,-0.2209152,-0.007765097,-0.001567111,0.9994766,50.35295,-35.67235,-81.00399,1004.522
2.348097324,0.1364664,0.0615045,-0.03742781,-0.007773317,-0.003039602,0.9946422,50.35295,-35.67235,-81.00399,1004.522
2.370389462,0.1976999,0.2430426,-0.1597527,-0.0101706,-0.007427476,0.997529,50.35295,-35.67235,-81.00399,1004.523
2.390204430,0.1976999,0.1220172,-0.2209152,-0.006253247,-0.01129922,0.9989355,50.35437,-35.65792,-80.24395,1004.523
2.410020352,0.1976999,0.1825299,-0.2209152,-0.007247707,-0.00740886,0.998961,50.35437,-35.65792,-80.24395,1004.522
2.429835320,0.2589334,0.1220172,-0.1597527,-0.007258584,-0.00399453,1.001392,50.35284,-35.67355,-81.06732,1004.522
2.449650765,0.1976999,0.1220172,-0.3432401,-0.008677182,-0.007395319,1.007657,50.35284,-35.67355,-81.06732,1004.524
2.469465733,0.3814003,0.0009917939,-0.03742781,-0.004313934,-0.01080457,0.9979622,50.35284,-35.67355,-81.06732,1004.524
2.489280701,0.1364664,0.1220172,-0.2820776,-0.006261399,-0.008371816,1.001364,49.66859,-35.30574,-80.62791,1004.519
2.509096146,0.07523298,0.0009917939,-0.03742781,-0.008716509,-0.005956809,0.9984939,49.66859,-35.30574,-80.62791,1004.519
2.528911114,0.3201669,0.1220172,-0.09859026,-0.008713207,-0.004487833,1.00188,49.66859,-35.30574,-80.62791,1004.52
2.548727036,0.07523298,0.0615045,-0.09859026,-0.00333959,-0.007865103,1.003281,50.03337,-34.93506,-80.63577,1004.52
2.568542004,0.2589334,0.0615045,-0.09859026,-0.008722536,-0.006938861,0.9951101,50.03337,-34.93506,-80.63577,1004.522
2.588357449,0.1364664,0.1220172,-0.09859026,-0.006266827,-0.005931335,1.00379,50.71844,-35.29446,-80.63184,1004.522
2.608172417,0.1364664,0.1825299,-0.09859026,-0.007751495,-0.005468366,0.997043,50.71844,-35.29446,-80.63184,1004.523
2.627987385,0.1976999,-0.05952091,-0.09859026,-0.003347256,-0.008848326,0.999415,50.71844,-35.29446,-80.63184,1004.523
2.650279999,0.1364664,0.1220172,-0.1597527,-0.009219766,-0.004993679,0.9951228,50.34216,-34.93174,-80.63693,1004.525
2.670094967,0.0139995,0.1220172,-0.1597527,-0.007234567,-0.005932853,1.005243,50.34216,-34.93174,-80.63693,1004.525
2.689910412,0.1364664,0.0009917939,-0.2820776,-0.003839036,-0.007876994,0.9994227,50.03337,-34.93506,-80.63577,1004.526
2.709725380,0.07523298,0.0615045,-0.2209152,-0.005306198,-0.006423772,0.9994381,50.03337,-34.93506,-80.63577,1004.526
2.729540825,0.0139995,0.0615045,-0.2209152,-0.004828044,-0.004960482,0.9994431,50.03337,-34.93506,-80.63577,1004.523
2.749355793,0.1364664,0.1825299,-0.2209152,-0.009678844,-0.009865441,0.9951003,50.34708,-35.30686,-81.07381,1004.523
2.769170761,0.1364664,0.1825299,-0.2209152,-0.004819338,-0.007398619,0.9979824,50.34708,-35.30686,-81.07381,1004.525
2.788986683,0.1364664,0.2430426,-0.2209152,-0.008243273,-0.004497034,0.9970507,50.0383,-35.31018,-81.07265,1004.525
2.808801651,0.3201669,0.0615045,-0.1597527,-0.006744981,-0.007394626,1.003785,50.0383,-35.31018,-81.07265,1004.528
2.828617096,0.2589334,0.0009917939,-0.2209152,-0.008206693,-0.006915252,1.003796,50.0383,-35.31018,-81.07265,1004.528
2.848432064,0.3201669,0.0615045,-0.2209152,-0.005791443,-0.006914386,0.9989555,50.03255,-34.94349,-81.07912,1004.524
2.868247509,0.07523298,-0.05952091,-0.09859026,-0.004816036,-0.005929643,1.001369,50.03255,-34.94349,-81.07912,1004.524
2.888062477,0.0139995,0.0009917939,-0.09859026,-0.005788141,-0.005445409,1.002342,50.34133,-34.94016,-81.08028,1004.527
2.910355091,0.2589334,0.0009917939,-0.2820776,-0.00626357,-0.007395623,1.002334,50.34133,-34.94016,-81.08028,1004.527
2.930170059,0.1364664,0.1220172,-0.2209152,-0.009193024,-0.007418928,0.9989716,50.34133,-34.94016,-81.08028,1004.526
2.949985028,0.1364664,0.1220172,-0.1597527,-0.005300217,-0.008374984,0.9979801,50.70683,-34.56227,-80.70814,1004.526
2.969800472,0.1364664,0.1220172,-0.09859026,-0.01021261,-0.002568778,0.99321,50.70683,-34.56227,-80.70814,1004.527
2.989615917,0.2589334,0.0615045,-0.2820776,-0.004339499,-0.003000892,1.003312,50.34708,-35.30686,-81.07381,1004.527
3.009431362,0.1976999,0.0615045,-0.09859026,-0.000457085,-0.004453248,0.9984564,50.34708,-35.30686,-81.07381,1004.527
3.029246330,0.1364664,0.1825299,-0.2209152,-0.01063453,-0.007902857,1.003321,50.34708,-35.30686,-81.07381,1004.527
3.049061775,0.0139995,0.1220172,-0.2820776,-0.006748836,-0.00935287,0.999431,50.71187,-34.93618,-81.08167,1004.528
3.068876743,0.1976999,0.1220172,-0.2209152,-0.006778281,-0.004974064,0.9980056,50.71187,-34.93618,-81.08167,1004.528
3.088691711,0.0139995,0.1220172,0.02373465,-0.006267381,-0.006420603,1.002822,50.72816,-35.97515,-81.06331,1004.527
3.108507156,0.0139995,0.0615045,-0.03742781,-0.007720411,-0.009846,0.998951,50.72816,-35.97515,-81.06331,1004.527
3.128322601,0.1364664,0.0009917939,-0.09859026,-0.006280474,-0.004963345,1.001382,50.72816,-35.97515,-81.06331,1004.528
3.148138046,0.2589334,0.1220172,-0.09859026,-0.01210772,-0.007431685,0.9999529,50.40955,-35.29898,-80.69402,1004.528
3.167953014,0.07523298,-0.05952091,-0.09859026,-0.00821981,-0.006924625,0.9999343,50.40955,-35.29898,-80.69402,1004.528
3.190245628,0.1364664,0.0615045,-0.2209152,-0.005297447,-0.005928644,1.002819,50.34779,-35.29964,-80.69379,1004.528
3.210060597,0.2589334,0.2430426,-0.2209152,-0.009215378,-0.0040128,0.9980239,50.34779,-35.29964,-80.69379,1004.525
3.229876041,0.2589334,0.0615045,-0.1597527,-0.0009423515,-0.006410494,0.9955528,50.34779,-35.29964,-80.69379,1004.525
3.249691010,0.1364664,0.1220172,-0.2209152,-0.005782714,-0.00788589,0.999916,50.40379,-34.93228,-80.7005,1004.526
3.269505978,0.0139995,0.2430426,-0.2820776,-0.004835157,-0.005454437,0.9965444,50.40379,-34.93228,-80.7005,1004.526
3.289321423,0.07523298,0.1220172,-0.3432401,-0.009189744,-0.007416584,0.9999371,50.40955,-35.29898,-80.69402,1004.525
3.309136868,0.1364664,0.1825299,-0.1597527,-0.003853747,-0.004954276,0.9999205,50.40955,-35.29898,-80.69402,1004.525
3.328952313,0.1976999,0.1220172,-0.03742781,-0.007747661,-0.004976755,0.9989762,50.40955,-35.29898,-80.69402,1004.526
3.348767281,0.1976999,0.3035553,-0.09859026,-0.006771191,-0.005946741,0.9984833,50.40955,-35.29898,-80.69402,1004.526
3.368582726,0.2589334,0.1220172,-0.1597527,3.192388E-05,-0.007870921,0.9936094,50.40955,-35.29898,-80.69402,1004.526
3.388397694,0.3201669,0.0615045,-0.1597527,-0.005317098,-0.004476074,0.9994482,50.71833,-35.29566,-80.69518,1004.526
3.408213616,0.07523298,0.0615045,-0.09859026,-0.007711658,-0.009350873,1.002332,50.71833,-35.29566,-80.69518,1004.525
3.428028584,0.1364664,0.0615045,-0.2209152,-0.005812689,-0.002529721,0.9999437,50.71833,-35.29566,-80.69518,1004.525
3.450320244,0.1976999,0.1220172,-0.1597527,-0.00676902,-0.006922934,0.9975129,50.35284,-35.67355,-81.06732,1004.528
3.470136166,0.3201669,0.0615045,-0.2209152,-0.005295807,-0.005927472,1.003302,50.35284,-35.67355,-81.06732,1004.528
3.489951134,0.07523298,0.2430426,-0.09859026,-0.005751653,-0.01373016,0.9994031,50.40309,-34.9395,-81.08051,1004.53
3.509766579,0.1364664,0.0009917939,-0.3432401,-0.00968642,-0.004982135,1.000918,50.40309,-34.9395,-81.08051,1004.53
3.529581547,0.3201669,0.1825299,-0.09859026,-0.005815992,-0.003998697,0.9965573,50.40309,-34.9395,-81.08051,1004.531
3.549396992,0.1364664,0.0615045,-0.09859026,-0.003846103,-0.005437685,1.001366,50.41601,-35.65845,-80.30753,1004.531
3.569211960,0.1976999,0.364068,-0.2820776,-0.00432592,-0.008368779,0.9984575,50.41601,-35.65845,-80.30753,1004.532
3.589027882,0.1976999,0.1220172,-0.2820776,-0.005795831,-0.007895265,0.9960545,50.41459,-35.67289,-81.06756,1004.532
3.608842850,0.2589334,0.1825299,-0.2209152,-0.007229694,-0.008862603,1.00185,50.41459,-35.67289,-81.06756,1004.532
3.628657818,0.1364664,0.0009917939,-0.2209152,-0.006756458,-0.007402828,1.000406,50.41459,-35.67289,-81.06756,1004.532
3.648473263,0.3201669,0.1220172,-0.09859026,-0.004842801,-0.004971027,0.995099,50.71833,-35.29566,-80.69518,1004.531
3.668288231,0.3201669,0.2430426,-0.1597527,-0.002904042,-0.004965647,0.9931576,50.71833,-35.29566,-80.69518,1004.531
3.688104153,0.07523298,0.0615045,-0.1597527,-0.003843955,-0.00788051,0.9979746,50.71833,-35.29566,-80.69518,1004.532
3.710395813,0.07523298,0.3035553,-0.09859026,-0.006748814,-0.007886237,1.001852,50.03255,-34.94349,-81.07912,1004.532
3.730211735,0.2589334,0.0615045,-0.2209152,-0.004317145,-0.00640702,1.00426,50.03255,-34.94349,-81.07912,1004.533
3.750026703,0.1976999,0.1220172,-0.1597527,-0.005758697,-0.009824215,1.003767,50.41026,-35.29176,-80.314,1004.533
3.769842148,0.3201669,0.1825299,-0.1597527,-0.007723113,-0.007892443,1.001374,50.41026,-35.29176,-80.314,1004.533
3.789657116,0.07523298,-0.1200336,-0.2209152,-0.006756481,-0.008869461,0.9979855,50.41026,-35.29176,-80.314,1004.533
3.809472561,0.1976999,-0.05952091,-0.09859026,-0.007730202,-0.006919766,1.000897,50.40379,-34.93228,-80.7005,1004.532
3.829288006,0.1976999,0.0615045,-0.1597527,-0.003865778,-0.005451746,0.9955738,50.40379,-34.93228,-80.7005,1004.532
3.849103451,0.0139995,0.1220172,-0.09859026,-0.006287078,-0.007901296,0.9946091,50.41026,-35.29176,-80.314,1004.529
3.868918419,0.1364664,0.2430426,-0.1597527,-0.002404088,-0.007397752,0.9931424,50.41026,-35.29176,-80.314,1004.529
3.888733387,0.3201669,-0.05952091,-0.2209152,-0.007730225,-0.008386398,0.998476,50.41026,-35.29176,-80.314,1004.532
3.908548832,0.1364664,0.1220172,-0.2820776,-0.009190784,-0.003995223,1.005264,50.40309,-34.9395,-81.08051,1004.532
3.928364754,0.1364664,0.1825299,-0.1597527,-0.008191982,-0.00983797,1.003298,50.40309,-34.9395,-81.08051,1004.534
3.948179722,0.1364664,0.0009917939,-0.09859026,-0.0121377,-0.002075516,0.9999806,50.40884,-35.30619,-81.07404,1004.534
3.967994690,0.1976999,0.1220172,-0.2820776,-0.006262507,-0.009350352,0.9994283,50.40884,-35.30619,-81.07404,1004.533
3.990287304,0.2589334,0.1825299,-0.4044026,-0.006765718,-0.005453958,1.000899,50.40884,-35.30619,-81.07404,1004.533
4.010102272,0.1976999,0.2430426,-0.1597527,-0.00385377,-0.006420908,0.9974995,50.40884,-35.30619,-81.07404,1004.535
4.029917717,0.2589334,0.0615045,-0.2209152,-0.004827513,-0.005937845,0.99799,50.40884,-35.30619,-81.07404,1004.535
4.049732685,0.1976999,-0.05952091,-0.2820776,-0.007228077,-0.01032806,0.9999114,50.04476,-35.66965,-80.68616,1004.536
4.069548607,0.1976999,0.0615045,-0.2209152,-0.00674662,-0.007395797,1.003303,50.04476,-35.66965,-80.68616,1004.536
4.089363575,0.1364664,0.0615045,-0.1597527,-0.003817235,-0.01177239,0.9994025,50.04476,-35.66965,-80.68616,1004.537
4.109179020,0.1976999,0.1825299,-0.2209152,-0.006768443,-0.004967033,1.000902,50.71257,-34.92896,-80.70166,1004.537
4.128993988,0.2589334,0.1825299,-0.1597527,-0.006768489,-0.007900299,0.9960598,50.71257,-34.92896,-80.70166,1004.538
4.148808956,0.0139995,0.1825299,-0.09859026,-0.006276133,-0.00691573,0.9994409,50.40955,-35.29898,-80.69402,1004.538
4.168624878,0.1364664,0.0615045,-0.4044026,-0.008226345,-0.00546268,1.000424,50.40955,-35.29898,-80.69402,1004.533
4.188439846,0.3201669,0.1220172,-0.2209152,-0.00384772,-0.003972224,1.003304,50.40955,-35.29898,-80.69402,1004.533
4.208255291,0.1364664,0.2430426,-0.09859026,-0.0101531,-0.006437223,1.004291,51.08241,-34.9322,-81.08306,1004.533
4.228070259,0.1976999,0.0615045,-0.09859026,-0.004299133,-0.007860763,1.007148,51.08241,-34.9322,-81.08306,1004.533
4.250362873,0.1976999,0.3035553,-0.2209152,-0.006245026,-0.009826731,1.00377,51.08887,-35.29168,-80.69656,1004.534
4.270177841,0.2589334,0.1220172,-0.2820776,-0.007719811,-0.006423467,1.004761,51.08887,-35.29168,-80.69656,1004.534
4.289993763,0.1976999,0.1825299,-0.1597527,-0.004313866,-0.006404676,1.005225,51.08887,-35.29168,-80.69656,1004.533
4.309808731,0.1976999,0.0615045,-0.1597527,-0.007252025,-0.003989842,1.003323,49.66272,-34.94025,-80.69772,1004.533
4.329624176,0.1364664,0.0615045,-0.2209152,-0.001898107,-0.008847808,0.9965109,49.66272,-34.94025,-80.69772,1004.534
4.349439144,0.07523298,0.0009917939,-0.03742781,-0.003351067,-0.007873305,0.9999027,50.72337,-35.66957,-81.06871,1004.534
4.369254112,0.1976999,0.1220172,-0.03742781,-0.007751471,-0.004001733,0.999464,50.72337,-35.66957,-81.06871,1004.535
4.389070034,0.2589334,0.1825299,-0.09859026,-0.01017658,-0.005476263,0.9989869,50.72337,-35.66957,-81.06871,1004.535
4.408885479,0.1976999,0.0009917939,-0.09859026,-0.008228516,-0.004486488,1.001395,50.40955,-35.29898,-80.69402,1004.534
4.428700447,0.2589334,0.0009917939,-0.09859026,-0.00528874,-0.008366782,1.001359,50.40955,-35.29898,-80.69402,1004.534
4.448515415,0.1976999,0.0615045,-0.09859026,-0.004816059,-0.007396276,0.9989477,50.03326,-34.93627,-80.69911,1004.533
4.468331337,0.0139995,0.1220172,-0.2209152,-0.005760913,-0.01178129,0.9998959,50.03326,-34.93627,-80.69911,1004.533
4.488146782,0.1976999,0.0009917939,-0.3432401,-0.006759714,-0.005938539,1.001862,50.03326,-34.93627,-80.69911,1004.535
4.507961750,0.1975329,0.1218072,-0.3430127,-0.00728043,-0.003032398,0.9965703,50.03901,-35.30296,-80.69263,1004.535
4.530254364,0.1359145,0.06089347,-0.1590174,-0.001889909,-0.008841949,0.9989243,50.03901,-35.30296,-80.69263,1004.536
4.550069332,0.4416444,0.181576,-0.2808662,-0.008200712,-0.008866465,1.002338,50.40955,-35.29898,-80.69402,1004.536
4.569884300,0.134868,0.1207024,-0.09698084,-0.007262948,-0.003508776,1.000912,50.40955,-35.29898,-80.69402,1004.535
4.589700222,0.1956667,0.2413677,-0.2186975,-0.00237185,-0.007863585,1.001828,50.40955,-35.29898,-80.69402,1004.535
4.609515190,0.3176616,0.1200212,-0.2182445,-0.00821272,-0.007897303,1.000412,50.72408,-35.66235,-80.6887,1004.534
4.629330635,0.2559958,0.05918812,0.0268573,-0.00578597,-0.006421602,1.001371,50.72408,-35.66235,-80.6887,1004.534
4.649145603,0.2555838,0.1800459,-0.2174377,-0.008222535,-0.006437701,0.9999368,50.71257,-34.92896,-80.70166,1004.534
4.668961525,0.255019,-0.001697134,-0.217103,-0.009201221,-0.007424787,0.9965582,50.71257,-34.92896,-80.70166,1004.534
4.688776493,0.1933952,0.05857296,-0.1556259,-0.00774549,-0.005952947,0.9980059,50.71257,-34.92896,-80.70166,1004.534
4.708591938,0.4379013,0.2400398,-0.1552927,-0.00578597,-0.006421602,1.001371,51.08804,-35.30009,-81.13992,1004.534
4.728406906,0.06997778,0.3002918,-0.1548837,-0.007245513,-0.00691842,1.000412,51.08804,-35.30009,-81.13992,1004.532
4.748222828,0.06960977,0.0577909,-0.2768006,-0.005809987,-0.004483277,0.9975202,50.40884,-35.30619,-81.07404,1004.532
4.768037796,0.3140614,0.05758899,-0.2151352,-0.008694663,-0.006918941,1.003316,50.40884,-35.30619,-81.07404,1004.532
4.790330410,0.1911112,-0.06346608,-0.2758053,-0.005799064,-0.004964343,0.9999311,50.40884,-35.30619,-81.07404,1004.532
4.810145378,0.1907852,0.1177945,-0.2141809,-0.007744404,-0.006441044,0.9975207,50.70612,-34.56948,-81.08815,1004.532
4.829960823,0.1291496,0.1781065,-0.2747865,-0.006747751,-0.009840966,0.9989457,50.70612,-34.56948,-81.08815,1004.532
4.849775791,0.1286909,0.2988367,-0.1519445,-0.006283754,-0.004965688,1.000416,50.40872,-35.3074,-81.13737,1004.533
4.869591713,0.3731671,0.05652955,-0.1515823,-0.00481114,-0.00739276,1.000396,50.40872,-35.3074,-81.13737,1004.533
4.889406681,0.2502054,0.1772801,-0.09002017,-0.005800173,-0.005942879,0.9979953,50.40872,-35.3074,-81.13737,1004.532
4.909221649,0.1884975,0.05601851,-0.2729745,-0.005743986,-0.01274693,1.00327,50.40309,-34.9395,-81.08051,1004.532
4.929037571,0.1881396,0.1767894,-0.1500986,-0.009173371,-0.008871499,1.002343,50.40309,-34.9395,-81.08051,1004.529
4.948853016,0.2488432,-0.0653634,-0.2720468,-0.006264678,-0.008374159,1.000399,50.40309,-34.9395,-81.08051,1004.529
4.968667984,0.3097978,0.1764146,-0.1493269,-0.005798533,-0.005941708,0.998478,50.39722,-34.57401,-81.15034,1004.527
4.988482952,0.125608,0.1762186,-0.08784717,-0.007743274,-0.003995874,1.001877,50.39722,-34.57401,-81.15034,1004.527
5.008298874,0.1252349,0.05499782,-0.0874731,-0.006277773,-0.006916902,0.9989582,50.71175,-34.93738,-81.14501,1004.526
5.028114319,0.1247284,0.1153345,-0.1483968,-0.004807861,-0.007390417,1.001361,50.71175,-34.93738,-81.14501,1004.526
5.047929287,0.1243384,-0.005904511,-0.209206,-0.01017386,-0.005963188,0.9989844,50.71175,-34.93738,-81.14501,1004.523
5.070221901,0.1239489,0.1147957,-0.02531971,-0.009700621,-0.004503412,0.9975414,50.40297,-34.9407,-81.14385,1004.523
5.090036869,0.1847173,-0.06712556,-0.2697715,-0.005322549,-0.003502225,0.9994532,50.40297,-34.9407,-81.14385,1004.519
5.109851837,0.0005723611,0.1141633,-0.08587569,-0.006766249,-0.004476593,1.002352,50.71821,-35.29686,-80.75851,1004.519
5.129667759,0.1226535,0.1745032,-0.02440174,-0.004828044,-0.004960482,0.9994431,50.71821,-35.29686,-80.75851,1004.516
5.149482727,0.1835021,0.1742171,-0.3908737,-0.006297424,-0.00546433,0.9955871,50.71821,-35.29686,-80.75851,1004.516
5.169298172,0.1219426,0.0529444,-0.08456002,-0.004341185,-0.005935328,0.9979873,51.07653,-34.5667,-81.15288,1004.514
5.189114094,0.1215788,0.05265956,-0.2064231,-0.005789827,-0.008379845,0.9970173,51.07653,-34.5667,-81.15288,1004.514
5.208929062,0.182411,0.1734769,-0.20602,-0.007726946,-0.008384055,0.9994413,50.41026,-35.29176,-80.314,1004.514
5.228744030,0.3656151,-0.008325784,-0.08319708,-0.00336199,-0.00739224,0.9974918,50.41026,-35.29176,-80.314,1004.514
5.248559475,0.05899115,-0.008589802,-0.1439971,-0.009167367,-0.00935608,1.003306,50.41026,-35.29176,-80.314,1004.513
5.268374920,0.1199419,0.2937483,-0.02125302,-0.004827513,-0.005937845,0.99799,50.04547,-35.66244,-80.30614,1004.513
5.288190365,0.05823436,0.1119286,-0.08217014,-0.007232927,-0.005931681,1.005726,50.04547,-35.66244,-80.30614,1004.511
5.308005333,0.05779985,0.1116855,-0.2041352,-0.0086936,-0.008873669,1.000409,50.40368,-34.93349,-80.76383,1004.511
5.330297947,0.1797961,0.3533639,-0.1425691,-0.01172504,0.005207433,0.9903622,50.40368,-34.93349,-80.76383,1004.51
5.350112915,0.1180537,-0.07054228,-0.2034696,-0.002399655,-0.003483608,1.000885,50.40368,-34.93349,-80.76383,1004.51
5.369928837,0.05640848,0.110831,-0.141854,-0.004351554,-0.004964996,0.9965443,50.03819,-35.31138,-81.13599,1004.51
5.389743805,0.0560362,-0.07079531,-0.2024683,-0.004356981,-0.002524514,0.9989702,50.03819,-35.31138,-81.13599,1004.51
5.409559250,0.2394037,0.1104267,-0.0798463,-0.01064924,-0.004980138,1.003819,51.10107,-36.01785,-80.30359,1004.51
5.429374218,0.1776845,0.1102824,-0.07951147,-0.00238335,-0.00933842,0.9960285,51.10107,-36.01785,-80.30359,1004.51
5.449190140,0.1772576,0.04930286,-0.2626264,-0.007730157,-0.0039865,1.005739,51.10107,-36.01785,-80.30359,1004.509
5.469005108,0.2993372,0.1095209,-0.2623893,-0.009187042,-0.009370141,0.9975136,51.08875,-35.29288,-80.7599,1004.509
5.488820553,0.2375253,-0.01181739,-0.1396361,-0.00429807,-0.009815492,1.004242,51.08875,-35.29288,-80.7599,1004.504
5.508635998,0.05342078,0.2299401,-0.07806549,-0.009688059,-0.004983307,1.000435,50.71246,-34.93017,-80.76499,1004.504
5.528451443,0.2366795,0.1690971,-0.07771594,-0.01014603,-0.008876532,1.002348,50.71246,-34.93017,-80.76499,1004.508
5.548266411,0.1137721,0.04783702,-0.3220554,-0.006774493,-0.007415717,0.995097,50.71246,-34.93017,-80.76499,1004.508
5.568082333,0.2970715,0.04769784,-0.0768275,-0.008717639,-0.008401977,0.9941373,50.41026,-35.29176,-80.314,1004.505
5.590373993,0.2354411,0.04724029,-0.2598675,-0.008226323,-0.003996048,1.002845,50.41026,-35.29176,-80.314,1004.505
5.610189915,0.1125367,0.1076724,-0.2595031,-0.003861945,-0.004960135,0.9975071,50.03819,-35.31138,-81.13599,1004.506
5.630004883,0.1121581,-0.07411699,-0.1979772,-0.009201753,-0.006447422,0.9980113,50.03819,-35.31138,-81.13599,1004.506
5.649820328,0.2954425,0.1072844,-0.1975185,-0.009194109,-0.006930831,0.9994568,50.03819,-35.31138,-81.13599,1004.505
5.669635773,0.05011282,0.04644526,-0.1359946,-0.005283244,-0.006407367,1.006196,50.42176,-36.02515,-80.30104,1004.505
5.689451218,0.1722618,-0.07471559,-0.1968732,-0.006280498,-0.006429978,0.9989607,50.42176,-36.02515,-80.30104,1004.503
5.709266186,0.04918946,0.167105,-0.07426521,-0.00776893,-0.002058723,0.9975434,50.41447,-35.67409,-81.1309,1004.503
5.729081631,0.1101649,0.1062678,-0.07384834,-0.007736738,-0.00545782,1.001387,50.41447,-35.67409,-81.1309,1004.504
5.748897076,0.1097153,0.04554528,-0.1346526,-0.008702307,-0.006435532,1.00187,50.41447,-35.67409,-81.1309,1004.504
5.768712521,0.1092669,-0.01517668,-0.1954962,-0.005813289,-0.005952253,0.9941339,50.40872,-35.3074,-81.13737,1004.503
5.788527489,0.170053,0.105469,-0.01167153,-0.003335225,-0.008350856,1.003762,50.40872,-35.3074,-81.13737,1004.503
5.808343411,0.04719761,0.2263626,-0.1336407,-0.007211681,-0.01031635,1.004738,50.03243,-34.94469,-81.14246,1004.498
5.828158379,0.108082,0.1050727,-0.1944293,-0.008692469,-0.006428501,1.004766,50.03243,-34.94469,-81.14246,1004.498
5.847973824,0.1688711,0.1048468,-0.1939603,-0.00672482,-0.01129119,1.003282,50.03243,-34.94469,-81.14246,1004.498
5.870265961,0.1683942,0.1650825,-0.132346,-0.009183186,-0.007411897,1.001868,50.40943,-35.30018,-80.75735,1004.498
5.890081406,0.4129246,0.1648959,-0.1317641,-0.009215955,-0.0059687,0.994635,50.40943,-35.30018,-80.75735,1004.497
5.909896851,0.04508287,0.2855453,-0.1313757,-0.009210459,-0.004009284,0.9994719,50.71246,-34.93017,-80.76499,1004.497
5.929712296,0.1059726,0.1642019,-0.3144949,-0.006759206,-0.008382536,0.997988,50.71246,-34.93017,-80.76499,1004.497
5.949527264,0.04433852,0.1638658,-0.06951623,-0.01016781,-0.003514504,1.004789,50.71246,-34.93017,-80.76499,1004.497
5.969343186,-0.01714082,0.1030177,-0.06905372,-0.004829152,-0.005939017,0.9975073,50.39722,-34.57401,-81.15034,1004.493
5.989158154,0.2273364,0.0422464,-0.1298701,-0.004329176,-0.00690449,0.999913,50.39722,-34.57401,-81.15034,1004.493
6.008973598,0.2269386,0.10271,-0.251773,-0.004830724,-0.001540292,1.004287,50.39722,-34.57401,-81.15034,1004.492
6.028789043,0.1040748,-0.01861122,-0.251429,-0.009168453,-0.008867984,1.003791,50.40872,-35.3074,-81.13737,1004.492
6.048604488,0.2261074,-0.01886837,-0.2510281,-0.005311648,-0.005449922,0.9994432,50.40872,-35.3074,-81.13737,1004.495
6.068419456,0.04197387,0.1624323,0.05497279,-0.01019236,-0.0005988155,1.002391,50.77996,-35.2962,-80.75874,1004.495
6.088235378,0.1027561,0.1017018,-0.1281151,-0.00820891,-0.008872324,0.9999242,50.77996,-35.2962,-80.75874,1004.494
6.108050346,0.1634433,0.1620161,-0.1276206,-0.004831323,-0.004962825,0.9984778,50.77996,-35.2962,-80.75874,1004.494
6.130342960,0.04066847,0.1616156,-0.004973739,-0.004841139,-0.003503223,0.9980025,51.07724,-34.55949,-80.77286,1004.493
6.150157929,0.2239785,0.1008112,-0.06575896,-0.00191224,-0.003969188,1.000397,51.07724,-34.55949,-80.77286,1004.493
6.169973373,0.1623172,0.100596,-0.06542114,-0.007241679,-0.006426808,1.002345,50.40368,-34.93349,-80.76383,1004.492
6.189788818,0.2232008,0.2214069,-0.1262657,-0.01063455,-0.00936949,1.0009,50.40368,-34.93349,-80.76383,1004.492
6.209604263,0.1616568,0.2816676,-0.06480542,-0.00432592,-0.008368779,0.9984575,50.40368,-34.93349,-80.76383,1004.491
6.229419231,0.038688,0.03942259,-0.1867948,-0.001895913,-0.008357367,0.9979615,50.04464,-35.67086,-80.74949,1004.491
6.249235153,0.1608656,0.2205198,-0.2476996,-0.006770106,-0.006434838,0.9979981,50.04464,-35.67086,-80.74949,1004.487
6.269050121,0.1605002,0.03871297,-0.3084129,-0.007720896,-0.00593537,1.005246,49.66764,-35.31536,-81.1346,1004.487
6.288866043,0.2213115,-0.2037959,-0.1856017,-0.002406213,-0.003488295,0.9989546,49.66764,-35.31536,-81.1346,1004.488
6.308681488,-0.02396665,0.03800685,-0.1241076,-0.007726369,-0.006428154,1.00283,49.66764,-35.31536,-81.1346,1004.488
6.328496456,0.03705793,-0.02282911,-0.1848818,-0.008228008,-0.006930484,0.9975209,50.39875,-34.55837,-80.32697,1004.489
6.348312378,0.09810224,0.2189941,-0.1233704,-0.01014984,-0.007901511,1.002836,50.39875,-34.55837,-80.32697,1004.489
6.368127346,0.0364303,-0.1444039,-0.1842038,-0.0033549,-0.008364917,0.9979694,49.65685,-34.57476,-80.76754,1004.49
6.387942314,0.09743787,0.09747763,-0.1838373,-0.009188682,-0.009371312,0.9970309,49.65685,-34.57476,-80.76754,1004.49
6.410234928,0.2195528,0.0971263,-0.06122355,-0.007197479,-0.01079507,1.008114,49.65685,-34.57476,-80.76754,1004.49
6.430049896,0.3415455,0.1574901,-0.2443653,-0.008714361,-0.008399634,0.9951026,50.03314,-34.93747,-80.76244,1004.49
6.449865818,0.157372,-0.08470918,-0.1215997,-0.006766827,-0.006432495,0.9989634,50.03314,-34.93747,-80.76244,1004.489
6.469681263,0.03458689,0.2176302,-0.1824185,-0.006768443,-0.004967033,1.000902,49.6626,-34.94145,-80.76105,1004.489
6.489496231,0.2791264,-0.02489098,-0.12099,-0.001438982,-0.00104278,1.001375,49.6626,-34.94145,-80.76105,1004.49
6.509312153,0.09499428,0.1564627,-0.181772,-0.004844972,-0.003994835,0.9960694,49.6626,-34.94145,-80.76105,1004.49
6.529127121,0.155874,0.2167915,-0.120134,-0.00919628,-0.005954638,1.000427,51.08228,-34.9334,-81.1464,1004.487
6.548942089,0.09432605,0.03508897,-0.1198708,-0.005295807,-0.005927472,1.003302,51.08228,-34.9334,-81.1464,1004.487
6.568758011,0.1552266,0.03494387,-0.2417028,-0.00482809,-0.007893747,0.9946011,50.03314,-34.93747,-80.76244,1004.487
6.588573456,0.09364198,0.2163562,0.003361948,-0.002887646,-0.004953929,0.9979844,50.03314,-34.93747,-80.76244,1004.487
6.608388901,0.09325322,0.03454091,-0.3632373,-0.001923163,-0.003488122,0.9979867,50.03314,-34.93747,-80.76244,1004.49
6.628204346,0.09286529,-0.2076915,-0.1794139,0.005924177,-0.00731161,1.010956,50.78572,-35.66289,-80.75227,1004.49
6.648019314,0.399011,-0.08661951,-0.2402411,-0.01562276,0.006159975,0.9899057,50.78572,-35.66289,-80.75227,1004.492
6.670311928,0.1527965,-0.02641289,-0.1172954,0.00680952,0.0009418459,0.9989269,50.78713,-35.64846,-79.99223,1004.492
6.690126896,0.1526819,0.03393827,-0.1169433,-0.003421964,0.001853466,0.9951262,50.78713,-35.64846,-79.99223,1004.493
6.709942818,-0.03132486,0.09428982,-0.2388018,-0.004324281,-0.008367607,0.9989401,50.78713,-35.64846,-79.99223,1004.493
6.729757786,0.09075947,0.09411012,-0.29948,-0.003851022,-0.0054412,0.999918,50.78067,-35.28898,-80.37873,1004.495
6.749573708,0.274232,0.0937028,-0.1155287,-0.007745467,-0.004486314,1.000427,50.78067,-35.28898,-80.37873,1004.495
6.769388676,0.2127138,0.09348667,-0.1151235,-0.005302365,-0.00593216,1.001371,50.39793,-34.56679,-80.77032,1004.492
6.789204121,0.2122758,0.09311891,-0.05348001,-0.007252534,-0.001545846,1.007197,50.39793,-34.56679,-80.77032,1004.492
6.809020043,0.1507399,0.2140435,-0.1145274,-0.005800149,-0.004476246,1.000416,50.39793,-34.56679,-80.77032,1004.494
6.828835011,0.08922412,0.1531833,-0.2365073,-0.006764102,-0.006919419,0.9989609,50.77492,-34.92229,-80.38521,1004.494
6.848649979,0.2724699,0.09249492,0.06961092,-0.006781029,-0.005953772,0.9955872,50.77492,-34.92229,-80.38521,1004.495
6.868465901,0.02710185,-0.02885764,-0.05237037,-0.008194685,-0.007884413,1.005721,50.40872,-35.3074,-81.13737,1004.495
6.888280869,0.1493279,0.15243,-0.1133054,-0.009185911,-0.006924972,1.00187,50.40872,-35.3074,-81.13737,1004.496
6.908096314,0.3326342,0.03128792,-0.1128866,-0.01213663,-0.004030244,0.9970744,50.40872,-35.3074,-81.13737,1004.496
6.927912235,0.1485215,0.2731083,-0.1126608,-0.007750386,-0.00448983,0.9989787,50.02739,-34.57077,-80.76893,1004.497
6.950204373,-0.03567516,0.09112181,-0.1733898,-0.006789758,-0.004982267,0.9946268,50.02739,-34.57077,-80.76893,1004.497
6.970019818,0.1477304,0.1513678,0.07171454,-0.00384227,-0.004946074,1.003299,50.40368,-34.93349,-80.76383,1004.497
6.989834785,0.1474941,-0.09100609,-0.2337019,-0.006277749,-0.005450269,1.001379,50.40368,-34.93349,-80.76383,1004.497
7.009650707,0.08590966,-0.0305878,-0.1721254,-0.006294123,-0.003995355,0.9989733,50.40368,-34.93349,-80.76383,1004.498
7.029465675,0.1466199,0.1506662,-0.1106845,-0.006255903,-0.006412401,1.006201,50.41014,-35.29296,-80.37734,1004.498
7.049281597,0.08505681,0.02950953,-0.2938748,-0.006774447,-0.004482452,0.9999389,50.41014,-35.29296,-80.37734,1004.497
7.069096565,-0.09876104,0.1503089,-0.04885194,-0.006254841,-0.008367129,1.003295,50.39793,-34.56679,-80.77032,1004.497
7.088912010,0.02356949,-0.03149243,-0.3543496,-0.0101624,-0.007421617,0.9999424,50.39793,-34.56679,-80.77032,1004.498
7.108727455,0.2683865,0.08942206,-0.1705678,-0.008232373,-0.006444732,0.9970406,50.39793,-34.56679,-80.77032,1004.498
7.128542900,0.08433907,0.02877989,-0.1700628,-0.005796385,-0.008384532,0.9950867,50.40368,-34.93349,-80.76383,1004.494
7.148357868,0.08408889,0.08914447,-0.04759892,-0.005302388,-0.007398793,0.9989504,50.40368,-34.93349,-80.76383,1004.494
7.168173790,0.02264434,0.1493383,-0.04724909,-0.00384504,-0.007392414,0.9984599,50.40368,-34.93349,-80.76383,1004.497
7.187988758,0.1448238,0.0887166,-0.1692058,-0.001900832,-0.008360882,0.9965135,50.41447,-35.67409,-81.1309,1004.497
7.210281372,0.08327752,0.3305928,-0.04634548,-0.004344949,-0.002027044,1.003317,50.41447,-35.67409,-81.1309,1004.498
7.230096340,0.08308761,0.02786409,0.01506772,-0.009694641,-0.006454627,0.9960833,50.77268,-34.94514,-81.58859,1004.498
7.249912262,0.02166481,-0.03288959,-0.168227,-0.006754264,-0.006912388,1.001857,50.77268,-34.94514,-81.58859,1004.498
7.269727230,0.02157187,0.02743974,-0.1066998,-0.003381111,-0.006917033,0.9926676,50.77268,-34.94514,-81.58859,1004.498
7.289543152,0.1438693,0.02718091,-0.3508514,-0.004303542,-0.01030827,1.001826,50.41518,-35.66687,-80.75088,1004.499
7.309358597,0.1435849,0.02690389,0.01665866,-0.004317699,-0.006896288,1.003292,50.41518,-35.66687,-80.75088,1004.499
7.329173565,0.2657683,-0.094341,-0.04427685,-0.00529964,-0.006419085,1.001369,50.77492,-34.92229,-80.38521,1004.5
7.348989487,0.2040021,0.3289528,-0.04389698,-0.00823452,-0.004001907,1.000432,50.77492,-34.92229,-80.38521,1004.5
7.368804455,0.2035477,0.08666496,0.01752922,-0.007742188,-0.004483971,1.001392,50.77492,-34.92229,-80.38521,1004.501
7.388620377,0.1418031,0.02601062,-0.04335085,-0.004328068,-0.005925954,1.001849,50.40931,-35.30138,-80.82069,1004.501
7.408435345,0.08032896,0.1469327,-0.1041741,-0.006306087,-9.292783E-05,1.00189,50.40931,-35.30138,-80.82069,1004.501
7.428250790,0.263847,0.02567138,-0.2873999,-0.007749255,-0.002044661,1.003335,50.77409,-34.93071,-80.82856,1004.501
7.448066235,0.01846214,0.2070121,-0.1646223,-0.008683739,-0.007400006,1.005727,50.77409,-34.93071,-80.82856,1004.504
7.470358849,0.2016685,0.1462186,-0.1031293,-0.006283777,-0.006432321,0.9979954,50.77409,-34.93071,-80.82856,1004.504
7.490173817,0.1400442,0.1460035,-0.04174634,-0.01163559,-0.006950446,0.996574,50.39793,-34.56679,-80.77032,1004.503
7.509989262,0.0785168,0.1458839,-0.2250137,-0.009184317,-0.009857065,0.9975111,50.39793,-34.56679,-80.77032,1004.503
7.529805184,0.1395147,0.02451132,0.02018182,-0.007752003,-0.003024369,1.000917,50.77421,-34.9295,-80.76522,1004.501
7.549620152,0.1391068,0.3268803,-0.04074337,-0.007262417,-0.004486141,0.9994588,50.77421,-34.9295,-80.76522,1004.501
7.569436073,0.0775817,0.02398995,-0.1629084,-0.003871183,-0.001544633,1.000421,50.77421,-34.9295,-80.76522,1004.502
7.589251042,0.1996617,0.0239297,-0.1013753,-0.01064984,-0.008402671,0.9980092,50.7856,-35.66409,-80.81561,1004.502
7.609066963,0.0157483,-0.03668112,-0.2845888,-0.005812712,-0.003996353,0.9975227,50.7856,-35.66409,-80.81561,1004.503
7.628881931,0.19914,0.0841704,-0.1007709,-0.005315482,-0.005941533,0.99751,50.41436,-35.67529,-81.19423,1004.503
7.648697376,0.1375796,0.02354141,-0.0393363,-0.008685957,-0.009357078,1.001855,50.41436,-35.67529,-81.19423,1004.502
7.668512821,0.07609683,0.1445457,-0.161409,-0.007217109,-0.007875863,1.007164,50.41436,-35.67529,-81.19423,1004.502
7.688328266,0.1370624,0.02332832,-0.03875566,-0.007243896,-0.00838388,0.9984733,50.41518,-35.66687,-80.75088,1004.503
7.708144188,0.2592044,0.1442191,-0.0384087,-0.01063783,-0.009371833,0.9999349,50.41518,-35.66687,-80.75088,1004.503
7.727959156,0.01398496,-0.1585165,-0.03825473,-0.004792619,-0.0112905,0.9994103,50.77351,-34.93672,-81.14524,1004.499
7.750251770,-0.1087328,0.08341226,-0.1603182,-0.01452463,-0.008900356,1.001889,50.77351,-34.93672,-81.14524,1004.499
7.770066738,0.1360127,0.02272812,-0.09886837,-0.009701176,-0.004992681,0.9965734,50.77351,-34.93672,-81.14524,1004.5
7.789882660,0.07441862,0.1435825,-0.2820307,-0.009667921,-0.01034651,0.9975112,49.66177,-34.94987,-81.20441,1004.5
7.809697628,0.07417421,-0.03823996,-0.03696081,-0.004316614,-0.007384384,1.002807,49.66177,-34.94987,-81.20441,1004.499
7.829513550,0.01263919,-0.03846671,-0.0367145,-0.006263593,-0.008862256,0.9999136,50.40285,-34.94191,-81.20718,1004.499
7.849328518,0.2572723,0.08244626,-0.2809266,-0.007710528,-0.006905704,1.006689,50.40285,-34.94191,-81.20718,1004.5
7.869143963,0.1957389,-0.03872912,-0.1582036,-0.008681614,-0.01130946,0.9999142,50.40285,-34.94191,-81.20718,1004.5
7.888959408,0.1342831,0.1427543,-0.1579409,-0.00530673,-0.005446407,1.000891,50.78489,-35.67131,-81.19561,1004.501
7.908774853,0.1337731,0.08207314,0.0870287,-0.01115356,-0.00206228,1.003354,50.78489,-35.67131,-81.19561,1004.501
7.928590298,0.2559811,-0.03913921,-0.09629335,-0.007238932,-0.0054471,1.004763,50.40931,-35.30138,-80.82069,1004.501
7.948405743,0.1944509,0.1422882,-0.09595565,-0.007224266,-0.01130308,0.9994236,50.40931,-35.30138,-80.82069,1004.501
7.968220711,0.3166218,-0.1001388,-0.1567813,-0.002881133,-0.007882507,0.9950733,50.40931,-35.30138,-80.82069,1004.504
7.988036633,-0.05105497,-0.0397355,-0.09514841,-0.009213716,-0.002544995,1.000928,50.40931,-35.30138,-80.82069,1004.504
8.010329247,0.07111422,0.02054762,-0.2171278,-0.008690321,-0.008871326,1.001375,50.40931,-35.30138,-80.82069,1004.504
8.030144215,0.009702131,0.02043897,0.08896085,-0.007262417,-0.004486141,0.9994588,50.77339,-34.93792,-81.20857,1004.504
8.049960136,0.2543042,0.1412041,-0.2778148,-0.002878363,-0.005436166,0.9999127,50.77339,-34.93792,-81.20857,1004.505
8.069775105,0.1316217,0.08041301,-0.09387955,-0.006295231,-0.004973891,0.9970376,50.77339,-34.93792,-81.20857,1004.505
8.089590549,0.1314642,0.1407048,-0.093759,-0.008224174,-0.006438873,0.999454,50.76834,-34.56401,-80.83504,1004.504
8.109405994,0.1923292,0.0798768,-0.03226519,-0.006297956,-0.004486966,0.9970401,50.76834,-34.56401,-80.83504,1004.504
8.129221439,0.008357391,-0.04125419,-0.09317382,-0.007714383,-0.008863948,1.002335,50.40285,-34.94191,-81.20718,1004.499
8.149036884,0.1307265,0.1402926,-0.03171986,-0.008714824,-0.003022372,1.003818,50.40285,-34.94191,-81.20718,1004.499
8.168852329,0.0691264,0.2612128,-0.09255318,-0.01018531,-0.004504758,0.9980267,50.40285,-34.94191,-81.20718,1004.498
8.188668251,0.007546417,0.01890505,-0.1533873,-0.003823217,-0.009821177,1.000861,50.03231,-34.94589,-81.2058,1004.498
8.208483219,0.1298983,0.01880056,-0.1531558,-0.001428704,-0.007879643,0.9931346,50.03231,-34.94589,-81.2058,1004.499
8.228299141,0.007105246,0.1397408,-0.09166642,-0.007713275,-0.007885411,1.004271,50.03231,-34.94589,-81.2058,1004.499
8.248114109,0.1292467,0.1397129,-0.03029304,-0.002863652,-0.008358885,0.9994148,50.03231,-34.94589,-81.2058,1004.5
8.267929077,0.06780412,0.01846972,0.03111828,-0.01015476,-0.007905027,1.001388,50.03231,-34.94589,-81.2058,1004.5
8.290221691,0.06745888,0.07887329,-0.2132164,-0.004805136,-0.007877341,1.001359,50.03302,-34.93867,-80.82578,1004.501
8.310037613,0.1285037,0.01818153,-0.09054811,-0.005808879,-0.003504741,0.9994559,50.03302,-34.93867,-80.82578,1004.501
8.329852581,-0.0553847,0.07840171,-0.1515792,-0.006760314,-0.009361072,0.9960523,50.03807,-35.31258,-81.19932,1004.503
8.349668503,0.06687537,0.07835678,-0.09017066,-0.007711104,-0.008861605,1.0033,50.03807,-35.31258,-81.19932,1004.503
8.369483471,0.005416341,0.1387107,-0.02858991,-0.004335735,-0.006909178,0.9979823,50.03807,-35.31258,-81.19932,1004.502
8.389299393,0.005210474,-0.04275773,-0.2119479,-0.01014437,-0.007408728,1.005252,51.09438,-35.66077,-80.81676,1004.502
8.409114838,0.004870638,-0.04308722,-0.08935978,-0.009204455,-0.004493865,1.000435,51.09438,-35.66077,-80.81676,1004.503
8.428929806,0.1269794,0.0172487,-0.08907778,-0.01064056,-0.008884909,0.9999374,51.09438,-35.66077,-80.81676,1004.503
8.448745728,0.06544644,0.07768013,-0.02776846,-0.005784885,-0.006909698,1.000886,50.7856,-35.66409,-80.81561,1004.502
8.468560696,0.004010215,0.01689647,-0.02746835,-0.01114271,-0.006943243,0.9985021,50.7856,-35.66409,-80.81561,1004.502
8.488376618,0.1262941,0.1379364,-0.271742,-0.006773893,-0.003993184,1.000907,50.4086,-35.3086,-81.20071,1004.498
8.508191586,0.06483964,0.1377801,-0.1490036,-0.009183763,-0.009367798,0.9984789,50.4086,-35.3086,-81.20071,1004.498
8.528007507,0.003308803,-0.1045217,-0.08756314,-0.004304051,-0.007864278,1.0057,50.4086,-35.3086,-81.20071,1004.499
8.550300121,0.002953537,0.07677987,-0.1483825,-0.007237338,-0.008379193,1.000404,50.77985,-35.2974,-80.82208,1004.499
8.570115090,0.1252977,0.07666321,-0.02578104,-0.008237269,-0.004981615,0.9980136,50.77985,-35.2974,-80.82208,1004.498
8.589931011,0.06390338,0.07643278,-0.02546677,-0.007247175,-0.008386224,0.997508,50.40931,-35.30138,-80.82069,1004.498
8.609745979,0.1861329,0.01578522,-0.1475165,-0.008245998,-0.004010109,0.9970532,50.40931,-35.30138,-80.82069,1004.497
8.629561424,0.06344853,0.01553659,-0.08611812,-0.009188082,-0.005948779,1.002841,50.40931,-35.30138,-80.82069,1004.497
8.649376869,0.1244649,0.07585835,-0.02454755,-0.00772914,-0.008874495,0.9979908,50.41506,-35.66808,-80.81422,1004.496
8.669192314,0.1243638,0.1967123,-0.08543715,-0.008706694,-0.007416411,0.9989689,50.41506,-35.66808,-80.81422,1004.496
8.689007759,-0.0596103,0.07553486,-0.08535708,-0.007731288,-0.00643167,1.001382,50.41506,-35.66808,-80.81422,1004.495
8.708823204,0.001407839,-0.1060599,-0.02394201,-0.01212407,-0.004510138,0.9999681,50.41506,-35.66808,-80.81422,1004.495
8.728639126,0.3074179,0.07553554,-0.02380512,-0.008724707,-0.005962668,0.9960805,50.41506,-35.66808,-80.81422,1004.494
8.748454094,0.06203905,0.1358966,-0.2680112,-0.007715515,-0.01130912,0.9979782,50.77914,-35.30462,-81.2021,1004.494
8.768270016,0.1230591,0.1358023,-0.08413886,-0.0106531,-0.006938383,0.9994648,50.77914,-35.30462,-81.2021,1004.495
8.788084984,0.0003792569,0.01443594,-0.08388928,-0.005322018,-0.004479589,0.9980001,50.03877,-35.30537,-80.81931,1004.495
8.807900906,0.0002437532,-0.04624592,-0.1446491,-0.009194086,-0.005464199,1.001878,50.03877,-35.30537,-80.81931,1004.49
8.830192566,-0.06145157,-0.1069698,-0.1443367,-0.008680507,-0.01033093,1.00185,50.03877,-35.30537,-80.81931,1004.49
8.850008488,0.1221148,0.1349698,-0.1439744,-0.007712744,-0.008862777,1.002818,50.41002,-35.29417,-80.44067,1004.491
8.869823456,0.1219812,0.1348589,-0.02136474,-0.01113943,-0.006940899,0.9994674,50.41002,-35.29417,-80.44067,1004.491
8.889639378,0.06042218,-0.1073216,-0.02131099,-0.005788673,-0.004468044,1.003795,50.03807,-35.31258,-81.19932,1004.492
8.909454346,0.06021279,0.01357436,-0.08230472,-0.007718194,-0.007888927,1.002823,50.03807,-35.31258,-81.19932,1004.492
8.929270268,0.1212951,0.07395805,-0.0819829,-0.006288118,-0.004479935,0.9999362,50.03807,-35.31258,-81.19932,1004.494
8.949085713,0.05979554,-0.04723398,-0.08166187,-0.006761885,-0.004962347,1.002832,50.41436,-35.67529,-81.19423,1004.494
8.968901158,-0.001588061,0.07371999,-0.264829,-0.005802366,-0.00643332,0.9965447,50.41436,-35.67529,-81.19423,1004.495
8.988716602,0.1206907,0.07357286,-0.1423,-0.007247684,-0.005942227,1.001382,50.77985,-35.2974,-80.82208,1004.495
9.008532047,0.1817941,0.1338249,-0.2031628,-0.007711636,-0.00788424,1.004753,50.77985,-35.2974,-80.82208,1004.49
9.028347492,0.05906292,-0.108429,-0.1417591,-0.00725318,-0.007901643,0.9965451,50.77985,-35.2974,-80.82208,1004.49
9.048163414,0.05870315,0.01241279,-0.08029843,-0.005320909,-0.003501053,0.999936,50.7856,-35.66409,-80.81561,1004.49
9.067978382,0.1810996,0.01226779,-0.01893432,-0.006288673,-0.004969204,0.9989682,50.7856,-35.66409,-80.81561,1004.49
9.090270996,-0.002996951,-0.1087921,0.04245444,-0.01063945,-0.007906372,1.001873,50.4086,-35.3086,-81.20071,1004.491
9.110086441,-0.003296956,-0.04827211,-0.07959314,-0.005781628,-0.008373987,0.9994307,50.4086,-35.3086,-81.20071,1004.491
9.129901886,0.1188706,-0.04818894,-0.07931656,-0.006762993,-0.005940882,1.000897,50.4086,-35.3086,-81.20071,1004.492
9.149717808,0.05747323,0.07276751,-0.01780135,-0.009648755,-0.007888449,1.007177,50.41506,-35.66808,-80.81422,1004.492
9.169532776,0.1184087,-0.04830761,-0.0176799,-0.01211155,-0.007923297,0.9980196,50.41506,-35.66808,-80.81422,1004.492
9.189348698,0.05701242,0.1331048,-0.01738605,-0.008714315,-0.005466369,0.9999444,50.03373,-34.93146,-80.44576,1004.492
9.209163666,0.1791633,0.3142518,-0.07835126,-0.01504747,-0.002084758,1.00241,50.03373,-34.93146,-80.44576,1004.491
9.228979588,0.05651566,-0.04917656,0.04422794,-0.007242211,-0.005449444,1.003798,50.03373,-34.93146,-80.44576,1004.491
9.248794556,-0.004802026,0.132238,-0.01673838,-0.007240617,-0.008381536,0.9994386,50.4086,-35.3086,-81.20071,1004.494
9.268610478,0.05630898,0.0715453,-0.2610966,-0.005304005,-0.005933331,1.000889,50.4086,-35.3086,-81.20071,1004.494
9.288425446,0.1171704,0.01085302,-0.07718416,-0.006755349,-0.006424292,1.002342,50.03724,-35.321,-81.64268,1004.496
9.308241367,0.1167802,0.1317182,0.1064586,-0.008252002,-0.003525528,0.9960904,50.03724,-35.321,-81.64268,1004.496
9.328056336,0.05534967,0.1920711,-0.1379978,-0.001906236,-0.004453768,1.00136,50.03724,-35.321,-81.64268,1004.495
9.347871780,-0.06729466,0.0709243,-0.0154224,-0.005793591,-0.004471559,1.002347,50.03948,-35.29815,-80.43929,1004.495
9.370164394,0.2387359,0.01024926,-0.137435,-0.008229094,-0.006442389,0.998006,50.03948,-35.29815,-80.43929,1004.494
9.389979839,0.05458993,0.01010961,-0.01472657,-0.01017383,-0.004496555,1.001405,50.7856,-35.66409,-80.81561,1004.494
9.409795284,0.1767468,0.009894244,-0.01461279,-0.00872854,-0.00645428,0.9941474,50.7856,-35.66409,-80.81561,1004.495
9.429610729,0.1765722,0.009812415,-0.1367473,-0.007737869,-0.007902989,0.9970304,50.7856,-35.66409,-80.81561,1004.495
9.449426174,0.1763018,0.00967383,-0.01413674,-0.006265741,-0.006419431,1.003305,51.16189,-36.02681,-80.81051,1004.496
9.469242096,0.05354604,-0.05084413,-0.07509096,-0.008711613,-0.007419926,0.997521,51.16189,-36.02681,-80.81051,1004.496
9.489057064,-0.0691707,0.009587236,-0.1360073,-0.005301856,-0.008376156,0.9974974,51.16189,-36.02681,-80.81051,1004.497
9.508872986,0.114319,0.1304367,-0.07456091,-0.009209374,-0.00449738,0.9989867,50.78489,-35.67131,-81.19561,1004.497
9.528687954,0.1752847,0.06976742,-0.1354786,-0.006286479,-0.004478764,1.000419,50.78489,-35.67131,-81.19561,1004.497
9.548503876,0.05278121,0.1301809,-0.01283268,-0.00820286,-0.00642364,1.005729,50.41424,-35.6765,-81.25757,1004.497
9.568318844,0.113863,0.0693984,-0.1350678,-0.003865778,-0.005451746,0.9955738,50.41424,-35.6765,-81.25757,1004.498
9.588134766,0.1137886,0.008616533,-0.07350871,-0.006773916,-0.005459817,0.9984858,50.41424,-35.6765,-81.25757,1004.498
9.607949734,0.1135798,-0.1126584,-0.07317064,-0.008719257,-0.006936518,0.9960755,50.40202,-34.95033,-81.65054,1004.499
9.630242348,0.05206408,0.06868506,-0.01174393,-0.005300194,-0.006908352,1.000401,50.40202,-34.95033,-81.65054,1004.499
9.650058270,0.1131091,0.06851259,-0.1338666,-0.007748192,-0.00399939,1.000429,50.40931,-35.30138,-80.82069,1004.5
9.669873238,0.2966409,0.1287393,-0.1336074,-0.008689236,-0.009359422,1.00089,50.40931,-35.30138,-80.82069,1004.5
9.689689160,-0.009752154,0.2496125,-0.01104308,-0.008213805,-0.007409207,1.000897,50.40931,-35.30138,-80.82069,1004.499
9.709504128,-0.07105721,0.188834,-0.1332059,-0.007725884,-0.01033878,0.9965352,50.77985,-35.2974,-80.82208,1004.499
9.729320049,0.05128061,0.007144552,-0.1942643,-0.007266273,-0.006444385,0.9951047,50.77985,-35.2974,-80.82208,1004.498
9.749135971,0.173542,-0.1139558,-0.1328061,-0.006283199,-0.00447642,1.001384,50.40931,-35.30138,-80.82069,1004.498
9.768950939,0.2347241,0.1884759,-0.01028225,-0.008250386,-0.004990989,0.9941522,50.40931,-35.30138,-80.82069,1004.497
9.788766384,0.1732857,0.2487433,-0.01019888,-0.005332918,-0.002531891,0.9980102,50.40931,-35.30138,-80.82069,1004.497
9.808581829,0.05055659,-0.05400781,-0.1935838,-0.01015968,-0.007908542,0.9999398,50.77327,-34.93913,-81.27191,1004.493
9.828397751,0.05039117,0.006336637,-0.07083046,-0.009206626,-0.003517672,1.001405,50.77327,-34.93913,-81.27191,1004.493
9.848213196,0.1115557,0.06681439,-0.1317959,-0.005809987,-0.004483277,0.9975202,50.39781,-34.56799,-80.83366,1004.494
9.868028641,-0.01122972,0.1271214,-0.07043692,-0.006266341,-0.009841964,0.9974952,50.39781,-34.56799,-80.83366,1004.494
9.890321255,0.1110959,0.06643951,-0.07021894,-0.01066183,-0.005966877,0.9985045,50.39781,-34.56799,-80.83366,1004.496
9.910136223,0.1109131,-0.1756261,-0.06990826,-0.007731311,-0.007898302,0.9989611,50.03302,-34.93867,-80.82578,1004.496
9.929952145,0.04934353,0.06633398,-0.008512706,-0.005795253,-0.005939364,0.9994433,50.03302,-34.93867,-80.82578,1004.497
9.949767113,0.1716098,0.1266991,-0.3142267,-0.009668429,-0.00790251,1.001385,50.77985,-35.2974,-80.82208,1004.497
9.969583035,0.1713711,0.1869697,-0.130392,-0.004807838,-0.005923784,1.003782,50.77985,-35.2974,-80.82208,1004.503
9.989398479,0.04868533,-0.05537946,-0.130295,-0.007747107,-0.004487486,0.9999442,50.77985,-35.2974,-80.82208,1004.503
10.009213924,0.04844786,0.1864685,-0.130064,-0.003840121,-0.007388898,0.9999079,50.39781,-34.56799,-80.83366,1004.506
10.029029369,-0.01306105,0.1258106,-0.1298909,-0.004835134,-0.003987805,0.9989653,50.39781,-34.56799,-80.83366,1004.506
10.048845291,-0.01318195,0.004697211,-0.1297184,-0.006783754,-0.005466848,0.9955897,50.78056,-35.29018,-80.44206,1004.503
10.068660259,0.04783481,0.004533466,-0.1294887,-0.01016677,-0.006935865,0.9994621,50.78056,-35.29018,-80.44206,1004.503
10.088476181,0.1700664,0.3069146,-0.007069014,-0.004334626,-0.005930641,0.9999181,50.78056,-35.29018,-80.44206,1004.508
10.108291149,0.2311419,0.1251567,-0.06800258,-0.008699582,-0.006922456,1.001868,50.41436,-35.67529,-81.19423,1004.508
10.128107071,0.1696742,-0.2985186,-0.06775507,-0.009210459,-0.004009284,0.9994719,50.41436,-35.67529,-81.19423,1004.508
10.147922039,0.04687742,0.06447139,0.05483595,-0.007735121,-0.006923281,0.9994488,50.41506,-35.66808,-80.81422,1004.508
10.170214653,0.1079592,0.003871668,-0.06727902,-0.01064707,-0.00595633,1.002849,50.41506,-35.66808,-80.81422,1004.507
10.190030575,0.04655083,0.003728952,-0.06693738,-0.01063672,-0.008393297,1.001871,50.41506,-35.66808,-80.81422,1004.507
10.209845543,0.2912909,0.003472731,-0.2502566,-0.004347743,-0.005940015,0.9960567,50.7856,-35.66409,-80.81561,1004.51
10.229661465,0.2297298,0.1850212,-0.06644801,-0.01011823,-0.01325651,1.003291,50.7856,-35.66409,-80.81561,1004.51
10.249476433,0.0457027,0.06364527,-0.1273668,-0.009196834,-0.006443907,0.9994593,50.77902,-35.30582,-81.26543,1004.51
10.269292355,0.1068022,0.002934787,-0.1883438,-0.007255327,-0.005458818,0.9999365,50.77902,-35.30582,-81.26543,1004.51
10.289108276,0.1066494,0.002794538,-0.004575573,-0.007229694,-0.008862603,1.00185,50.77902,-35.30582,-81.26543,1004.507
10.308923245,0.04514811,0.1841547,-0.06551539,-0.008236738,-0.005958979,0.9965605,51.14464,-34.92672,-80.82995,1004.507
10.328739166,0.2287543,0.002401404,-0.06521662,-0.007740594,-0.007416064,0.9970329,51.14464,-34.92672,-80.82995,1004.508
10.348554134,0.04480639,0.1234588,-0.003871314,-0.01115746,-0.006953788,0.9941581,50.41494,-35.66928,-80.87755,1004.508
10.368370056,0.04477068,-0.1186361,-0.0648129,-0.003373976,-0.004956447,0.997987,50.41494,-35.66928,-80.87755,1004.507
10.388185024,0.04471597,0.002269261,-0.0646311,-0.007261841,-0.002530241,1.002848,50.41494,-35.66928,-80.87755,1004.507
10.408000946,0.1059332,-0.1189519,-0.1255545,-0.007746021,-0.004975582,0.9994589,50.78056,-35.29018,-80.44206,1004.507
10.430293560,0.1057878,0.123055,-0.1864968,-0.009177736,-0.008385746,1.001863,50.78056,-35.29018,-80.44206,1004.507
10.450108528,0.1667942,-0.05869711,0.0583142,-0.007252602,-0.005945742,0.999934,50.40356,-34.93469,-80.82717,1004.506
10.469924450,0.04394698,0.06236168,-0.002687462,-0.007749855,-0.005467194,0.9975258,50.40356,-34.93469,-80.82717,1004.506
10.489739418,-0.01751212,0.1226798,-0.002584711,-0.00871644,-0.001556912,1.005757,50.40356,-34.93469,-80.82717,1004.505
10.509555340,-0.07879772,0.06203001,-0.002347797,-0.008724153,-0.0054734,0.9970483,50.40919,-35.30259,-80.88403,1004.505
10.529371262,0.04336742,0.1225199,-0.06323557,-0.006264656,-0.006907527,1.00282,50.40919,-35.30259,-80.88403,1004.508
10.549186230,0.1044344,0.06173774,0.05932485,-0.008677758,-0.00935122,1.004268,50.7748,-34.92349,-80.44854,1004.508
10.569002152,0.1654634,0.001146004,-0.06282273,-0.006253224,-0.00983259,1.001356,50.7748,-34.92349,-80.44854,1004.507
10.588817120,0.2265505,0.1220356,-0.1238274,-0.007718725,-0.006911563,1.004276,50.7748,-34.92349,-80.44854,1004.507
10.608633042,0.1038223,0.06133052,-0.3070999,-0.00628761,-0.006923933,0.9960622,50.77985,-35.2974,-80.82208,1004.509
10.628448010,-0.1413529,-0.05984888,-0.1232063,-0.01063619,-0.009370661,1.000417,50.77985,-35.2974,-80.82208,1004.509
10.648263931,-0.01901159,0.0612508,-0.1230889,-0.008700689,-0.007900991,0.9999319,50.77985,-35.2974,-80.82208,1004.51
10.668079376,-0.01909834,0.06109716,-0.06159818,-0.00630396,-0.004002385,0.9960773,50.03877,-35.30537,-80.81931,1004.51
10.687894821,0.2255375,-0.1206134,-0.06150116,-0.009683186,-0.007913057,0.997041,50.03877,-35.30537,-80.81931,1004.511
10.710187435,0.531164,-0.3622097,-0.1224707,-0.01115968,-0.008910861,0.9902866,50.40273,-34.94311,-81.27052,1004.511
10.730003357,1.875506,-2.174478,-0.1222208,-0.006265832,-0.01228596,0.9936212,50.40273,-34.94311,-81.27052,1004.511
10.749818325,-0.02534442,0.006759297,0.0002573878,-0.008224129,-0.003505608,1.004296,50.40273,-34.94311,-81.27052,1004.511
10.769634247,-0.02560753,0.06714098,-0.1218569,-0.006777727,-0.004484796,0.9989734,50.40931,-35.30138,-80.82069,1004.512
10.789449215,0.09684677,0.3088332,-0.06044607,-0.007715469,-0.008375851,1.00282,50.40931,-35.30138,-80.82069,1004.512
10.809265137,0.0353701,0.1266718,0.0007721558,-0.005794168,-0.006427461,0.9989581,50.03948,-35.29815,-80.43929,1004.513
10.829080105,0.09618798,0.005651318,-0.1213627,-0.003381065,-0.003983769,0.9975095,50.03948,-35.29815,-80.43929,1004.513
10.848896027,0.2182405,-0.1151414,-0.1212308,-0.007268975,-0.004490828,0.9975281,50.03948,-35.29815,-80.43929,1004.514
10.868711949,0.2176926,-0.1150233,-0.1210224,-0.007288651,-0.004504889,0.9917361,50.40273,-34.94311,-81.27052,1004.514
10.888526917,0.03371478,-0.1147346,-0.1208339,-0.005786547,-0.008377502,0.9979827,50.40273,-34.94311,-81.27052,1004.51
10.908342838,0.03338031,-0.05393388,0.06293768,-0.007249323,-0.005943399,1.000899,50.40849,-35.3098,-81.26405,1004.51
10.928157807,0.09435698,0.006524343,0.001809202,-0.004826405,-0.004959309,0.9999258,50.40849,-35.3098,-81.26405,1004.513
10.947973728,0.09398562,0.00662192,-0.1814331,-0.003366332,-0.005439855,0.9994326,50.40849,-35.3098,-81.26405,1004.513
10.970266342,0.1547423,-0.05404247,-0.1200654,-0.007732927,-0.006432842,1.000899,50.77902,-35.30582,-81.26543,1004.513
10.990081310,0.09331246,0.06700464,-0.05865904,-0.009674965,-0.006440565,1.001875,50.77902,-35.30582,-81.26543,1004.513
11.009897232,-0.02933107,0.006456662,-0.1195975,-0.009217549,-0.003036607,0.9989942,50.0437,-35.68048,-81.25618,1004.516
11.029713154,-0.09060618,0.006459527,0.1253142,-0.004344441,-0.00447104,0.9994429,50.0437,-35.68048,-81.25618,1004.516
11.049528122,0.2768683,-0.114544,-0.2415336,-0.003865178,-0.002029214,1.001384,50.0437,-35.68048,-81.25618,1004.518
11.069344044,0.2154203,0.1274525,-0.05765104,-0.002859265,-0.007378005,1.002316,50.0437,-35.68048,-81.25618,1004.518
11.089159012,-0.0909996,-0.05440552,-0.05744874,-0.007731311,-0.007898302,0.9989611,50.0437,-35.68048,-81.25618,1004.517
11.108974934,0.03140751,-0.05453478,-0.1797253,-0.006801744,-0.002546472,0.9951221,51.14534,-34.91951,-80.44993,1004.517
11.128789902,-0.02990477,-0.05460676,-0.1180732,-0.009696257,-0.004989166,0.9980215,51.14534,-34.91951,-80.44993,1004.517
11.148605824,0.09252197,0.06644186,-0.1178343,-0.007232927,-0.005931681,1.005726,51.14534,-34.91951,-80.44993,1004.517
11.168421745,-0.03008107,-0.1151682,-0.05647204,-0.006760822,-0.006917075,0.9999263,50.41002,-35.29417,-80.44067,1004.518
11.188236713,0.09221146,0.005880442,-0.05638787,-0.004318807,-0.007874824,1.001356,50.41002,-35.29417,-80.44067,1004.518
11.208052635,0.2756419,0.1873468,0.004954509,-0.004830769,-0.004473557,0.9994456,49.66823,-35.30935,-80.81792,1004.518
11.227868080,0.09163401,0.1872182,-0.2394198,-0.008236183,-0.005469711,0.9975284,49.66823,-35.30935,-80.81792,1004.518
11.250160217,-0.03093794,0.2471073,-0.1780227,-0.009231774,-0.004024518,0.9931971,49.66823,-35.30935,-80.81792,1004.518
11.269976139,-0.09222826,0.004569098,0.06684359,-0.006285924,-0.003989496,1.001387,50.40919,-35.30259,-80.88403,1004.518
11.289792061,0.03010503,0.06488034,-0.1164853,-0.0072493,-0.004476767,1.00332,50.40919,-35.30259,-80.88403,1004.514
11.309607029,0.09132056,-0.1772193,-0.05520318,-0.007236783,-0.007889926,1.001372,50.77327,-34.93913,-81.27191,1004.514
11.329422951,0.0911682,-0.1165276,-0.2385903,-0.001911663,-0.002013287,1.003786,50.77327,-34.93913,-81.27191,1004.517
11.349237919,0.1524034,0.004429564,-0.116012,-0.00435317,-0.003499534,0.9984826,50.77327,-34.93913,-81.27191,1004.517
11.369053841,0.02974604,0.1857666,0.06755543,-0.006267449,-0.0108205,0.9955593,50.0329,-34.93988,-80.88911,1004.517
11.388869763,0.02947915,-0.0564657,-0.1157176,-0.004822594,-0.00593433,0.999438,50.0329,-34.93988,-80.88911,1004.517
11.408684731,0.2745119,0.1246445,0.006782718,-0.00193732,-7.613492E-05,0.9994523,50.40919,-35.30259,-80.88403,1004.516
11.428500652,0.02952302,0.1847873,-0.2376729,-0.003371782,-0.004466006,0.9994376,50.40919,-35.30259,-80.88403,1004.516
11.448315621,-0.09292191,0.1239436,0.06846732,-0.008230155,-0.004487659,1.000912,50.40919,-35.30259,-80.88403,1004.514
11.468131542,0.02945153,0.06310071,-0.0537223,-0.0106607,-0.003521708,1.002861,50.40849,-35.3098,-81.26405,1004.514
11.487946510,0.02939682,0.06273334,0.007536687,-0.004349869,-0.002030559,1.001869,50.40849,-35.3098,-81.26405,1004.515
11.510240078,0.02952512,0.3645499,0.007688135,-0.004366773,0.0004017204,1.000916,50.03948,-35.29815,-80.43929,1004.515
11.530055046,-0.2762933,-0.2413213,1.047546,0.1509828,-0.2125696,0.9951105,50.03948,-35.29815,-80.43929,1004.515
11.549870968,0.1524282,-0.2405807,-31.91937,0.01569231,0.06868741,1.005501,50.03948,-35.29815,-80.43929,1004.515
11.569685936,-0.03127223,0.2435209,-6.47579,0.06829414,-0.03574729,0.9984019,50.77398,-34.93191,-80.89189,1004.516
11.589501858,0.1524282,0.5460844,-13.20366,0.07715274,-0.05175995,1.002615,50.77398,-34.93191,-80.89189,1004.516
11.609317780,-0.7048404,1.151212,-11.61344,-0.03282871,-0.04993515,0.986333,50.03361,-34.93266,-80.5091,1004.515
11.629132748,-1.745809,1.998389,2.759741,0.0742176,-0.03076582,1.032183,50.03361,-34.93266,-80.5091,1004.515
11.648948670,0.1524282,-0.4826315,-2.133255,0.03366818,0.01044785,1.046614,50.03361,-34.93266,-80.5091,1004.516
11.668763638,0.519829,-0.7246823,-0.7265186,-0.02378757,0.008635008,1.024233,50.02786,-34.56596,-80.51559,1004.516
11.688579559,-0.5823734,0.7276225,-1.949768,0.04516514,-0.02823767,0.9314749,50.02786,-34.56596,-80.51559,1004.517
11.708395481,-0.3374396,-0.3616061,-0.1760565,0.09019446,0.08820551,1.06408,50.02786,-34.56596,-80.51559,1004.517
11.728210449,-0.8885408,1.635313,1.658817,-0.01506945,-0.04463233,0.9259282,49.27777,-33.88602,-79.70132,1004.517
11.748026371,-0.4599065,1.030186,-0.6041937,0.07029708,-0.01956325,1.041915,49.27777,-33.88602,-79.70132,1004.517
11.767841339,-0.2762061,-1.329809,0.435568,0.08863816,0.0107428,1.050659,48.60829,-34.57281,-80.06691,1004.518
11.790133953,-2.664311,2.421978,0.7413803,0.05107538,0.0795413,0.9879868,48.60829,-34.57281,-80.06691,1004.518
11.809949875,0.3361286,-1.208784,-1.888605,-0.04724837,0.0064751,0.9867016,46.39376,-34.93333,-78.46869,1004.517
11.829765320,-1.194708,1.877364,0.1297558,0.06227439,-0.009998616,0.9869829,46.39376,-34.93333,-78.46869,1004.517
11.849580765,1.438331,-2.661089,-1.032331,0.0656269,-0.04291627,1.060163,46.39376,-34.93333,-78.46869,1004.516
11.869396210,-0.3374396,0.5460844,0.3132431,0.03384408,-0.02951394,1.03241,44.96903,-34.56747,-77.70982,1004.516
11.889211655,-2.235677,2.966593,-0.6041937,-0.03144226,-0.040202,0.981066,44.96903,-34.56747,-77.70982,1004.518
11.909027577,-1.562109,1.998389,3.677178,0.04055783,-0.01488035,1.028587,44.96903,-34.56747,-77.70982,1004.518
11.928843022,-2.051977,1.816851,1.597655,0.1069908,-0.06174981,1.036188,43.18762,-34.91493,-75.66986,1004.516
11.948658467,-0.2762061,-0.180068,-4.885566,0.05201028,-0.07427412,1.008912,43.18762,-34.91493,-75.66986,1004.516
11.968474388,-0.1537392,-0.180068,-5.98649,0.08326751,-0.04112035,0.9591955,41.34938,-35.63816,-74.06655,1004.512
11.988289833,0.1524282,-0.180068,-1.093493,0.09963524,-0.06036428,1.02079,41.34938,-35.63816,-74.06655,1004.512
12.008105278,1.254631,-2.116474,0.1909182,0.07657595,-0.03471659,1.004154,41.34938,-35.63816,-74.06655,1004.513
12.027920723,-0.3374396,0.001470119,-1.643955,-0.03059508,0.04428822,1.08334,40.68381,-36.356,-72.84766,1004.513
12.050213337,-0.2762061,0.5460844,-1.215818,-0.03743299,0.06344187,0.9637719,40.68381,-36.356,-72.84766,1004.514
12.070029259,1.193397,-2.842627,1.23068,0.07971066,0.02069595,1.158879,40.32101,-36.63549,-71.25747,1004.514
12.089844227,0.4585955,-0.9667332,-3.906966,0.01237264,-0.01158856,1.040825,40.32101,-36.63549,-71.25747,1004.513
12.109660149,0.1524282,-0.05904258,1.108355,0.001871397,0.03899522,1.039695,40.32101,-36.63549,-71.25747,1004.513
12.129475117,-0.2762061,2.179927,3.187879,0.01210511,-0.02937915,0.933098,39.95201,-36.62384,-70.43271,1004.512
12.149291039,-0.52114,3.995308,0.3132431,0.00345598,-0.1135794,0.9679484,39.95201,-36.62384,-70.43271,1004.512
12.169106960,-0.9497743,2.543004,2.637416,-0.02504967,-0.01714204,1.039554,39.21164,-36.62459,-70.04991,1004.511
12.188921928,-0.7660738,0.848648,-0.6041937,-0.0237106,0.04354376,0.961664,39.21164,-36.62459,-70.04991,1004.511
12.208737850,0.2748951,0.1224955,-4.335104,0.009318235,-0.03370041,0.9644652,39.21164,-36.62459,-70.04991,1004.513
12.228553772,0.7035294,-1.269297,-0.7265186,0.05466567,0.0150169,1.078862,39.21739,-36.99128,-70.04343,1004.513
12.248368740,0.2748951,-0.5431442,4.839265,-0.01582428,0.05099218,1.004617,39.21739,-36.99128,-70.04343,1004.514
12.268184662,-0.9497743,0.6671098,-2.377905,-0.0428878,0.006486034,0.981851,39.22314,-37.35798,-70.03696,1004.514
12.287999630,0.519829,-1.208784,4.166478,0.06585624,-0.04994162,0.9732432,39.22314,-37.35798,-70.03696,1004.511
12.310292721,-1.562109,0.9091607,-0.2983814,-0.03178485,0.0001295349,0.9470048,39.22314,-37.35798,-70.03696,1004.511
12.330108166,-0.5823734,0.1224955,5.267402,0.04598558,-0.01675232,1.048338,38.47478,-37.01488,-70.86403,1004.514
12.349924088,-1.378409,2.724542,2.148117,0.01245119,-0.05650865,0.9899129,38.47478,-37.01488,-70.86403,1004.514
12.369739056,0.2748951,-1.208784,1.353005,-0.006466577,0.006981635,1.109081,37.41764,-36.67511,-71.68995,1004.509
12.389554978,-0.2762061,-0.2405807,2.943229,-0.009080401,0.07053604,1.017713,37.41764,-36.67511,-71.68995,1004.509
12.409370422,-3.092946,4.721461,-4.640916,-0.02201766,0.04616287,1.034552,37.41764,-36.67511,-71.68995,1004.508
12.429185867,0.9484633,-1.753398,-1.705118,0.03029587,0.03455165,0.9531167,36.67106,-36.38472,-72.07259,1004.508
12.449001789,-0.8273073,1.514288,-4.151616,0.0222085,-0.119012,0.8958988,36.67106,-36.38472,-72.07259,1004.508
12.468817234,1.499565,-0.4826315,1.536492,-0.03625094,0.03279762,0.9747096,35.25322,-36.72842,-73.26526,1004.508
12.488632679,0.2136617,-0.4221188,4.533453,0.05364448,-0.04354365,0.8256433,35.25322,-36.72842,-73.26526,1004.511
12.508448124,-1.439642,0.001470119,-1.888605,0.05924084,-0.1021481,0.9440506,35.25322,-36.72842,-73.26526,1004.511
12.528264046,-0.398673,-1.208784,0.6190554,0.04612648,-0.05869462,1.020609,34.50089,-36.07132,-73.65438,1004.508
12.548079491,-0.398673,0.6065971,-1.338143,0.03252711,-0.07048526,1.006625,34.50089,-36.07132,-73.65438,1004.508
12.567894936,-2.603078,4.47941,4.900427,0.08455019,-0.06680396,1.007807,32.70267,-35.73951,-74.47752,1004.508
12.590187550,1.499565,-2.419038,0.3744056,0.09717309,-0.01933342,1.079418,32.70267,-35.73951,-74.47752,1004.508
12.610003472,-0.6436069,5.084537,0.6802179,-0.004917532,0.004264133,0.9883893,32.70267,-35.73951,-74.47752,1004.509
12.629818440,1.193397,1.937876,-1.338143,0.0149115,-0.0006003499,0.9477108,31.57885,-35.02529,-74.86633,1004.509
12.649634361,1.928199,0.9696734,1.353005,0.01570931,-0.1134485,0.9958773,31.57885,-35.02529,-74.86633,1004.51
12.669450283,0.2136617,-0.05904258,-10.14554,-0.003887153,-0.04457678,0.924902,30.14624,-34.31438,-75.25399,1004.51
12.689265251,0.6422959,-1.813911,1.96463,-0.05024698,0.06276648,0.9131574,30.14624,-34.31438,-75.25399,1004.51
12.709081173,-0.2762061,-0.180068,0.8637053,0.03178208,-0.01249689,1.026234,30.14624,-34.31438,-75.25399,1004.51
12.728897095,-0.1537392,0.7881352,1.536492,0.02374282,0.05620943,1.063797,27.91823,-34.0327,-75.25106,1004.509
12.748712063,2.111899,-2.782114,-5.007891,0.04255252,-0.003102066,1.062424,27.91823,-34.0327,-75.25106,1004.509
12.768527985,0.8259963,-1.753398,-0.1760565,-0.01592339,-0.03673057,0.9737586,25.00265,-33.34615,-76.07652,1004.508
12.788343907,-0.03127223,1.756338,-2.74488,0.03862674,0.0268177,0.9588234,25.00265,-33.34615,-76.07652,1004.508
12.808158875,0.3361286,-0.7851951,5.756702,-0.07385815,-0.02485228,0.9760675,25.00265,-33.34615,-76.07652,1004.507
12.827974796,0.2136617,-1.692886,-11.73576,0.05500538,-0.06980404,1.038845,24.31828,-32.97954,-75.70043,1004.507
12.850266934,0.3973621,-1.087759,6.429489,0.01387562,0.04628115,1.006361,24.31828,-32.97954,-75.70043,1004.508
12.870082855,-0.8885408,2.785054,3.432528,0.02683251,-0.0424049,0.951775,22.16327,-33.36225,-75.30583,1004.508
12.889898300,-0.2762061,0.5460844,-9.105775,0.07329591,-0.02193473,1.061676,22.16327,-33.36225,-75.30583,1004.505
12.909713745,0.8259963,-1.390322,7.897388,0.01779986,0.02823704,0.9864573,22.16327,-33.36225,-75.30583,1004.505
12.929529667,-0.7048404,0.2435209,7.775063,-0.02766969,-0.001012664,0.8682998,20.66891,-32.652,-75.69326,1004.506
12.949344635,-0.03127223,0.1830082,3.126716,0.09419084,-0.07610362,0.9671615,20.66891,-32.652,-75.69326,1004.506
12.969160557,0.0911947,1.514288,17.68338,-0.04818782,-0.001817025,0.9828027,20.66891,-32.652,-75.69326,1004.506
12.988976479,-0.5823734,0.7276225,-4.702078,-0.01948079,0.02914013,1.037347,18.86226,-31.55554,-74.88261,1004.506
13.008791447,-1.255942,0.1830082,6.735301,-0.01989928,0.003908569,0.8731094,18.86226,-31.55554,-74.88261,1004.507
13.028607368,0.02996124,-0.180068,1.047193,0.01626404,-0.03258938,1.006426,16.69095,-30.89928,-74.50639,1004.507
13.048423290,-0.52114,1.937876,-0.6041937,0.008106697,-0.001610607,0.9472602,16.69095,-30.89928,-74.50639,1004.506
13.068238258,0.3973621,-0.3616061,-13.87645,-0.04102786,-0.0008979936,0.9446368,16.69095,-30.89928,-74.50639,1004.506
13.088054180,0.519829,-0.8457077,4.349965,-0.04551119,0.007659218,1.070202,14.47418,-31.28265,-74.11156,1004.505
13.107870102,0.9484633,0.2435209,-10.26786,0.007873107,-0.02601992,1.123796,14.47418,-31.28265,-74.11156,1004.505
13.130162239,1.377097,-2.176987,10.95551,0.04157945,-0.1049366,1.03729,14.08863,-30.16369,-72.92622,1004.506
13.149977684,-1.194708,2.543004,2.759741,-0.003139111,0.02615416,0.9754598,14.08863,-30.16369,-72.92622,1004.506
13.169793606,-0.7048404,0.6671098,-9.2281,-0.01965866,-0.02686222,1.035613,14.08863,-30.16369,-72.92622,1004.508
13.189609051,7.990312,-17.12362,5.389727,0.05763518,0.02582402,1.111723,12.29923,-30.16731,-72.09614,1004.508
13.209424496,-1.990743,0.9091607,8.570175,0.04396452,-0.07205904,0.9351178,12.29923,-30.16731,-72.09614,1004.505
13.229239941,0.6422959,-0.180068,-2.25558,-0.006477165,-0.04142427,1.026295,10.4975,-29.44595,-71.72237,1004.505
13.249055862,-0.1537392,-0.1195553,8.509012,-0.08719642,0.140803,1.045532,10.4975,-29.44595,-71.72237,1004.505
13.268871784,0.3973621,-1.632373,9.609937,-0.1193174,0.01434751,0.9736217,10.4975,-29.44595,-71.72237,1004.505
13.288686752,1.438331,-0.8457077,4.594615,0.01674713,0.005053974,1.067434,9.011842,-29.07234,-70.51991,1004.505
13.308502674,-2.786778,0.7276225,2.453929,-0.02481753,0.01445549,1.017029,9.011842,-29.07234,-70.51991,1004.505
13.328318596,-2.480611,2.119415,2.331604,-0.03845517,-0.03402791,0.9314201,8.321979,-28.40736,-70.52924,1004.503
13.348133564,-0.4599065,-0.4221188,-1.460468,-0.02314468,-0.00479518,0.9054219,8.321979,-28.40736,-70.52924,1004.503
13.367949486,-0.3374396,-2.2375,-4.090454,0.0105763,0.04472814,1.17724,8.321979,-28.40736,-70.52924,1004.506
13.390242100,-0.52114,4.842486,2.759741,-0.06940284,0.01810329,1.212294,7.206853,-28.02976,-69.32817,1004.506
13.410058022,0.02996124,-1.995449,6.429489,0.00789311,-0.07034916,0.9140862,7.206853,-28.02976,-69.32817,1004.507
13.429872990,-0.1537392,-0.3010934,-2.316743,-0.0009551875,-0.02353019,0.9636082,6.078694,-26.93441,-68.96342,1004.507
13.449688912,0.02996124,-3.387241,7.285763,-0.07367857,-0.003702428,1.06354,6.078694,-26.93441,-68.96342,1004.509
13.469504356,0.2748951,-0.4826315,-8.861125,0.01303934,-0.005446852,0.9612112,6.078694,-26.93441,-68.96342,1004.509
13.489320278,0.1524282,-1.329809,-11.6746,-0.1006361,0.02680843,1.052743,5.019826,-26.25778,-68.148,1004.504
13.509135723,1.132164,0.1224955,-4.029291,0.06278742,-0.01535461,0.9859872,5.019826,-26.25778,-68.148,1004.504
13.528951168,0.1524282,-0.6641696,3.432528,0.1242537,-0.0002364053,1.06537,3.903876,-25.8886,-67.39028,1004.505
13.548767090,0.6422959,-1.269297,3.065554,-0.04084088,0.0383454,1.064059,3.903876,-25.8886,-67.39028,1004.505
13.568582058,-1.317175,1.151212,3.004391,-0.02891423,-0.02740986,1.030351,3.903876,-25.8886,-67.39028,1004.505
13.588397980,0.7647629,-1.329809,4.411128,0.1041671,-0.08125243,1.031759,2.85402,-25.89989,-67.38634,1004.505
13.608213902,0.5810624,-1.511347,-0.9711685,-0.05845409,0.01178041,0.9896864,2.85402,-25.89989,-67.38634,1004.506
13.628028870,-0.03127223,-0.9667332,0.435568,0.01636658,-0.08091442,0.9569439,2.8383,-24.78417,-66.58241,1004.506
13.647844792,0.8259963,-1.329809,-0.5430312,0.02600776,-0.02030499,1.031535,2.8383,-24.78417,-66.58241,1004.505
13.670137406,0.2136617,-0.9062204,1.108355,0.02919982,-0.03266086,0.948916,2.8383,-24.78417,-66.58241,1004.505
13.689953327,-0.3374396,0.2435209,2.515092,-0.06133286,0.07241347,1.10103,2.46847,-24.78093,-66.20101,1004.504
13.709768772,1.438331,-2.116474,1.842305,0.06059399,-0.05528446,0.9901382,2.46847,-24.78093,-66.20101,1004.504
13.729584217,-0.2149726,0.425059,-4.029291,-0.08128455,0.02683646,1.022711,1.715893,-24.05551,-66.2112,1004.505
13.749400139,-0.52114,1.453775,5.022752,0.02273907,-0.01030443,0.9452047,1.715893,-24.05551,-66.2112,1004.505
13.769215584,-0.1537392,0.3040336,-6.292302,0.001821245,0.01207141,0.9806697,1.715893,-24.05551,-66.2112,1004.502
13.789031029,-1.745809,2.482491,0.4967305,-0.01596398,-0.05108069,1.08084,1.341137,-23.67716,-65.39291,1004.502
13.808846474,-1.500875,2.785054,1.353005,-0.1365317,0.01593328,1.062537,1.341137,-23.67716,-65.39291,1004.504
13.828662396,-1.317175,1.877364,5.389727,-0.02114916,0.02507196,0.9692779,0.965807,-23.37556,-65.39693,1004.504
13.848478317,1.377097,-1.874424,1.658817,-0.03560213,0.04318257,1.039438,0.965807,-23.37556,-65.39693,1004.505
13.868293286,1.377097,-2.116474,3.677178,-0.03497283,0.02910998,1.058187,0.965807,-23.37556,-65.39693,1004.505
13.888109207,-0.09250569,-0.2405807,-0.3595439,0.004466297,-0.006340625,1.0129,0.9600563,-23.00887,-65.4034,1004.504
13.907925129,1.805732,-1.027246,-1.154656,-0.03474061,-0.04957628,1.139354,0.9600563,-23.00887,-65.4034,1004.504
13.930217743,0.2748951,0.06198282,1.47533,-0.01987396,0.01013818,1.03339,1.327084,-22.61533,-64.20789,1004.499
13.950033188,-1.255942,1.090699,-0.6041937,-0.01699757,-0.02800846,0.9583637,1.327084,-22.61533,-64.20789,1004.499
13.969848633,-0.4599065,0.2435209,-0.910006,0.04777024,-0.01539045,1.003446,1.327084,-22.61533,-64.20789,1004.498
13.989664078,-0.09250569,-0.05904258,0.4967305,0.07164797,-0.01229988,1.022155,0.2764006,-22.63504,-64.64731,1004.498
14.009480000,-0.09250569,0.1224955,-1.154656,-0.04134642,-0.001758353,0.9924192,0.2764006,-22.63504,-64.64731,1004.498
14.029295444,-0.52114,0.9091607,0.1297558,0.0009959219,-0.002494484,0.9999065,0.2706499,-22.26834,-64.65379,1004.498
14.049110889,-1.500875,1.514288,-0.9711685,-0.06853031,-0.01946256,0.9784794,0.2706499,-22.26834,-64.65379,1004.499
14.068926811,0.5810624,-0.3616061,-0.6041937,0.03796954,-0.001316463,1.00502,0.2706499,-22.26834,-64.65379,1004.499
14.088742733,0.1524282,-0.05904258,-0.4818688,0.02778664,-0.003792222,1.009889,-0.8458891,-21.90518,-64.21275,1004.497
14.108557701,-0.398673,0.425059,-0.4207063,-0.005312157,-0.003005926,1.003317,-0.8458891,-21.90518,-64.21275,1004.497
14.128373623,-0.1537392,0.4855717,-0.6041937,0.01555377,0.01124655,1.01293,-0.8458891,-21.90518,-64.21275,1004.5
14.148189545,-0.4599065,0.6065971,-1.338143,-0.0504698,-0.007100238,1.018024,0.2714758,-22.25992,-64.21043,1004.5
14.168004513,-0.2149726,0.1830082,-0.05373161,0.03018275,-0.004782781,0.9978043,0.2714758,-22.25992,-64.21043,1004.501
14.187820435,-0.1537392,0.3040336,0.1909182,-0.02184302,-0.005043885,1.001466,-0.1105642,-21.53052,-64.22201,1004.501
14.210113049,0.0911947,0.06198282,-0.1760565,-0.007717662,-0.008866292,1.001369,-0.1105642,-21.53052,-64.22201,1004.501
14.229928494,0.02996124,0.1224955,-0.237219,-0.009171223,-0.01131432,0.9989514,-0.1105642,-21.53052,-64.22201,1004.501
14.249744415,-0.09250569,0.4855717,-0.237219,0.002973963,-0.006860878,1.002287,-0.1056385,-21.90563,-64.65888,1004.502
14.269560337,0.1524282,0.1830082,0.6190554,-0.02720088,-0.008010695,0.9942405,-0.1056385,-21.90563,-64.65888,1004.502
14.289375305,-0.1537392,0.3040336,-0.787681,-0.005217888,-0.02102682,1.001293,0.2657251,-21.89323,-64.21691,1004.503
14.309191227,-0.2149726,0.3040336,0.06859331,-0.01398597,-0.01766014,1.002807,0.2657251,-21.89323,-64.21691,1004.503
14.329007149,-0.398673,0.6671098,0.06859331,-0.02128752,-0.02063584,0.9960739,0.2657251,-21.89323,-64.21691,1004.499
14.348822117,-0.3374396,0.3040336,-0.8488435,-0.02031608,-0.02894251,0.9820282,0.2664328,-21.88601,-63.8369,1004.499
14.368638039,0.02996124,0.1224955,0.1297558,-0.02767296,-0.005558668,1.002461,0.2664328,-21.88601,-63.8369,1004.502
14.388453961,0.2136617,-0.2405807,0.1297558,-0.03984327,-0.009052326,0.9933388,-0.09988785,-22.27233,-64.6524,1004.502
14.408269405,0.02996124,0.3040336,-0.1760565,-0.0159869,-0.008910251,1.000932,-0.09988785,-22.27233,-64.6524,1004.503
14.428084850,-0.09250569,-0.05904258,-0.237219,-0.01258587,-0.008894975,0.999948,-0.09988785,-22.27233,-64.6524,1004.503
14.447900772,-0.03127223,0.3040336,-0.1760565,-0.008219833,-0.008391257,0.9975133,-0.1049309,-21.89841,-64.27886,1004.505
14.470192909,-0.03127223,0.1224955,-0.237219,-0.006757012,-0.007892096,0.9994385,-0.1049309,-21.89841,-64.27886,1004.505
14.490008831,0.02996124,0.001470119,-0.1148941,0.001546013,-0.01417933,0.9993608,0.2664328,-21.88601,-63.8369,1004.506
14.509824753,-0.1537392,0.001470119,-0.05373161,-0.00285386,-0.01128512,0.9974691,0.2664328,-21.88601,-63.8369,1004.506
14.529639721,0.02996124,-0.180068,-0.05373161,-0.004329754,-0.008860392,0.9965242,0.2664328,-21.88601,-63.8369,1004.506
14.549455643,-0.1537392,0.001470119,-0.237219,-0.001875174,-0.01029803,1.000848,-0.1098566,-21.5233,-63.84199,1004.506
14.569271565,0.1524282,-0.05904258,-0.1148941,-0.007264657,-0.007909846,0.9931664,-0.1098566,-21.5233,-63.84199,1004.503
14.589087486,0.02996124,0.001470119,-0.05373161,-0.0004369696,-0.01128308,0.9931117,0.2771082,-22.62782,-64.26729,1004.503
14.608902455,-0.03127223,-0.05904258,-0.1760565,-0.0004074569,-0.01126199,1.0018,0.2771082,-22.62782,-64.26729,1004.505
14.628718376,0.02996124,0.1224955,-0.05373161,-0.005263638,-0.0107932,1.004725,0.2771082,-22.62782,-64.26729,1004.505
14.648533821,-0.03127223,-0.05904258,-0.1148941,-0.007226923,-0.006416263,1.006689,-0.1106825,-21.53172,-64.28534,1004.506
14.668349743,0.2136617,0.06198282,-0.1148941,-0.0009194198,-0.007860721,0.9998895,-0.1106825,-21.53172,-64.28534,1004.506
14.688165188,0.0911947,0.001470119,-0.1148941,-0.002365891,-0.01128143,0.9979491,0.2598553,-21.52774,-64.28673,1004.507
14.707980633,-0.03127223,0.1224955,-0.1148941,-0.004829684,-0.004961654,0.9989603,0.2598553,-21.52774,-64.28673,1004.507
14.730273247,-0.03127223,-0.05904258,0.007430851,0.001038968,-0.01077454,0.9988983,0.2598553,-21.52774,-64.28673,1004.506
14.750089169,-0.03127223,0.2435209,0.007430851,-0.007725284,-0.00691625,1.002345,-0.1049309,-21.89841,-64.27886,1004.506
14.769905091,0.0911947,0.1224955,0.007430851,-0.005774516,-0.007880031,1.002329,-0.1049309,-21.89841,-64.27886,1004.501
14.789720535,0.0911947,0.06198282,-0.1148941,-0.005750499,-0.009818356,1.006181,0.2656069,-21.89443,-64.28025,1004.501
14.809535980,0.02996124,0.1830082,-0.1148941,-0.001900832,-0.008360882,0.9965135,0.2656069,-21.89443,-64.28025,1004.505
14.829351425,-0.09250569,0.06198282,-0.1148941,-0.002831991,-0.01078062,1.004712,0.2656069,-21.89443,-64.28025,1004.505
14.849167347,-0.03127223,0.06198282,-0.05373161,-0.001875706,-0.00932067,1.002301,-0.8575096,-21.17299,-64.28904,1004.502
14.868983269,-0.03127223,0.001470119,-0.1760565,-0.002352752,-0.009805424,1.004231,-0.8575096,-21.17299,-64.28904,1004.502
14.888798237,0.02996124,-0.1195553,-0.05373161,-0.002859287,-0.008844638,0.999895,-0.1106825,-21.53172,-64.28534,1004.503
14.908614159,0.02996124,0.06198282,-0.1148941,-0.003860351,-0.007892228,0.9931479,-0.1106825,-21.53172,-64.28534,1004.503
14.928430081,0.0911947,0.06198282,-0.05373161,-0.002369702,-0.01030641,0.9984368,-0.1106825,-21.53172,-64.28534,1004.504
14.948246002,0.1524282,-0.1195553,-0.1760565,-0.005295298,-0.008371469,0.9994281,-0.1049309,-21.89841,-64.27886,1004.504
14.968060971,0.0911947,0.06198282,-0.05373161,-0.001399768,-0.009814451,0.998434,-0.1049309,-21.89841,-64.27886,1004.508
14.987876892,0.02996124,0.001470119,-0.05373161,-0.006766295,-0.007409859,0.9975104,-0.1106825,-21.53172,-64.28534,1004.508
15.010169029,0.02996124,0.06198282,-0.1148941,-0.004838436,-0.00545678,0.9955791,-0.1106825,-21.53172,-64.28534,1004.511
15.029984951,0.0911947,0.06198282,0.007430851,-0.002860395,-0.009823174,0.9979593,-0.1106825,-21.53172,-64.28534,1004.511
15.049800873,0.02996124,-0.1195553,-0.1148941,-0.006759183,-0.006915904,1.000409,-0.1049309,-21.89841,-64.27886,1004.51
15.069616795,0.1524282,0.06198282,-0.05373161,-0.008225237,-0.004484144,1.00236,-0.1049309,-21.89841,-64.27886,1004.51
15.089431763,0.2136617,-0.05904258,0.007430851,-0.004843864,-0.003016299,0.998005,0.2656069,-21.89443,-64.28025,1004.511
15.109247685,-0.4599065,0.7881352,7.041113,0.00221915,-0.0560863,0.9851442,0.2656069,-21.89443,-64.28025,1004.511
15.129063606,0.519829,-0.180068,3.677178,-0.00978988,0.01938752,1.010697,0.2656069,-21.89443,-64.28025,1004.513
15.148879051,-1.562109,1.453775,6.796463,0.03416954,0.1034906,1.061569,0.2664328,-21.88601,-63.8369,1004.513
15.168694973,-0.6436069,0.9091607,-7.943688,-0.03341487,-0.1137062,0.9946969,0.2664328,-21.88601,-63.8369,1004.512
15.188510418,-0.2149726,0.2435209,-0.1760565,-0.004835248,-0.01132097,0.9868608,0.2664328,-21.88601,-63.8369,1004.512
15.208325863,0.1524282,0.06198282,0.06859331,5.162181E-05,-0.006390227,1.001822,0.2656069,-21.89443,-64.28025,1004.513
15.228141785,0.0911947,0.001470119,-0.1148941,-0.002852729,-0.008839952,1.001826,0.2656069,-21.89443,-64.28025,1004.513
15.247957707,-0.03127223,0.1224955,0.007430851,0.001524789,-0.008328031,1.00277,0.6296854,-21.53097,-64.66814,1004.513
15.270250320,0.02996124,0.001470119,-0.05373161,-0.003345085,-0.009824519,0.9984446,0.6296854,-21.53097,-64.66814,1004.513
15.290065765,0.0911947,0.1830082,-0.1148941,-0.005782736,-0.009352523,0.9974951,0.6361446,-21.89045,-64.28164,1004.51
15.309881210,0.1524282,0.2435209,0.007430851,-0.0009194198,-0.007860721,0.9998895,0.6361446,-21.89045,-64.28164,1004.51
15.329696655,-0.03127223,-0.1195553,0.007430851,-0.002845085,-0.00932336,1.003271,0.6361446,-21.89045,-64.28164,1004.509
15.349512577,0.02996124,-0.05904258,-0.1148941,-0.00383518,-0.005918751,1.003777,0.2606812,-21.51932,-63.84338,1004.509
15.369328499,-0.03127223,0.1224955,-0.05373161,-0.0004058171,-0.01126082,1.002283,0.2606812,-21.51932,-63.84338,1004.508
15.389144421,0.0911947,0.06198282,-0.05373161,-0.004806267,-0.01032251,0.9970019,0.2606812,-21.51932,-63.84338,1004.508
15.408959389,0.02996124,0.06198282,-0.1148941,-0.006744472,-0.009838622,0.9999112,0.6361446,-21.89045,-64.28164,1004.511
15.428775311,0.02996124,0.1830082,-0.1148941,-0.004799109,-0.00689529,1.004742,0.6361446,-21.89045,-64.28164,1004.511
15.448591232,0.02996124,0.06198282,-0.1148941,-0.007732419,-0.008876838,0.9970254,-0.1056385,-21.90563,-64.65888,1004.511
15.468406677,-0.09250569,0.06198282,-0.05373161,0.001021002,-0.006387537,1.000852,-0.1056385,-21.90563,-64.65888,1004.511
15.488222122,0.0911947,0.06198282,-0.1760565,0.0005564496,-0.01175208,0.9984134,-0.1056385,-21.90563,-64.65888,1004.514
15.508038044,0.02996124,-0.05904258,0.06859331,-0.005766941,-0.01276334,0.996512,0.2598553,-21.52774,-64.28673,1004.514
15.527853489,-0.03127223,0.2435209,0.007430851,-0.00236804,-0.008838606,1.00134,0.2598553,-21.52774,-64.28673,1004.513
15.550146103,0.0911947,0.06198282,-0.237219,-0.001413947,-0.007869096,0.9974787,-0.8509331,-21.53127,-63.83921,1004.513
15.569962025,0.02996124,0.3040336,0.007430851,-0.002362567,-0.008345822,1.003756,-0.8509331,-21.53127,-63.83921,1004.513
15.589777947,-0.03127223,-0.05904258,0.007430851,-0.00725154,-0.007900471,0.9970278,-0.8509331,-21.53127,-63.83921,1004.513
15.609593392,-0.03127223,0.001470119,-0.1148941,-0.00576417,-0.010317,1.001351,-0.1106825,-21.53172,-64.28534,1004.512
15.629408837,0.02996124,-0.1195553,-0.05373161,-0.004794789,-0.01031431,1.000381,-0.1106825,-21.53172,-64.28534,1004.512
15.649224758,-0.03127223,0.06198282,0.007430851,-0.0008910608,-0.01175143,1.0018,0.6361446,-21.89045,-64.28164,1004.513
15.669040203,-0.03127223,0.001470119,-0.05373161,-0.006745026,-0.01032789,0.9989432,0.6361446,-21.89045,-64.28164,1004.513
15.688856125,0.2136617,0.1830082,-0.1760565,-0.003822663,-0.00933191,1.001829,0.6361446,-21.89045,-64.28164,1004.512
15.708672047,-0.03127223,0.1830082,0.06859331,-0.003851599,-0.007397101,0.9965291,-0.1164331,-21.16502,-64.29182,1004.512
15.728487015,0.1524282,0.06198282,0.007430851,-0.003827005,-0.007379524,1.003769,-0.1164331,-21.16502,-64.29182,1004.513
15.748302937,-0.03127223,0.06198282,-0.1760565,-0.002878363,-0.005436166,0.9999127,-0.09988785,-22.27233,-64.6524,1004.513
15.768118859,0.0911947,0.001470119,-0.1760565,-0.001385543,-0.008826541,1.004231,-0.09988785,-22.27233,-64.6524,1004.514
15.787934303,0.0911947,0.06198282,-0.1760565,-0.00527343,-0.007866967,1.006671,-0.09988785,-22.27233,-64.6524,1004.514
15.810226917,0.02996124,0.06198282,-0.1760565,-0.006743941,-0.01081599,0.9984581,-0.1049309,-21.89841,-64.27886,1004.514
15.830042839,0.1524282,0.06198282,-0.05373161,-0.003340721,-0.01031027,0.9989247,-0.1049309,-21.89841,-64.27886,1004.514
15.849858761,0.02996124,0.1830082,-0.1148941,-0.00189044,-0.007864583,1.000377,0.2606812,-21.51932,-63.84338,1004.513
15.869673729,0.0911947,0.1830082,-0.05373161,-0.004312272,-0.00933677,1.000866,0.2606812,-21.51932,-63.84338,1004.513
15.889489651,0.1524282,0.1224955,-0.2983814,-0.003843955,-0.00788051,0.9979746,0.2606812,-21.51932,-63.84338,1004.513
15.909305573,0.1524282,0.001470119,-0.1760565,-0.008714338,-0.006933002,0.9975235,0.2713575,-22.26113,-64.27377,1004.513
15.929121018,0.0911947,0.06198282,0.06859331,-0.001403579,-0.008839431,0.9989216,0.2713575,-22.26113,-64.27377,1004.514
15.948936939,0.1524282,-0.1195553,-0.1148941,-0.003860328,-0.006425596,0.9955688,0.2656069,-21.89443,-64.28025,1004.514
15.968752384,0.02996124,0.001470119,-0.05373161,-0.002881688,-0.008371774,0.9941055,0.2656069,-21.89443,-64.28025,1004.515
15.988567829,0.02996124,0.06198282,0.007430851,-0.006271237,-0.008378847,0.9984681,0.2656069,-21.89443,-64.28025,1004.515
16.008383751,-0.03127223,0.1224955,-0.05373161,-0.0008883358,-0.01223836,1.001798,0.6361446,-21.89045,-64.28164,1004.516
16.028199673,0.0911947,0.06198282,0.007430851,0.001987102,-0.006387191,0.9989157,0.6361446,-21.89045,-64.28164,1004.516
16.048015594,0.0911947,0.1224955,-0.1760565,-0.001411754,-0.007378657,0.9989291,0.2648993,-21.90165,-64.66027,1004.516
16.067830563,-0.09250569,0.001470119,-0.237219,-0.004308993,-0.009334426,1.001831,0.2648993,-21.90165,-64.66027,1004.516
16.090123653,0.1524282,0.06198282,-0.1148941,-0.006760268,-0.006427808,1.000894,0.2648993,-21.90165,-64.66027,1004.513
16.109939575,0.0911947,0.001470119,-0.05373161,-0.002387161,-0.008363399,0.9965161,0.2591476,-21.53495,-64.66675,1004.513
16.129754543,-0.09250569,0.1830082,-0.05373161,0.002023659,-0.01027204,1.00324,0.2591476,-21.53495,-64.66675,1004.515
16.149570465,-0.03127223,-0.05904258,0.06859331,-0.00625976,-0.008370643,1.001847,-0.1106825,-21.53172,-64.28534,1004.515
16.169386387,0.02996124,0.1224955,0.007430851,-0.003345062,-0.008357886,1.000866,-0.1106825,-21.53172,-64.28534,1004.516
16.189201832,-0.03127223,0.1224955,-0.05373161,-0.004337374,-0.006910349,0.9974996,-0.1106825,-21.53172,-64.28534,1004.516
16.209017754,0.0911947,0.06198282,0.06859331,-0.004317168,-0.007873653,1.001839,-0.851759,-21.53968,-64.28256,1004.517
16.228833199,0.02996124,-0.05904258,-0.05373161,-0.004816613,-0.007885544,0.9979799,-0.851759,-21.53968,-64.28256,1004.517
16.248648644,0.0911947,-0.1195553,-0.1148941,-0.001892102,-0.009332388,0.9974738,0.9449263,-21.88713,-64.28279,1004.518
16.268464565,-0.03127223,0.1830082,-0.1148941,-0.002863652,-0.008358885,0.9994148,0.9449263,-21.88713,-64.28279,1004.518
16.288280487,-0.09250569,0.1224955,0.007430851,-0.006284331,-0.006921589,0.9970275,0.9449263,-21.88713,-64.28279,1004.52
16.308096409,0.02996124,0.06198282,0.06859331,-0.003826496,-0.009823521,0.9998953,0.6361446,-21.89045,-64.28164,1004.52
16.327911854,-0.03127223,0.1224955,-0.05373161,-0.003804164,-0.01469628,0.9984221,0.6361446,-21.89045,-64.28164,1004.517
16.350204468,0.0911947,-0.1195553,0.007430851,-0.001896998,-0.007869271,0.9984468,-0.1049309,-21.89841,-64.27886,1004.517
16.370020390,0.1524282,-0.05904258,-0.05373161,-0.007241725,-0.009360073,0.997503,-0.1049309,-21.89841,-64.27886,1004.514
16.389835358,0.0911947,0.1224955,-0.1148941,-0.0004363244,-0.004927283,1.003763,-0.1049309,-21.89841,-64.27886,1004.514
16.409651280,0.1524282,0.1224955,-0.05373161,-0.008677227,-0.01032858,1.002815,0.2598553,-21.52774,-64.28673,1004.515
16.429467201,0.0911947,0.06198282,-0.1148941,-0.004807907,-0.01032368,0.9965193,0.2598553,-21.52774,-64.28673,1004.515
16.449283123,-0.03127223,0.001470119,0.06859331,-0.006745026,-0.01032789,0.9989432,0.2598553,-21.52774,-64.28673,1004.517
16.469098568,0.2136617,0.06198282,-0.1148941,-0.007730248,-0.009853031,0.9960551,-0.1049309,-21.89841,-64.27886,1004.517
16.488914490,-0.03127223,-0.05904258,0.007430851,6.741821E-05,-0.009801042,1.000839,-0.1049309,-21.89841,-64.27886,1004.518
16.508729458,0.0911947,0.001470119,-0.05373161,-0.00331728,-0.0142045,0.9993873,-0.1099749,-21.5245,-63.90533,1004.518
16.528545380,0.02996124,0.001470119,0.007430851,-0.0009041324,-0.00882754,1.00278,-0.1099749,-21.5245,-63.90533,1004.513
16.548361302,0.02996124,0.06198282,-0.1760565,-0.003815596,-0.01177122,0.9998853,-0.1099749,-21.5245,-63.90533,1004.513
16.568177223,0.02996124,0.001470119,0.007430851,-0.006292483,-0.003994183,0.999456,-0.4819279,-21.54292,-64.66397,1004.513
16.587993145,0.02996124,0.1224955,0.1909182,-0.004331878,-0.004950934,1.002337,-0.4819279,-21.54292,-64.66397,1004.513
16.607808590,0.02996124,-0.1195553,0.007430851,-0.004321001,-0.008365263,0.9999055,-0.1157255,-21.15781,-63.9118,1004.512
16.630101204,0.02996124,0.1830082,-0.1148941,6.194506E-05,-0.01029383,0.9984236,-0.1157255,-21.15781,-63.9118,1004.512
16.649917126,0.02996124,-0.05904258,-0.1148941,-0.002852198,-0.009817315,1.000373,-0.1157255,-21.15781,-63.9118,1004.509
16.669733048,0.02996124,0.001470119,-0.05373161,-0.005267471,-0.01128481,1.002792,-0.09988785,-22.27233,-64.6524,1004.509
16.689548016,-0.09250569,0.06198282,-0.05373161,-0.004781142,-0.0112823,1.002789,-0.09988785,-22.27233,-64.6524,1004.51
16.709363938,0.1524282,0.1224955,-0.05373161,0.0005335636,-0.00736859,0.9989186,0.6368523,-21.88323,-63.90162,1004.51
16.729179382,0.0911947,0.06198282,0.007430851,-0.004323195,-0.008855704,0.998455,0.6368523,-21.88323,-63.90162,1004.509
16.748995304,0.02996124,0.06198282,-0.1148941,-0.00042383,-0.009807074,0.9993941,0.6368523,-21.88323,-63.90162,1004.509
16.768811226,-0.03127223,0.06198282,0.06859331,-0.005298577,-0.008373813,0.9984628,-0.1049309,-21.89841,-64.27886,1004.51
16.788627148,-0.09250569,-0.1195553,0.06859331,-0.004308461,-0.01031179,1.000378,-0.1049309,-21.89841,-64.27886,1004.51
16.808442116,0.0911947,0.1224955,-0.1148941,-0.001884458,-0.009815797,0.9989192,-0.8468332,-21.9148,-64.71944,1004.51
16.828258038,0.02996124,-0.05904258,-0.05373161,-0.003840144,-0.008855531,0.9974869,-0.8468332,-21.9148,-64.71944,1004.51
16.848073960,0.0911947,-0.05904258,-0.1148941,-0.001397552,-0.007857379,1.002306,-0.8468332,-21.9148,-64.71944,1004.505
16.867889404,0.0911947,-0.05904258,-0.05373161,-0.002369656,-0.007373145,1.003279,-0.4754686,-21.9024,-64.27747,1004.505
16.890182018,0.0911947,0.2435209,0.007430851,-0.004782204,-0.009327569,1.005695,-0.4754686,-21.9024,-64.27747,1004.506
16.909997940,0.1524282,0.2435209,-0.1148941,-0.007229186,-0.0113066,0.9979755,-0.4812202,-21.5357,-64.28395,1004.506
16.929813862,0.0911947,-0.05904258,-0.1148941,-0.0004113128,-0.01322023,0.9974458,-0.4812202,-21.5357,-64.28395,1004.505
16.949629307,-0.03127223,0.1830082,-0.1148941,-0.007234612,-0.008866118,1.000401,-0.4812202,-21.5357,-64.28395,1004.505
16.969445229,-0.03127223,0.1830082,-0.1148941,-0.003351044,-0.006406673,1.002324,-0.1099749,-21.5245,-63.90533,1004.504
16.989261150,0.1524282,-0.05904258,-0.237219,-0.003858134,-0.005935155,0.9970193,-0.1099749,-21.5245,-63.90533,1004.504
17.009076118,-0.03127223,0.06198282,-0.05373161,-0.001862103,-0.01322192,0.9998671,0.2548122,-21.15382,-63.91319,1004.505
17.028892040,-0.03127223,0.425059,0.06859331,-0.002840189,-0.01078648,1.002298,0.2548122,-21.15382,-63.91319,1004.505
17.048707962,-0.7660738,0.9091607,-0.05373161,-0.001381732,-0.009801562,1.003743,0.2548122,-21.15382,-63.91319,1004.505
17.068523884,-0.5823734,0.848648,-0.1148941,-0.004327029,-0.009347316,0.9965217,0.2663145,-21.88721,-63.90023,1004.505
17.088339329,-0.03127223,0.1224955,0.06859331,-0.001901917,-0.007872786,0.9969987,0.2663145,-21.88721,-63.90023,1004.504
17.108155251,-0.2149726,0.1830082,-0.05373161,-0.005278925,-0.009826384,1.001834,-0.1165514,-21.16623,-64.35516,1004.504
17.127971172,-0.3374396,0.5460844,-0.2983814,-0.006734635,-0.009831592,1.002807,-0.1165514,-21.16623,-64.35516,1004.505
17.150263786,-0.52114,0.848648,-0.1148941,-0.002382196,-0.005426618,1.002806,-0.1165514,-21.16623,-64.35516,1004.505
17.170079231,-0.3374396,0.4855717,-0.1148941,-0.005739068,-0.01274342,1.004717,0.264781,-21.90285,-64.7236,1004.502
17.189895153,-0.2149726,0.1224955,-0.1760565,9.850203E-05,-0.01417867,1.002747,0.264781,-21.90285,-64.7236,1004.502
17.209710598,-0.1537392,0.2435209,-0.1148941,-0.006733549,-0.01031969,1.002322,-0.474761,-21.89518,-63.89746,1004.502
17.229526043,-0.1537392,0.3040336,-0.05373161,-0.004293196,-0.01274524,1.000848,-0.474761,-21.89518,-63.89746,1004.502
17.249341965,-0.2149726,0.425059,-0.05373161,-0.005782182,-0.008863255,0.9984629,-0.474761,-21.89518,-63.89746,1004.505
17.269157887,-0.1537392,0.3040336,-0.237219,-0.01063947,-0.009373005,0.9994522,-0.4820461,-21.54412,-64.72731,1004.505
17.288973808,-0.03127223,0.1830082,-0.05373161,-0.002355499,-0.01078513,1.001813,-0.4820461,-21.54412,-64.72731,1004.507
17.308789253,-0.09250569,0.3040336,-0.1760565,-0.007719879,-0.01082336,0.9974981,-0.1106825,-21.53172,-64.28534,1004.507
17.328605175,-0.03127223,0.06198282,0.1297558,-0.001869148,-0.009315982,1.004231,-0.1106825,-21.53172,-64.28534,1004.51
17.348421097,0.1524282,0.1830082,0.06859331,-0.005294236,-0.0103262,0.9965219,-0.1106825,-21.53172,-64.28534,1004.51
17.368236065,0.1524282,0.1830082,-0.1148941,-0.008184915,-0.01227728,1.001354,0.6295671,-21.53217,-64.73147,1004.509
17.388051987,0.0911947,0.3040336,-0.237219,-0.004788231,-0.01030962,1.002311,0.6295671,-21.53217,-64.73147,1004.509
17.407867909,0.1524282,0.001470119,-0.05373161,-0.006732486,-0.01227442,0.9994159,0.6295671,-21.53217,-64.73147,1004.507
17.430160046,0.2136617,-0.1195553,-0.1148941,-0.005781628,-0.008373987,0.9994307,0.264781,-21.90285,-64.7236,1004.507
17.449975968,0.0911947,0.1830082,-0.1148941,-0.007718816,-0.01277809,0.9945919,0.264781,-21.90285,-64.7236,1004.509
17.469791889,0.02996124,-0.05904258,-0.1760565,-0.009148845,-0.01325382,1.00232,-0.4820461,-21.54412,-64.72731,1004.509
17.489607811,-0.09250569,0.1830082,0.007430851,-0.004288832,-0.013231,1.001328,-0.4820461,-21.54412,-64.72731,1004.51
17.509423733,0.02996124,0.2435209,-0.1760565,-0.007224266,-0.01130308,0.9994236,-0.1106825,-21.53172,-64.28534,1004.51
17.529239178,-0.03127223,0.2435209,-0.1760565,-0.002377345,-0.009823,0.9969912,-0.1106825,-21.53172,-64.28534,1004.513
17.549055100,-0.09250569,0.1830082,-0.05373161,-0.005735811,-0.01420771,1.003262,-0.1106825,-21.53172,-64.28534,1004.513
17.568871021,0.02996124,0.001470119,-0.1760565,-0.002372958,-0.008842121,0.9998924,-0.1049309,-21.89841,-64.27886,1004.513
17.588686943,-0.1537392,0.06198282,-0.05373161,-0.004795298,-0.007870311,1.004255,-0.1049309,-21.89841,-64.27886,1004.513
17.608501911,-0.03127223,0.06198282,0.1297558,-0.00625812,-0.008369472,1.002329,-0.1049309,-21.89841,-64.27886,1004.514
17.628317833,0.1524282,-0.3010934,-0.1148941,-0.003341229,-0.007866275,1.002799,0.2548122,-21.15382,-63.91319,1004.514
17.648133755,-0.09250569,0.1830082,0.007430851,-0.004312848,-0.01129267,0.997477,0.2548122,-21.15382,-63.91319,1004.512
17.667949200,0.2748951,0.06198282,0.007430851,-0.003830307,-0.0088485,1.000383,-0.1157255,-21.15781,-63.9118,1004.512
17.690241814,-0.09250569,0.1830082,0.007430851,-0.006751031,-0.009843309,0.9979804,-0.1157255,-21.15781,-63.9118,1004.515
17.710057736,-0.09250569,0.2435209,0.007430851,-0.004303565,-0.01177491,0.9994051,-0.1157255,-21.15781,-63.9118,1004.515
17.729873657,-0.09250569,0.1830082,0.06859331,-0.00479315,-0.01031314,1.000863,-0.1115084,-21.54014,-64.7287,1004.517
17.749689102,-0.09250569,0.2435209,0.1297558,-0.002361503,-0.01030055,1.00085,-0.1115084,-21.54014,-64.7287,1004.517
17.769505024,0.0911947,0.3645464,0.007430851,-0.00576089,-0.01031465,1.002317,-0.1115084,-21.54014,-64.7287,1004.52
17.789320946,0.0911947,0.4855717,-0.1760565,-0.007223204,-0.01325781,0.9965174,-0.1115084,-21.54014,-64.7287,1004.52
17.809136868,-0.09250569,0.3645464,-0.05373161,-0.007243387,-0.01082788,0.9945993,-0.1115084,-21.54014,-64.7287,1004.522
17.828952313,0.2748951,0.2435209,0.06859331,-0.00770189,-0.01374374,0.9979656,0.2663145,-21.88721,-63.90023,1004.522
17.848767758,0.1524282,0.001470119,-0.1760565,-0.006264724,-0.01130742,0.9955568,0.2663145,-21.88721,-63.90023,1004.519
17.868583203,0.02996124,0.06198282,-0.1760565,-0.009678313,-0.01084281,0.9936473,0.6302748,-21.52496,-64.35146,1004.519
17.888399124,0.1524282,0.1224955,0.007430851,-0.008216508,-0.005455649,1.003321,0.6302748,-21.52496,-64.35146,1004.521
17.908215046,7.07181,1.453775,0.1297558,0.02159215,0.05527609,1.287284,0.6302748,-21.52496,-64.35146,1004.521
17.928030968,0.2136617,0.1224955,-0.05373161,-0.001881156,-0.00834682,1.002306,-0.09918022,-22.26511,-64.27238,1004.52
17.947846890,0.2748951,0.1830082,0.007430851,-0.005755463,-0.01275514,0.9998908,-0.09918022,-22.26511,-64.27238,1004.52
17.970139027,0.2136617,0.1224955,0.06859331,-0.009173948,-0.0108274,0.9989539,0.2590294,-21.53616,-64.73008,1004.522
17.989954948,0.3361286,0.1224955,-0.1148941,-0.004289386,-0.01372026,1.00036,0.2590294,-21.53616,-64.73008,1004.522
18.009770870,0.4585955,0.1830082,0.007430851,-0.00381996,-0.01128547,0.999405,0.2590294,-21.53616,-64.73008,1004.517
18.029586792,0.5810624,0.1830082,-0.05373161,-0.007236252,-0.00886729,0.9999189,0.6295671,-21.53217,-64.73147,1004.517
18.049402237,0.0911947,0.1830082,-0.1148941,-0.005806199,-0.006924931,0.9946115,0.6295671,-21.53217,-64.73147,1004.518
18.069218159,0.2136617,0.1224955,0.007430851,-0.005777818,-0.009349008,0.998943,-0.1099749,-21.5245,-63.90533,1004.518
18.089034081,0.2136617,0.001470119,-0.05373161,-0.008707779,-0.006928315,0.9994541,-0.1099749,-21.5245,-63.90533,1004.517
18.108850002,0.2136617,0.06198282,-0.05373161,-0.009157575,-0.01228231,1.00136,-0.1099749,-21.5245,-63.90533,1004.517
18.128665447,0.2136617,-0.1195553,-0.05373161,-0.002850558,-0.009816144,1.000855,0.2719469,-22.25511,-63.95709,1004.518
18.148480892,0.3361286,0.001470119,-0.1760565,-0.004790425,-0.01080006,1.000861,0.2719469,-22.25511,-63.95709,1004.518
18.168296814,0.2748951,0.1224955,-0.237219,-0.007718748,-0.008378195,1.001855,0.630393,-21.52375,-64.28812,1004.52
18.188112259,0.1524282,0.1224955,0.007430851,-0.004347789,-0.008873281,0.9912148,0.630393,-21.52375,-64.28812,1004.52
18.207928181,0.0911947,0.1224955,0.007430851,-0.005288231,-0.01081078,0.9974849,0.630393,-21.52375,-64.28812,1004.521
18.230221272,0.1524282,0.1224955,-0.1148941,-0.004790956,-0.009822696,1.002314,0.2605629,-21.52052,-63.90671,1004.521
18.250036717,0.2748951,0.001470119,-0.237219,-0.00919464,-0.005953467,1.00091,0.2605629,-21.52052,-63.90671,1004.522
18.269852161,0.2748951,-0.05904258,0.1297558,-0.007716069,-0.01179838,0.9970103,0.6410694,-22.26556,-64.71851,1004.522
18.289668083,0.2136617,-0.2405807,-0.05373161,-0.007720388,-0.008379367,1.001372,0.6410694,-22.26556,-64.71851,1004.521
18.309484005,0.02996124,0.001470119,-0.1760565,-0.005276754,-0.01080258,1.000864,0.6410694,-22.26556,-64.71851,1004.521
18.329299927,0.0911947,0.1224955,0.1297558,-0.01016079,-0.008887079,0.998004,0.259737,-21.52894,-64.35007,1004.521
18.349115372,-0.03127223,0.06198282,-0.05373161,-0.004780588,-0.01079303,1.003757,0.259737,-21.52894,-64.35007,1004.521
18.368931294,0.02996124,0.001470119,-0.05373161,-0.007236807,-0.009356558,0.9989509,0.6245241,-21.15826,-64.35793,1004.522
18.388747215,0.2136617,0.06198282,-0.1148941,-0.009637877,-0.01130278,1.004746,0.6245241,-21.15826,-64.35793,1004.522
18.408563137,0.2136617,-0.05904258,-0.1148941,-0.006765232,-0.009364588,0.9946042,0.6245241,-21.15826,-64.35793,1004.523
18.428378582,0.2748951,-0.05904258,-0.05373161,-0.009182632,-0.006922629,1.002836,-0.1165514,-21.16623,-64.35516,1004.523
18.448194504,0.2136617,0.001470119,-0.05373161,-0.006744472,-0.009838622,0.9999112,-0.1165514,-21.16623,-64.35516,1004.522
18.468010426,0.02996124,0.1830082,-0.05373161,-0.009642819,-0.01277293,1.000877,0.2539864,-21.16224,-64.35654,1004.522
18.487825394,0.0911947,0.1224955,0.007430851,-0.01067767,-0.005489327,0.9946455,0.2539864,-21.16224,-64.35654,1004.524
18.510118485,0.0911947,0.2435209,0.06859331,-0.003341229,-0.007866275,1.002799,0.2539864,-21.16224,-64.35654,1004.524
18.529934406,0.1524282,0.001470119,-0.1148941,-0.009186465,-0.00741424,1.000902,-0.1057568,-21.90683,-64.72221,1004.523
18.549750328,0.1524282,0.06198282,-0.1760565,-0.006242278,-0.008847023,1.006188,-0.1057568,-21.90683,-64.72221,1004.523
18.569566250,0.0911947,-0.180068,-0.05373161,-0.008706694,-0.007416411,0.9989689,-0.1108007,-21.53292,-64.34868,1004.526
18.589381695,0.2136617,-0.1195553,-0.05373161,-0.007704037,-0.01130091,1.001357,-0.1108007,-21.53292,-64.34868,1004.526
18.609197140,0.2748951,0.1224955,-0.1148941,-0.007742256,-0.008883869,0.9941295,-0.1108007,-21.53292,-64.34868,1004.522
18.629013062,0.02996124,-0.1195553,-0.05373161,-0.007229694,-0.008862603,1.00185,-0.1108007,-21.53292,-64.34868,1004.522
18.648828507,0.1524282,0.1224955,0.007430851,-0.01162795,-0.007433855,0.9980195,-0.1108007,-21.53292,-64.34868,1004.523
18.668644428,0.2136617,-0.180068,-0.237219,-0.009155381,-0.01179187,1.00281,-0.1108007,-21.53292,-64.34868,1004.523
18.688460350,0.02996124,0.1830082,-0.05373161,-0.004822063,-0.006911695,0.9979849,0.259737,-21.52894,-64.35007,1004.523
18.708276272,0.1524282,0.06198282,-0.1148941,-0.008675057,-0.01130478,1.001845,0.259737,-21.52894,-64.35007,1004.523
18.728091717,-0.03127223,0.2435209,-0.05373161,-0.004331947,-0.009350831,0.9950737,0.6375599,-21.87601,-63.52161,1004.525
18.747907639,0.2748951,-0.3010934,-0.1148941,-0.001380692,-0.01322292,0.9984164,0.6375599,-21.87601,-63.52161,1004.525
18.770200253,0.1524282,0.1830082,0.007430851,-0.008202352,-0.008867636,1.001855,0.6375599,-21.87601,-63.52161,1004.525
18.790016175,0.2136617,0.2435209,-0.1760565,-0.008701821,-0.01034616,0.9955751,0.2654886,-21.89563,-64.34359,1004.525
18.809831619,-0.09250569,0.1224955,-0.05373161,-0.008223644,-0.007416237,0.998001,0.2654886,-21.89563,-64.34359,1004.522
18.829647541,1.622031,0.1224955,-0.2983814,-0.05226691,0.04007116,0.9965553,-0.09425545,-22.64022,-64.70925,1004.522
18.849463463,0.0911947,0.001470119,-0.05373161,-0.008219855,-0.00985789,0.9950924,-0.09425545,-22.64022,-64.70925,1004.522
18.869279385,0.0911947,-0.1195553,-0.05373161,-0.007236829,-0.01082319,0.99653,-0.09425545,-22.64022,-64.70925,1004.522
18.889095307,0.2136617,0.2435209,0.1297558,-0.007249369,-0.008876665,0.9960575,0.2604446,-21.52172,-63.97005,1004.523
18.908910752,0.1524282,0.1830082,-0.1148941,-0.006763016,-0.007407515,0.9984757,0.2604446,-21.52172,-63.97005,1004.523
18.928726673,0.02996124,-0.180068,-0.05373161,-0.007219348,-0.01129957,1.000872,-0.1043415,-21.8924,-63.96218,1004.525
18.948542595,0.0911947,-0.05904258,-0.1760565,-0.009681546,-0.007911884,0.9975238,-0.1043415,-21.8924,-63.96218,1004.525
18.968358517,0.0911947,-0.180068,-0.1760565,-0.006764125,-0.008386051,0.99654,-0.1043415,-21.8924,-63.96218,1004.522
18.988173962,-0.03127223,-0.05904258,-0.1148941,-0.005780588,-0.01179535,0.9941038,0.2712393,-22.26233,-64.3371,1004.522
19.007989883,0.02996124,0.001470119,0.06859331,-0.007695885,-0.01422832,0.9989284,0.2712393,-22.26233,-64.3371,1004.523
19.027805805,0.02996124,0.3040336,0.007430851,-0.01453664,-0.007931193,0.9999636,0.2539864,-21.16224,-64.35654,1004.523
19.050098419,0.0911947,0.06198282,0.007430851,-0.008712167,-0.007909195,0.9965531,0.2539864,-21.16224,-64.35654,1004.525
19.069913864,-0.03127223,0.001470119,-0.1148941,-0.009201753,-0.006447422,0.9980113,0.2539864,-21.16224,-64.35654,1004.525
19.089729786,0.0911947,0.1830082,-0.1760565,-0.007222119,-0.01374591,0.9960323,-0.4806309,-21.52969,-63.96727,1004.526
19.109545708,0.0911947,0.06198282,-0.1148941,-0.01014876,-0.008389607,1.002351,-0.4806309,-21.52969,-63.96727,1004.526
19.129361630,0.0911947,-0.1195553,0.007430851,-0.008216577,-0.009855547,0.9960577,0.6302748,-21.52496,-64.35146,1004.525
19.149177074,0.1524282,0.1830082,-0.237219,-0.006252738,-0.01374322,0.9950616,0.6302748,-21.52496,-64.35146,1004.525
19.168992996,0.02996124,0.06198282,-0.1760565,-0.007723113,-0.007892443,1.001374,0.6302748,-21.52496,-64.35146,1004.526
19.188808918,-0.03127223,-0.05904258,0.007430851,-0.00917284,-0.009848863,1.00089,-0.1108007,-21.53292,-64.34868,1004.526
19.208624840,0.02996124,-0.180068,-0.05373161,-0.005748882,-0.01128381,1.004242,-0.1108007,-21.53292,-64.34868,1004.521
19.228440285,0.0911947,0.1830082,-0.05373161,-0.007239508,-0.007403001,1.001374,0.2654886,-21.89563,-64.34359,1004.521
19.248256207,0.02996124,-0.05904258,-0.1760565,-0.005789803,-0.006913214,0.9994383,0.2654886,-21.89563,-64.34359,1004.522
19.268072128,-0.1537392,0.001470119,-0.05373161,-0.01063894,-0.01035037,0.9979991,0.2654886,-21.89563,-64.34359,1004.522
19.287888050,0.0911947,0.1224955,0.007430851,-0.006269043,-0.007888407,0.9999186,0.944808,-21.88833,-64.34613,1004.52
19.310180187,0.0911947,-0.2405807,-0.1148941,-0.007711127,-0.01032824,1.000879,0.944808,-21.88833,-64.34613,1004.52
19.329996109,0.02996124,-0.2405807,-0.2983814,-0.008689236,-0.009359422,1.00089,0.2654886,-21.89563,-64.34359,1004.521
19.349812031,-0.09250569,0.001470119,-0.05373161,-0.01112853,-0.008888597,0.9994574,0.2654886,-21.89563,-64.34359,1004.521
19.369627953,-0.03127223,0.3645464,-0.1148941,-0.009199582,-0.007423615,0.9970409,0.2654886,-21.89563,-64.34359,1004.522
19.389443874,0.02996124,0.06198282,-0.1148941,-0.01014714,-0.009855068,1.000412,-0.09929848,-22.26631,-64.33572,1004.522
19.409259319,0.1524282,0.001470119,-0.1148941,-0.009193555,-0.006441563,1.000425,-0.09929848,-22.26631,-64.33572,1004.522
19.429075241,0.1524282,0.1224955,0.1297558,-0.008200203,-0.01131046,0.9984636,-0.4806309,-21.52969,-63.96727,1004.522
19.448891163,0.1524282,0.1224955,-0.05373161,-0.009693,-0.006453455,0.9965659,-0.4806309,-21.52969,-63.96727,1004.519
19.468707085,0.02996124,0.06198282,-0.1760565,-0.01011442,-0.01423153,1.002803,-0.4806309,-21.52969,-63.96727,1004.519
19.488522530,0.0911947,-0.1195553,0.007430851,-0.004775138,-0.01176688,1.003752,0.2590294,-21.53616,-64.73008,1004.52
19.508338452,0.02996124,0.001470119,-0.1148941,-0.007223204,-0.01325781,0.9965174,0.2590294,-21.53616,-64.73008,1004.52
19.528154373,-0.09250569,0.06198282,0.06859331,-0.003350536,-0.00885067,0.9984497,0.2539864,-21.16224,-64.35654,1004.521
19.547970295,0.1524282,0.1830082,-0.1760565,-0.007727477,-0.00740669,1.000894,0.2539864,-21.16224,-64.35654,1004.521
19.570262432,-0.09250569,0.1224955,-0.1148941,-0.009189744,-0.007416584,0.9999371,0.2539864,-21.16224,-64.35654,1004.52
19.590078354,0.2748951,0.001470119,-0.1760565,-0.006265718,-0.004952799,1.005726,0.2491941,-20.85666,-64.36195,1004.52
19.609894276,0.02996124,-0.180068,-0.1148941,-0.007280984,-0.003521666,0.9956024,0.2491941,-20.85666,-64.36195,1004.522
19.629710198,0.0911947,0.1830082,0.007430851,-0.005275092,-0.009334773,1.003767,-0.1150179,-21.15059,-63.53179,1004.522
19.649525643,0.0911947,0.3645464,-0.1760565,-0.009203946,-0.006937862,0.9965608,-0.1150179,-21.15059,-63.53179,1004.519
19.669341564,0.1524282,-0.05904258,-0.1148941,-0.006753202,-0.008867118,0.9989508,-0.1150179,-21.15059,-63.53179,1004.519
19.689157486,0.02996124,-0.05904258,-0.1148941,-0.004308439,-0.008845158,1.002799,0.6252317,-21.15104,-63.97792,1004.519
19.708973408,0.1524282,0.001470119,0.007430851,-0.006719347,-0.01079841,1.005698,0.6252317,-21.15104,-63.97792,1004.519
19.728789330,0.02996124,0.3040336,-0.1760565,-0.005787102,-0.00886677,0.9970148,0.6252317,-21.15104,-63.97792,1004.522
19.748604775,0.02996124,0.1224955,-0.05373161,-0.01112631,-0.006931525,1.003329,0.2661963,-21.88842,-63.96357,1004.522
19.768420696,-0.03127223,-0.1195553,0.06859331,-0.007721496,-0.009357903,0.9994363,0.2661963,-21.88842,-63.96357,1004.523
19.788236618,0.1524282,-0.180068,-0.05373161,-0.006260891,-0.01081581,0.9974901,0.259737,-21.52894,-64.35007,1004.523
19.808052540,0.1524282,-0.05904258,-0.05373161,-0.009637877,-0.01130278,1.004746,0.259737,-21.52894,-64.35007,1004.519
