Time (s),Gyroscope X (deg/s),Gyroscope Y (deg/s),Gyroscope Z (deg/s),Accelerometer X (g),Accelerometer Y (g),Accelerometer Z (g),Magnetometer X (uT),Magnetometer Y (uT),Magnetometer Z (uT),Barometer (hPa)
0.000000000,16.60827,-41.02662,15.62016,-0.7678422,0.1590301,0.5777743,13.87349,-26.15478,-29.08943,1000.447
0.017339706,11.46466,-37.51688,14.39691,-0.7414287,0.1411861,0.5925011,12.39709,-26.53741,-29.0774,1000.448
0.037157536,11.83206,-29.9528,15.00854,-0.7388422,0.1173546,0.5986394,12.39709,-26.53741,-29.0774,1000.448
0.056974888,14.4651,-26.98767,21.12478,-0.7554582,0.1255222,0.5886361,12.39709,-26.53741,-29.0774,1000.445
0.076792717,11.34219,-21.54153,26.75173,-0.7612963,0.1626447,0.6491935,11.29698,-27.28274,-29.06027,1000.445
0.096609592,1.60607,-7.623609,20.14618,-0.7512412,0.2085387,0.6783348,11.29698,-27.28274,-29.06027,1000.443
0.116427422,-1.823005,-3.750796,19.77921,-0.745922,0.1831233,0.627494,9.881511,-27.67312,-29.49182,1000.443
0.136244774,1.728537,-11.92001,14.64156,-0.7622986,0.2307155,0.6099689,9.881511,-27.67312,-29.49182,1000.446
0.156062603,3.688008,-11.55693,6.62928,-0.7401201,0.2109949,0.6633236,9.881511,-27.67312,-29.49182,1000.446
0.175879955,-0.2921678,0.5456061,2.286746,-0.7274242,0.2101193,0.6767646,9.87576,-27.30643,-29.4983,1000.446
0.195696831,-4.517277,11.37738,-2.178114,-0.7382177,0.1963082,0.6265541,9.87576,-27.30643,-29.4983,1000.446
0.215514660,-6.537982,11.74046,-5.175074,-0.7343208,0.2046435,0.6420214,8.404977,-27.98622,-29.03752,1000.445
0.235332012,-5.313313,16.15788,-6.214836,-0.7337658,0.1885623,0.6356609,8.404977,-27.98622,-29.03752,1000.445
0.257627010,-2.557806,10.59071,-5.297399,-0.7523272,0.1923199,0.6184053,8.404977,-27.98622,-29.03752,1000.444
0.277443886,-2.925207,7.625592,-3.768338,-0.7401085,0.1806931,0.6168308,9.141259,-27.67267,-29.04569,1000.444
0.297261715,-1.21067,3.99483,-2.055789,-0.759625,0.1839693,0.6039221,9.141259,-27.67267,-29.04569,1000.447
0.317079067,0.3814003,-0.6041352,-1.321839,-0.7522258,0.1762596,0.6217011,9.139728,-27.68831,-29.86906,1000.447
0.336896896,1.361136,-2.72208,-1.444164,-0.748363,0.1777264,0.6158953,9.139728,-27.68831,-29.86906,1000.448
0.356714249,1.60607,-2.72208,-0.9548646,-0.7507942,0.1752699,0.6120346,9.139728,-27.68831,-29.86906,1000.448
0.376531601,-0.7208021,0.1220172,-1.016027,-0.7575101,0.1645457,0.6216698,8.764148,-27.31838,-29.49414,1000.449
0.396348953,-3.108907,3.147652,0.3295469,-0.7493868,0.1859956,0.6144954,8.764148,-27.31838,-29.49414,1000.449
0.416166782,-2.129172,4.478932,-0.5267274,-0.7410681,0.1748309,0.6110137,9.506755,-27.29478,-28.67354,1000.449
0.435984135,-1.455604,2.724063,-1.933464,-0.7498896,0.1889146,0.6145131,9.506755,-27.29478,-28.67354,1000.449
0.455801964,0.7488011,2.239962,-2.667413,-0.7502376,0.1650563,0.6158405,9.506755,-27.29478,-28.67354,1000.45
0.475618839,0.7488011,1.634835,-1.321839,-0.762832,0.1513382,0.6081161,9.510974,-27.67711,-29.49043,1000.45
0.495436669,-0.5371017,0.1825299,1.185821,-0.7760022,0.1527088,0.5990244,9.510974,-27.67711,-29.49043,1000.449
0.515254021,-2.312872,-0.4225971,1.552796,-0.7542307,0.1757181,0.6033675,9.510974,-27.67711,-29.49043,1000.449
0.537549019,0.1976999,-3.38772,0.8188466,-0.7392699,0.2055348,0.6184018,9.146052,-27.97825,-29.04029,1000.451
0.557365894,0.6875677,-2.782593,-1.872301,-0.7348421,0.2070604,0.6357618,9.146052,-27.97825,-29.04029,1000.451
0.577183724,2.095937,-2.72208,-2.606251,-0.7561542,0.1776791,0.6130416,9.875052,-27.31365,-29.87832,1000.454
0.597001076,1.299902,-3.145669,-1.444164,-0.757556,0.160113,0.6008921,9.875052,-27.31365,-29.87832,1000.454
0.616818905,-0.8432691,-2.05644,0.02373465,-0.7541913,0.1757462,0.6149517,9.875052,-27.31365,-29.87832,1000.454
0.636636257,-1.761771,-0.1200336,-1.505327,-0.7463478,0.1728977,0.6284091,9.134685,-27.3144,-29.49553,1000.454
0.656453610,2.769506,-2.601054,0.207222,-0.7541674,0.169408,0.6115403,9.134685,-27.3144,-29.49553,1000.455
0.676270962,4.116642,-4.174385,-0.03742781,-0.7506958,0.1709403,0.6337324,9.882335,-27.66471,-29.04847,1000.455
0.696088791,3.320607,0.0615045,0.3295469,-0.7540988,0.1562575,0.6100243,9.882335,-27.66471,-29.04847,1000.459
0.715906143,0.5038673,-2.419516,2.103258,-0.7560631,0.1655224,0.6197362,9.882335,-27.66471,-29.04847,1000.459
0.735723972,-4.21111,1.997911,1.369309,-0.7322916,0.1832031,0.6312812,9.504516,-27.31763,-29.87693,1000.456
0.755540848,-1.823005,4.720983,0.5130343,-0.7474313,0.1850353,0.6159277,9.504516,-27.31763,-29.87693,1000.456
0.775358677,2.524572,-1.269775,0.9411715,-0.7474809,0.1889108,0.6077424,9.50018,-26.9365,-29.12338,1000.457
0.797653198,-1.516837,4.66047,-0.8325397,-0.7459482,0.1875045,0.6270339,9.50018,-26.9365,-29.12338,1000.457
0.817471028,-3.721242,5.810211,-0.5267274,-0.758586,0.1674001,0.5961084,9.50018,-26.9365,-29.12338,1000.457
0.837287903,-2.251639,0.8481696,0.08489711,-0.7488877,0.1772077,0.6038285,9.511682,-27.66989,-29.11042,1000.457
0.857105732,0.6263342,-2.419516,1.185821,-0.7470054,0.1937943,0.6125917,9.511682,-27.66989,-29.11042,1000.459
0.876923084,1.851004,-2.540542,0.5130343,-0.7498404,0.1889498,0.6289933,9.869302,-26.94695,-29.8848,1000.459
0.896740914,2.340871,-1.572338,0.2683845,-0.7421154,0.1913942,0.616414,9.869302,-26.94695,-29.8848,1000.456
0.916558266,1.851004,-2.964131,-0.7102148,-0.7444293,0.1723998,0.6197078,9.869302,-26.94695,-29.8848,1000.456
0.936375618,-0.7820356,0.0615045,0.3295469,-0.7532215,0.1703716,0.6052653,9.510974,-27.67711,-29.49043,1000.458
0.956192970,-1.271903,-2.177466,1.736283,-0.7605116,0.1644709,0.5970693,9.510974,-27.67711,-29.49043,1000.458
0.976010800,-1.884238,-5.263614,2.103258,-0.7424829,0.1704551,0.6167912,9.510974,-27.67711,-29.49043,1000.461
0.995828152,-3.660008,-2.298491,2.042096,-0.7327698,0.1817399,0.6312763,9.510974,-27.67711,-29.49043,1000.461
1.015645981,-0.1084674,-2.116953,1.919771,-0.7502799,0.1840921,0.6347629,9.510974,-27.67711,-29.49043,1000.459
1.035462856,2.891973,-6.171304,1.613959,-0.7395768,0.1802392,0.6293751,9.134685,-27.3144,-29.49553,1000.459
1.055280685,3.626774,-4.900537,2.164421,-0.7425051,0.1826611,0.6303689,9.134685,-27.3144,-29.49553,1000.46
1.077575207,1.116202,-2.903618,0.7576842,-0.7434967,0.1933977,0.6424965,8.757689,-26.9589,-29.88064,1000.46
1.097393036,-0.9045025,0.0009917939,0.7576842,-0.7435127,0.186542,0.6265329,8.757689,-26.9589,-29.88064,1000.46
1.117209911,-0.4758682,-1.330288,1.369309,-0.7478886,0.1845647,0.6236507,8.757689,-26.9589,-29.88064,1000.46
1.137027741,-0.2921678,-2.540542,1.491634,-0.7376358,0.1836683,0.6337262,9.128934,-26.9477,-29.50201,1000.463
1.156845093,0.993735,-0.1200336,1.063496,-0.7347893,0.1987874,0.6376497,9.128934,-26.9477,-29.50201,1000.463
1.176662922,1.912237,0.9086823,-0.3432401,-0.7357882,0.1958303,0.6250904,9.145228,-27.98667,-29.48365,1000.459
1.196480751,0.5651007,-1.572338,-0.2820776,-0.7416248,0.1850444,0.6072078,9.145228,-27.98667,-29.48365,1000.459
1.216297627,-0.2309344,-2.116953,-0.3432401,-0.7318273,0.1841678,0.6264568,9.145228,-27.98667,-29.48365,1000.462
1.236115456,-1.823005,1.937398,-0.465565,-0.735177,0.1744117,0.626425,9.134685,-27.3144,-29.49553,1000.462
1.255932808,-0.3534013,-1.330288,0.7576842,-0.7478812,0.1694149,0.6008869,9.134685,-27.3144,-29.49553,1000.464
1.275750637,-0.4758682,-3.024643,1.736283,-0.740068,0.1831664,0.6327716,8.774692,-27.99065,-29.48226,1000.464
1.295567989,0.7488011,-2.843105,2.347908,-0.7396046,0.1875524,0.6332743,8.774692,-27.99065,-29.48226,1000.462
1.315385342,0.2589334,-3.085156,0.9411715,-0.7298778,0.1993358,0.6525887,8.774692,-27.99065,-29.48226,1000.462
1.335202694,-0.4146348,1.876886,-0.03742781,-0.7342433,0.1949215,0.6487285,8.404153,-27.99464,-29.48087,1000.465
1.357497692,0.1364664,1.574322,-0.5267274,-0.7401182,0.1909525,0.6308811,8.404153,-27.99464,-29.48087,1000.465
1.377315044,0.3814003,1.150733,0.1460596,-0.728906,0.1841853,0.6274063,8.392901,-27.32958,-29.87277,1000.466
1.397132874,0.1364664,1.150733,-0.1597527,-0.7343363,0.1924107,0.6173421,8.392901,-27.32958,-29.87277,1000.466
1.416950703,-1.088203,0.9086823,-1.07719,-0.7381184,0.1797575,0.6283993,8.392901,-27.32958,-29.87277,1000.464
1.436767578,2.769506,0.364068,-0.9548646,-0.7400026,0.1700136,0.6302903,8.768365,-27.70071,-30.31103,1000.464
1.456585407,4.361576,5.628673,-0.2820776,-0.755661,0.1967526,0.6464418,8.768365,-27.70071,-30.31103,1000.466
1.476402760,4.79021,4.478932,-0.8325397,-0.7576488,0.2040452,0.6460074,8.769191,-27.69229,-29.86768,1000.466
1.496220589,-0.1697009,0.364068,0.08489711,-0.7571704,0.1839983,0.6106663,8.769191,-27.69229,-29.86768,1000.469
1.516037464,0.3814003,-0.9066988,1.124659,-0.7410471,0.18609,0.6356881,8.769191,-27.69229,-29.86768,1000.469
1.535855293,0.3201669,0.8481696,0.5130343,-0.7372292,0.194369,0.6279868,9.510266,-27.68433,-29.87045,1000.469
1.555673123,0.6263342,1.332271,-0.03742781,-0.7396395,0.1899718,0.6270121,9.510266,-27.68433,-29.87045,1000.469
1.575490475,0.7488011,0.6666315,0.1460596,-0.7420166,0.1846206,0.6342378,9.140435,-27.68109,-29.48905,1000.466
1.595308304,3.810475,7.080978,0.5741968,-0.7469348,0.2026445,0.6478723,9.140435,-27.68109,-29.48905,1000.466
1.617602825,0.3201669,7.686105,-0.9548646,-0.7397836,0.204535,0.6087459,9.140435,-27.68109,-29.48905,1000.468
1.637420654,0.993735,9.198922,-1.872301,-0.7211649,0.1949519,0.6332114,8.77143,-27.66944,-28.66429,1000.468
1.657237530,0.6263342,10.5302,-2.973226,-0.7528998,0.2015443,0.6083196,8.77143,-27.66944,-28.66429,1000.465
1.677055359,-0.8432691,7.504567,-3.646013,-0.7567462,0.1971559,0.6141103,9.141143,-27.67387,-29.10903,1000.465
1.696872711,0.2589334,3.026627,-1.444164,-0.7635584,0.1809854,0.5865518,9.141143,-27.67387,-29.10903,1000.465
1.716690540,4.116642,-4.597974,-1.199515,-0.7489334,0.1845081,0.6024184,9.141143,-27.67387,-29.10903,1000.465
1.736507416,5.035144,2.784576,0.1460596,-0.7342604,0.1929538,0.6405129,9.141143,-27.67387,-29.10903,1000.466
1.756325245,1.422369,4.66047,-0.8325397,-0.7611414,0.1839207,0.5870364,9.141143,-27.67387,-29.10903,1000.466
1.776143074,2.157171,-2.480029,-1.444164,-0.7572796,0.1946754,0.5962414,9.141143,-27.67387,-29.10903,1000.468
1.795960427,2.340871,-3.508745,-2.483926,-0.7412141,0.2079699,0.622769,9.141143,-27.67387,-29.10903,1000.468
1.815778256,0.4426338,2.179449,-5.052749,-0.7470523,0.2015827,0.6116666,9.141143,-27.67387,-29.10903,1000.47
1.835595131,-0.3534013,-3.266694,-7.132273,-0.7462408,0.2053836,0.570654,9.510974,-27.67711,-29.49043,1000.47
1.855412960,-2.374106,-12.28309,-9.701096,-0.7408921,0.2161658,0.5880565,9.510974,-27.67711,-29.49043,1000.468
1.875230789,-3.537542,-15.49026,-13.79898,-0.7291225,0.212874,0.6111437,9.510974,-27.67711,-29.49043,1000.468
1.897525311,-3.231374,-21.05743,-16.49013,-0.7125892,0.2256688,0.6313915,9.882218,-27.66591,-29.1118,1000.469
1.917343140,-5.680713,-18.57641,-21.68894,-0.6993744,0.2086862,0.6278532,9.882218,-27.66591,-29.1118,1000.469
1.937160492,-6.354281,-13.25129,-22.30056,-0.7191357,0.1808447,0.6345758,9.887263,-28.03982,-29.48534,1000.464
1.956978321,-7.089083,-6.836944,-20.22104,-0.733521,0.1530496,0.6489922,9.887263,-28.03982,-29.48534,1000.464
1.976795197,-4.823445,-7.20002,-16.8571,-0.7587546,0.1397589,0.6437526,9.887263,-28.03982,-29.48534,1000.466
1.996613026,2.524572,-9.499503,-12.14759,-0.7537658,0.1305853,0.6653987,10.24547,-27.31087,-29.94304,1000.466
2.016430855,7.300782,-9.075913,-9.334121,-0.7557144,0.1349728,0.6717067,10.24547,-27.31087,-29.94304,1000.467
2.036248207,8.341751,-5.142588,-7.682735,-0.746959,0.1218195,0.6503533,9.881511,-27.67312,-29.49182,1000.467
2.056066036,5.402544,-2.782593,-7.009948,-0.7406225,0.1199069,0.6512742,9.881511,-27.67312,-29.49182,1000.464
2.075882912,0.9325016,1.695347,-5.847861,-0.7435732,0.121335,0.6440575,9.881511,-27.67312,-29.49182,1000.464
2.095700741,-0.1697009,2.784576,-4.012987,-0.7459956,0.1179069,0.6411571,9.505931,-27.3032,-29.1169,1000.466
2.115518093,1.422369,0.7271442,-2.483926,-0.7445813,0.1261933,0.6416746,9.505931,-27.3032,-29.1169,1000.466
2.135335922,1.912237,1.574322,-2.361601,-0.7329083,0.1272323,0.6435468,10.24055,-26.93575,-29.50617,1000.463
2.157630444,2.953206,-2.177466,-1.688814,-0.741677,0.1227765,0.6319876,10.24055,-26.93575,-29.50617,1000.463
2.177448273,3.320607,-1.572338,-1.016027,-0.74406,0.1281764,0.6551969,10.24055,-26.93575,-29.50617,1000.465
2.197266102,1.912237,-0.1805463,-0.5267274,-0.7426481,0.1257059,0.6373174,10.61108,-26.93177,-29.50756,1000.465
2.217082977,-0.2309344,-2.116953,0.5741968,-0.7446212,0.1300758,0.6363853,10.61108,-26.93177,-29.50756,1000.466
2.236900806,-1.088203,-2.359004,1.369309,-0.7387557,0.1271939,0.6401998,10.61684,-27.29846,-29.50108,1000.466
2.256718636,-0.5983351,-3.266694,1.552796,-0.7373468,0.1379208,0.6431432,10.61684,-27.29846,-29.50108,1000.464
2.276535988,0.7488011,-3.750796,1.675121,-0.7324617,0.1384505,0.6503594,10.61684,-27.29846,-29.50108,1000.464
2.296353817,2.585805,-3.206182,1.736283,-0.7270882,0.1336066,0.6493397,10.24126,-26.92854,-29.12615,1000.463
2.316170693,2.524572,-3.992847,2.103258,-0.7330528,0.1515726,0.6412591,10.24126,-26.92854,-29.12615,1000.463
2.335988522,1.422369,-2.05644,1.369309,-0.7232808,0.1467666,0.6464905,9.874227,-27.32207,-30.32167,1000.461
2.355806351,0.07523298,-1.814389,0.7576842,-0.7286982,0.1579347,0.6451294,9.874227,-27.32207,-30.32167,1000.461
2.375623703,-0.3534013,-3.266694,0.08489711,-0.7232471,0.146302,0.6556587,9.874227,-27.32207,-30.32167,1000.464
2.395441532,-0.8432691,-0.7856733,0.5130343,-0.7242517,0.1570292,0.6639248,9.50944,-27.69275,-30.31381,1000.464
2.415258408,0.8100346,-1.572338,0.2683845,-0.7252562,0.1491795,0.6416869,9.50944,-27.69275,-30.31381,1000.464
2.437553406,2.830739,-6.110791,1.063496,-0.723343,0.1599218,0.6499371,9.505223,-27.31041,-29.49691,1000.464
2.457370758,0.4426338,-3.992847,-0.2820776,-0.7170113,0.1638722,0.6590936,9.505223,-27.31041,-29.49691,1000.464
2.477188587,-0.4146348,-3.629771,-1.444164,-0.722806,0.1526275,0.6527928,9.505223,-27.31041,-29.49691,1000.464
2.497006416,0.993735,-5.324126,-1.383002,-0.7242782,0.1496773,0.6440974,9.133859,-27.32281,-29.93888,1000.461
2.516823292,2.279638,-8.289248,-0.8325397,-0.715057,0.1487337,0.6368019,9.133859,-27.32281,-29.93888,1000.461
2.536641121,4.79021,-18.27384,-0.2820776,-0.7213337,0.1340674,0.626142,9.128226,-26.95492,-29.88202,1000.462
2.556458950,5.341311,-24.7487,2.347908,-0.7131034,0.1560828,0.6513094,9.128226,-26.95492,-29.88202,1000.462
2.576276302,3.320607,-30.67895,0.08489711,-0.7242059,0.1526621,0.670177,9.128226,-26.95492,-29.88202,1000.464
2.596094132,7.239549,-40.48201,2.042096,-0.7296695,0.1388646,0.6141454,9.50018,-26.9365,-29.12338,1000.464
2.615911007,13.5466,-61.4194,3.938132,-0.6989312,0.1386054,0.6424537,9.50018,-26.9365,-29.12338,1000.462
2.635728836,14.52633,-79.45219,-0.2820776,-0.6810902,0.165477,0.6415288,8.084828,-27.32568,-29.49159,1000.462
2.655546665,20.22104,-103.7783,3.632319,-0.4445069,0.0941645,0.4448655,8.084828,-27.32568,-29.49159,1000.463
2.675364018,21.56818,-160.4787,7.240905,-0.6667833,0.2802352,0.7472637,8.084828,-27.32568,-29.49159,1000.463
2.697659016,11.46466,-110.8583,3.081857,-0.5406162,0.09923264,0.9363015,6.618144,-28.389,-29.91103,1000.459
2.717476368,14.8325,-71.94862,10.54368,-0.527345,0.2018627,0.8609754,6.618144,-28.389,-29.91103,1000.459
2.737294197,9.933822,-71.28297,8.341829,-0.5473725,0.2065854,0.8432502,2.603984,-28.43215,-29.89599,1000.46
2.757112026,6.933381,-68.55991,6.690443,-0.520368,0.1712194,0.8598145,2.603984,-28.43215,-29.89599,1000.46
2.776928902,6.810915,-58.15171,5.650681,-0.4878805,0.1830519,0.8505265,2.603984,-28.43215,-29.89599,1000.457
2.796746731,4.79021,-52.94762,9.320428,-0.4616333,0.1934437,0.8629858,0.4475565,-28.8293,-30.26143,1000.457
2.816564560,2.891973,-44.47584,8.219504,-0.4276733,0.1911161,0.8343101,0.4475565,-28.8293,-30.26143,1000.458
2.836381912,4.361576,-46.95686,8.158341,-0.4331959,0.2105197,0.8156154,-1.342669,-28.84133,-29.87471,1000.458
2.856199742,6.443513,-59.24094,8.280666,-0.4162819,0.2183529,0.7967386,-1.342669,-28.84133,-29.87471,1000.454
2.876016617,2.279638,-64.56606,5.161381,-0.3913084,0.2318029,0.8685901,-1.342669,-28.84133,-29.87471,1000.454
2.895834446,-7.517717,-58.15171,-1.260677,-0.3706818,0.2066307,0.8857242,-3.193825,-28.84561,-29.04439,1000.455
2.915652275,-41.56353,-34.97535,8.525316,-0.3156963,0.2568016,0.9764245,-3.193825,-28.84561,-29.04439,1000.455
2.935469628,1.912237,-30.37638,6.751605,-0.3952376,0.1700134,0.8982202,-3.873852,-28.86013,-29.42187,1000.451
2.955287457,10.54616,-39.0297,2.65372,-0.3453033,0.2640235,1.006067,-3.873852,-28.86013,-29.42187,1000.451
2.977582455,1.78977,-14.76411,-0.7713773,-0.2757639,0.2477577,0.9766421,-3.873852,-28.86013,-29.42187,1000.452
2.997399807,-0.4758682,0.2430426,-3.156713,-0.3104639,0.2415905,0.9169483,-5.361755,-28.50936,-29.42279,1000.452
3.017217636,-0.9045025,-6.292329,-3.340201,-0.3546831,0.2174331,0.8885883,-5.361755,-28.50936,-29.42279,1000.449
3.037034512,-5.864414,-17.78974,-2.178114,-0.3376963,0.2258071,0.891917,-6.467617,-28.88801,-29.41215,1000.449
3.056852341,-10.15076,-22.87281,-2.667413,-0.316519,0.1997058,0.9264199,-6.467617,-28.88801,-29.41215,1000.448
3.076670170,-3.415075,-25.35383,-5.052749,-0.3217295,0.1836447,0.9408463,-6.467617,-28.88801,-29.41215,1000.448
3.096487522,7.178315,-23.84101,-5.909023,-0.3124893,0.1807593,0.9359541,-5.73791,-28.21618,-29.87016,1000.45
3.116305351,7.423249,-19.9682,-5.970186,-0.2956702,0.2017242,0.9108704,-5.73791,-28.21618,-29.87016,1000.45
3.136123180,-0.7208021,-17.91077,-4.930424,-0.2947521,0.2070678,0.9036527,-7.156773,-28.21581,-29.04147,1000.451
3.155940056,-6.048114,-16.51898,-4.685774,-0.2952662,0.2143786,0.9075545,-7.156773,-28.21581,-29.04147,1000.451
3.175757885,-19.15207,-19.66564,-1.994627,-0.2895007,0.2520015,0.9487438,-7.156773,-28.21581,-29.04147,1000.447
3.195575714,-38.25692,-24.2646,-3.217876,-0.2803353,0.1814545,0.9531581,-7.521693,-28.51696,-28.59132,1000.447
3.215393066,-25.94899,-18.75795,-4.012987,-0.2665146,0.1542935,0.9679059,-7.521693,-28.51696,-28.59132,1000.447
3.235210896,-17.43754,-11.43591,-2.300439,-0.2647139,0.1698442,0.9510822,-7.521693,-28.51696,-28.59132,1000.45
3.257504940,-25.88776,-3.266694,-1.933464,-0.2447755,0.1719021,0.9538798,-7.898556,-28.231,-29.41871,1000.45
3.277322769,-20.80538,0.1220172,-0.8937021,-0.2710102,0.1536973,0.9322093,-7.898556,-28.231,-29.41871,1000.45
3.297140598,-13.886,-2.661567,-1.07719,-0.2656518,0.1571533,0.9404033,-8.646208,-27.88069,-29.86576,1000.449
3.316957951,-16.76397,-8.410274,0.207222,-0.2627131,0.1537611,0.9408525,-8.646208,-27.88069,-29.86576,1000.449
3.336775780,-22.94855,-15.73231,0.1460596,-0.2617056,0.1396137,0.9277419,-8.646208,-27.88069,-29.86576,1000.451
3.356593609,-24.05075,-16.33744,0.1460596,-0.2751958,0.124479,0.9402877,-7.9238,-26.78707,-30.64802,1000.451
3.376410484,-21.90758,-18.39487,0.8188466,-0.2557113,0.1319351,0.9614571,-7.9238,-26.78707,-30.64802,1000.452
3.396228314,-18.72344,-17.18462,-2.055789,-0.2245415,0.1282172,0.9680249,-8.294338,-26.79106,-30.64663,1000.452
3.416046143,-11.19173,-16.57949,-1.994627,-0.2308946,0.1169185,0.9404891,-8.294338,-26.79106,-30.64663,1000.45
3.435863495,-13.1512,-19.9682,-3.156713,-0.2214882,0.1146406,0.985315,-8.294338,-26.79106,-30.64663,1000.45
3.455681324,-13.3349,-14.88513,-3.462525,-0.2209719,0.1078203,0.9828637,-9.042699,-26.44796,-31.4737,1000.45
3.475499153,-12.23269,-19.66564,-5.175074,-0.2166153,0.1029398,0.9688171,-9.042699,-26.44796,-31.4737,1000.451
3.495316029,-11.13049,-21.17845,-6.58181,-0.1922206,0.1040992,0.9933062,-9.418987,-26.08525,-31.47879,1000.451
3.517611504,-3.292608,-15.55077,-9.334121,-0.1898268,0.09968497,0.9749286,-9.418987,-26.08525,-31.47879,1000.453
3.537429333,-1.02697,-12.8277,-8.967146,-0.178576,0.1066336,1.005311,-9.418987,-26.08525,-31.47879,1000.455
3.557246208,0.6263342,-8.107711,-8.539009,-0.1862429,0.08467589,1.002827,-10.48035,-25.36314,-31.48782,1000.455
3.577064037,2.095937,-5.445152,-6.092511,-0.1926941,0.08797313,0.97054,-10.48035,-25.36314,-31.48782,1000.452
3.596881867,-0.4758682,-3.811309,-3.768338,-0.2008974,0.07233235,0.9637471,-10.10406,-25.72586,-31.48273,1000.452
3.616699219,-3.108907,-2.237978,-1.505327,-0.2029038,0.08205609,0.9618772,-10.10406,-25.72586,-31.48273,1000.454
3.636517048,-1.333137,-4.779512,-1.566489,-0.1951389,0.08501791,0.9618499,-10.10406,-25.72586,-31.48273,1000.454
3.656334877,1.238669,-4.113872,-2.483926,-0.1912825,0.09821312,0.9734809,-10.48035,-25.36314,-31.48782,1000.451
3.676151753,3.871708,-4.779512,-4.502287,-0.1855426,0.1030634,0.9532019,-10.48035,-25.36314,-31.48782,1000.451
3.695969582,-0.8432691,-3.690283,-3.951825,-0.1776085,0.09490208,0.9844907,-10.10488,-25.73428,-31.92608,1000.451
3.715787411,-1.884238,-2.298491,-2.239276,-0.186398,0.09385363,0.9724664,-10.10488,-25.73428,-31.92608,1000.453
3.735604763,1.361136,-3.690283,-1.933464,-0.1825695,0.1040957,0.9710501,-10.10488,-25.73428,-31.92608,1000.453
3.755422592,0.1976999,-4.416436,-3.034388,-0.1626773,0.1173646,0.9787322,-10.47939,-25.42426,-31.48674,1000.45
3.775240421,-3.782475,-3.145669,-5.480886,-0.1621064,0.108139,0.9883353,-10.47939,-25.42426,-31.48674,1000.45
3.797534466,-2.129172,-1.209262,-6.153673,-0.1848588,0.08071891,0.9743213,-10.48021,-25.43268,-31.93009,1000.454
3.817352295,-2.557806,-0.1805463,-5.175074,-0.1789715,0.0812747,0.9902202,-10.48021,-25.43268,-31.93009,1000.456
3.837169647,-1.21067,0.3035553,-5.175074,-0.1784667,0.07444621,0.9843903,-10.48021,-25.43268,-31.93009,1000.456
3.856987477,-0.4758682,-0.241059,-4.869262,-0.1842699,0.07150619,0.9892338,-10.09831,-26.09255,-31.47625,1000.457
3.876805306,-0.4758682,3.389703,-3.890663,-0.1853195,0.0773126,0.976237,-10.09831,-26.09255,-31.47625,1000.457
3.896623135,0.1976999,1.029708,-3.707175,-0.1848381,0.08024488,0.9796281,-10.46884,-26.09653,-31.47486,1000.454
3.916440010,-1.149436,3.32919,-2.973226,-0.180972,0.08024743,0.9723668,-10.46884,-26.09653,-31.47486,1000.454
3.936257839,0.07523298,2.058424,-4.07415,-0.1896682,0.06899935,0.9709087,-10.46884,-26.09653,-31.47486,1000.454
3.956075669,0.8712681,3.026627,-2.055789,-0.1978394,0.04702621,0.9631177,-9.733521,-25.72187,-31.48412,1000.453
3.975893021,0.7488011,2.845089,0.08489711,-0.1953989,0.05780035,0.9834321,-9.733521,-25.72187,-31.48412,1000.453
3.995710850,-2.251639,6.354825,2.714883,-0.1969588,0.06554258,0.9665866,-9.733521,-25.72187,-31.48412,1000.455
4.015528679,-3.108907,4.176368,2.65372,-0.1766354,0.08806323,0.9733486,-9.733521,-25.72187,-31.48412,1000.455
4.035345554,-1.761771,-0.4831098,-0.8937021,-0.1800495,0.09097183,0.9753129,-9.733521,-25.72187,-31.48412,1000.457
4.057641029,-0.7820356,-1.874902,-1.994627,-0.1803623,0.07056067,0.9925863,-9.727769,-26.08857,-31.47764,1000.457
4.077458859,1.361136,-2.116953,-2.483926,-0.1945226,0.07533584,0.984,-9.727769,-26.08857,-31.47764,1000.457
4.097275734,1.483603,-2.480029,-1.749977,-0.1916391,0.0738597,0.9714271,-10.1146,-25.05358,-31.49461,1000.46
4.117093563,1.116202,-3.448232,-1.933464,-0.1916332,0.06897521,0.9651271,-10.1146,-25.05358,-31.49461,1000.46
4.136911392,1.667303,-3.690283,-0.7102148,-0.1810065,0.07875618,0.9598098,-10.1146,-25.05358,-31.49461,1000.46
4.156728745,-0.4146348,-4.840024,-1.199515,-0.1790811,0.09439588,0.9796693,-9.429531,-25.41297,-31.49067,1000.46
4.176546574,-1.455604,-1.511826,-1.444164,-0.1795009,0.08661899,0.9863892,-9.429531,-25.41297,-31.49067,1000.46
4.196364403,0.6875677,-3.690283,-3.401363,-0.1838637,0.08318434,0.9849474,-9.429531,-25.41297,-31.49067,1000.463
4.216181278,0.1364664,-1.330288,-2.239276,-0.1813094,0.06568522,0.9920837,-9.429531,-25.41297,-31.49067,1000.463
4.235999107,0.1976999,0.7876569,-0.465565,-0.1901185,0.06755598,0.9791093,-9.429531,-25.41297,-31.49067,1000.463
4.255816937,0.5038673,0.6061188,0.6965217,-0.1785344,0.07977543,0.9733164,-10.09913,-26.10097,-31.9196,1000.463
4.275634766,0.5651007,1.029708,-0.2820776,-0.1731863,0.08566847,0.9824884,-10.09913,-26.10097,-31.9196,1000.464
4.295452118,0.6263342,0.7876569,-1.016027,-0.1790632,0.08854224,0.9752951,-9.423323,-25.70412,-30.72524,1000.464
4.315269947,0.8100346,1.574322,-1.383002,-0.1882702,0.08460723,0.978704,-9.423323,-25.70412,-30.72524,1000.461
4.337563992,-1.884238,4.902521,-0.03742781,-0.1804502,0.07538656,0.9747524,-9.423323,-25.70412,-30.72524,1000.461
4.357381821,-2.61904,3.510728,-0.4044026,-0.1767167,0.09582707,0.9622873,-9.733521,-25.72187,-31.48412,1000.461
4.377199650,-4.762211,3.571241,-0.9548646,-0.174188,0.08319835,0.9699314,-9.733521,-25.72187,-31.48412,1000.462
4.397017479,-3.660008,2.905602,-1.688814,-0.1857355,0.07002731,0.9848902,-9.424738,-25.71855,-31.48527,1000.462
4.416834831,-3.047674,3.32919,-0.8937021,-0.2003293,0.06359366,0.9733526,-9.424738,-25.71855,-31.48527,1000.462
4.436652660,-2.312872,2.784576,0.3907094,-0.2007992,0.06213623,0.9757611,-9.424738,-25.71855,-31.48527,1000.461
4.456470490,-0.1084674,2.239962,0.8800091,-0.2008144,0.06896958,0.9825538,-9.424738,-25.71855,-31.48527,1000.461
4.476287365,0.0139995,1.332271,0.207222,-0.1790322,0.07976471,0.9699403,-9.424738,-25.71855,-31.48527,1000.462
4.496105194,-0.965736,1.695347,-0.8937021,-0.1775224,0.07980859,0.9848954,-9.429531,-25.41297,-31.49067,1000.462
4.515923023,-0.5371017,1.332271,-1.444164,-0.1911495,0.07533119,0.9748107,-9.429531,-25.41297,-31.49067,1000.462
4.535740852,-1.823005,3.147652,-0.8325397,-0.1950123,0.07239771,0.9781955,-9.429531,-25.41297,-31.49067,1000.462
4.555558205,-0.965736,0.4850934,-0.4044026,-0.2023254,0.06501391,0.9608212,-9.06557,-25.05071,-31.9419,1000.462
4.575376034,0.07523298,0.1825299,0.4518718,-0.1993681,0.06505713,0.9723895,-9.06557,-25.05071,-31.9419,1000.462
4.595193863,-0.4146348,0.7876569,0.6353592,-0.1950401,0.07531106,0.9748319,-9.06557,-25.05071,-31.9419,1000.465
4.617488384,-0.6595686,0.8481696,0.1460596,-0.195051,0.07872538,0.9772629,-9.425564,-25.72697,-31.92863,1000.465
4.637306214,-0.965736,0.0615045,-1.566489,-0.1882326,0.07583439,0.97528,-9.425564,-25.72697,-31.92863,1000.465
4.657124043,0.4426338,0.6061188,-1.811139,-0.1878052,0.08019461,0.9651638,-9.418987,-26.08525,-31.47879,1000.465
4.676940918,-0.7820356,-2.237978,-3.462525,-0.1901742,0.07191604,0.969961,-9.418987,-26.08525,-31.47879,1000.464
4.696758747,-3.353841,-1.511826,-2.912063,-0.2051921,0.05819123,0.9646633,-9.418987,-26.08525,-31.47879,1000.464
4.716576576,-2.374106,0.8481696,-1.07719,-0.194906,0.05780755,0.9853601,-10.10885,-25.42028,-31.48813,1000.466
4.736394406,-0.7208021,-0.1200336,-0.7102148,-0.1929873,0.06464276,0.9887635,-10.10885,-25.42028,-31.48813,1000.466
4.756211758,0.5651007,-0.05952091,-0.9548646,-0.1905792,0.06268304,0.9786041,-9.054201,-25.71457,-31.48666,1000.467
4.776029587,0.8712681,-0.5436226,-1.383002,-0.1945086,0.06605732,0.9728507,-9.054201,-25.71457,-31.48666,1000.467
4.795847416,-0.1697009,-0.3620844,-1.383002,-0.1964463,0.06116394,0.9670441,-9.054201,-25.71457,-31.48666,1000.467
4.815664292,0.4426338,-0.241059,-0.4044026,-0.1978861,0.06361445,0.9767182,-9.425564,-25.72697,-31.92863,1000.467
4.835482121,-0.04723396,0.4245807,-0.03742781,-0.1905775,0.06561748,0.9839285,-9.425564,-25.72697,-31.92863,1000.466
4.855299950,0.3814003,0.2430426,-0.3432401,-0.1901451,0.07438112,0.9825232,-9.059818,-25.41741,-31.93542,1000.466
4.877594471,1.973471,-0.9672114,-1.811139,-0.1988544,0.06605692,0.9820454,-9.059818,-25.41741,-31.93542,1000.467
4.897412300,2.218405,-1.451313,-0.6490523,-0.1940212,0.06117184,0.9651,-9.059818,-25.41741,-31.93542,1000.467
4.917230129,3.136906,-3.024643,-1.749977,-0.1818038,0.07301001,1.001778,-9.054201,-25.71457,-31.48666,1000.467
4.937047959,1.483603,-0.1200336,-1.383002,-0.1907554,0.08064535,0.9564941,-9.054201,-25.71457,-31.48666,1000.467
4.956864834,-1.333137,0.0615045,-1.199515,-0.1852857,0.07098141,0.9757216,-9.429531,-25.41297,-31.49067,1000.468
4.976682663,-0.1084674,-0.1200336,-1.016027,-0.1897353,0.07775111,0.9656445,-9.429531,-25.41297,-31.49067,1000.468
4.996500492,2.891973,-2.359004,-1.994627,-0.1867681,0.07486809,0.9752671,-9.429531,-25.41297,-31.49067,1000.464
5.016318321,1.054968,-0.6041352,-2.178114,-0.1906238,0.07242856,0.9815503,-9.425564,-25.72697,-31.92863,1000.464
5.036135674,1.667303,-0.6041352,-1.749977,-0.1910972,0.06363562,0.970889,-9.425564,-25.72697,-31.92863,1000.465
5.055953503,-0.7820356,0.5456061,-0.8937021,-0.1959949,0.06945238,0.970463,-9.425564,-25.72697,-31.92863,1000.465
5.075771332,-1.945472,1.574322,0.3295469,-0.1950347,0.06993731,0.967564,-9.425564,-25.72697,-31.92863,1000.467
5.095588207,-1.700538,0.6666315,0.02373465,-0.1964386,0.06801369,0.9805942,-9.425564,-25.72697,-31.92863,1000.467
5.115406036,0.8712681,0.6061188,-1.016027,-0.1891932,0.07486019,0.9772109,-9.424738,-25.71855,-31.48527,1000.47
5.135223866,0.4426338,0.1220172,-1.872301,-0.1862393,0.06903454,0.9781302,-9.424738,-25.71855,-31.48527,1000.47
5.157518864,-0.1084674,-0.6041352,-1.383002,-0.1939644,0.05925695,0.978605,-9.059818,-25.41741,-31.93542,1000.468
5.177336216,0.1364664,0.1825299,-0.465565,-0.1944633,0.06413423,0.9829769,-9.059818,-25.41741,-31.93542,1000.468
5.197154045,0.4426338,-1.14875,-0.5267274,-0.1896337,0.07195722,0.9858867,-9.059818,-25.41741,-31.93542,1000.47
5.216971874,0.1976999,1.029708,-0.8937021,-0.1901375,0.07243108,0.9815477,-9.429531,-25.41297,-31.49067,1000.47
5.236789227,0.1364664,0.6666315,-0.8937021,-0.1871732,0.06416846,0.981489,-9.429531,-25.41297,-31.49067,1000.471
5.256606579,-0.2309344,1.09022,-0.8325397,-0.194996,0.06360963,0.9684967,-9.054201,-25.71457,-31.48666,1000.471
5.276424408,-0.3534013,-0.05952091,-0.5267274,-0.1949447,0.0582687,0.9747438,-9.054201,-25.71457,-31.48666,1000.468
5.296242237,0.3814003,-1.14875,-0.09859026,-0.1997775,0.05337662,0.9757105,-9.054201,-25.71457,-31.48666,1000.468
5.316059589,-0.04723396,0.2430426,1.063496,-0.1954262,0.05826969,0.9761945,-9.058286,-25.40177,-31.11204,1000.47
5.335877419,-0.7208021,-0.3015717,1.185821,-0.1945244,0.0680015,0.9714128,-9.058286,-25.40177,-31.11204,1000.47
5.355695248,0.8100346,-0.7856733,0.8800091,-0.1881737,0.0685434,0.9805517,-9.058993,-25.40899,-31.49206,1000.468
5.375513077,2.157171,-1.753877,-0.2209152,-0.1897303,0.08068788,0.9719344,-9.058993,-25.40899,-31.49206,1000.468
5.395329952,1.238669,-0.7251607,-0.3432401,-0.1857845,0.07732531,0.9825145,-9.058993,-25.40899,-31.49206,1000.471
5.415147781,0.3201669,-0.4225971,-0.5267274,-0.184319,0.07880419,0.9868581,-9.054201,-25.71457,-31.48666,1000.471
5.437443256,-1.02697,0.8481696,-0.5267274,-0.1848632,0.0782714,0.9689992,-9.054201,-25.71457,-31.48666,1000.469
5.457261086,-2.067938,0.9086823,-0.5878899,-0.1896779,0.07485885,0.9776963,-9.059111,-25.41019,-31.5554,1000.469
5.477077961,0.7488011,-1.814389,-1.505327,-0.1945233,0.06751341,0.9709277,-9.059111,-25.41019,-31.5554,1000.472
5.496895790,1.177435,-1.935415,-2.545089,-0.192589,0.06507128,0.9636644,-9.059111,-25.41019,-31.5554,1000.472
5.516713619,-0.1084674,0.9086823,0.207222,-0.1881912,0.06608652,0.9713683,-9.429531,-25.41297,-31.49067,1000.474
5.536531448,-0.8432691,-1.3908,-0.465565,-0.185264,0.06415275,0.9708597,-9.429531,-25.41297,-31.49067,1000.474
5.556348801,-0.2309344,-1.209262,-0.5267274,-0.1881563,0.06366713,0.9776305,-9.059111,-25.41019,-31.5554,1000.474
5.576166630,0.6263342,-1.693364,-0.1597527,-0.1934611,0.06269372,0.9892389,-9.059111,-25.41019,-31.5554,1000.474
5.595984459,0.993735,-0.5436226,0.3907094,-0.1910846,0.06755564,0.9810452,-9.059111,-25.41019,-31.5554,1000.47
5.615802288,0.7488011,-1.088237,-0.09859026,-0.1857093,0.06271289,0.9805082,-9.424738,-25.71855,-31.48527,1000.47
5.635619164,0.993735,-0.4225971,-0.465565,-0.1862218,0.06855816,0.9824718,-9.424738,-25.71855,-31.48527,1000.467
5.655436993,0.993735,-0.7251607,-0.5267274,-0.1886562,0.06609923,0.9776458,-9.429531,-25.41297,-31.49067,1000.467
5.675254822,-0.3534013,1.332271,0.6353592,-0.1920502,0.06217802,0.9742655,-9.429531,-25.41297,-31.49067,1000.468
5.697549343,0.3201669,0.1220172,0.6353592,-0.1881956,0.0680389,0.973309,-9.429531,-25.41297,-31.49067,1000.468
5.717367172,0.9325016,-0.05952091,0.3295469,-0.1862382,0.07147971,0.982487,-9.049275,-26.08969,-31.92354,1000.468
5.737185002,-0.4758682,0.1220172,-0.2820776,-0.187309,0.0860707,0.9777409,-9.049275,-26.08969,-31.92354,1000.468
5.757002831,0.3201669,-0.3620844,-0.8937021,-0.1901741,0.07338267,0.9723819,-9.734345,-25.73029,-31.92747,1000.465
5.776819706,1.177435,-0.7251607,-0.8325397,-0.1906659,0.07582063,0.9748106,-9.734345,-25.73029,-31.92747,1000.465
5.796637535,0.4426338,0.6061188,-0.465565,-0.1882277,0.07290464,0.9718862,-9.734345,-25.73029,-31.92747,1000.465
5.816455364,-0.8432691,1.513809,-0.1597527,-0.1872938,0.08070398,0.9733691,-9.424738,-25.71855,-31.48527,1000.465
5.836273194,0.9325016,-0.241059,-1.321839,-0.1823601,0.07197975,0.9795721,-9.424738,-25.71855,-31.48527,1000.466
5.856091023,-0.1697009,-0.4225971,-1.199515,-0.1920769,0.06900317,0.9776794,-9.424738,-25.71855,-31.48527,1000.466
5.875908375,-0.1084674,0.5456061,-0.6490523,-0.1969353,0.06458162,0.9718912,-9.048568,-26.08247,-31.54352,1000.469
5.895726204,0.8712681,-0.6041352,-0.6490523,-0.1891693,0.0699886,0.9762205,-9.048568,-26.08247,-31.54352,1000.469
5.915544033,1.116202,0.1220172,-1.138352,-0.1838327,0.07587344,0.9820136,-9.419813,-26.09367,-31.92215,1000.469
5.935361862,-0.4758682,0.6061188,-1.199515,-0.1900798,0.0568284,0.9727791,-9.419813,-26.09367,-31.92215,1000.469
5.955178738,-0.2921678,1.150733,-0.5267274,-0.1915039,0.05440146,0.9790493,-9.419813,-26.09367,-31.92215,1000.471
5.977473736,-0.5371017,2.784576,0.6353592,-0.1915852,0.06363194,0.9704089,-9.425564,-25.72697,-31.92863,1000.471
5.997291565,-0.2309344,1.634835,0.207222,-0.1886769,0.07097317,0.9796016,-9.425564,-25.72697,-31.92863,1000.472
6.017109394,0.6263342,0.7876569,-0.09859026,-0.1959747,0.06702244,0.9723811,-9.054318,-25.71577,-31.55,1000.472
6.036926746,1.60607,-0.4225971,-0.2209152,-0.1930217,0.06608479,0.9810483,-9.054318,-25.71577,-31.55,1000.472
6.056744576,0.6263342,0.4850934,0.6965217,-0.18816,0.06757542,0.98296,-9.054318,-25.71577,-31.55,1000.472
6.076562405,0.2589334,-0.7251607,0.08489711,-0.1916445,0.07630017,0.9738531,-9.419106,-26.08645,-31.54213,1000.471
6.096380234,-0.3534013,0.1220172,0.207222,-0.188219,0.07339976,0.9752674,-9.419106,-26.08645,-31.54213,1000.471
6.116197109,-1.088203,0.7271442,-0.09859026,-0.1915938,0.07046997,0.9791323,-10.09913,-26.10097,-31.9196,1000.471
6.136014938,-0.2921678,1.574322,0.3907094,-0.1843563,0.06753346,0.957357,-10.09913,-26.10097,-31.9196,1000.471
6.155832768,-0.2921678,0.364068,0.3295469,-0.196479,0.06700704,0.9670743,-10.09913,-26.10097,-31.9196,1000.472
6.175650597,-0.4146348,0.6061188,0.7576842,-0.1892577,0.07872511,0.9646815,-9.424738,-25.71855,-31.48527,1000.472
6.195468426,1.361136,-0.9672114,-0.4044026,-0.188256,0.07972861,0.9748175,-9.424738,-25.71855,-31.48527,1000.469
6.215285778,0.1364664,-0.05952091,-1.505327,-0.1805162,0.08658348,0.9738449,-9.054201,-25.71457,-31.48666,1000.469
6.237580776,0.07523298,-0.7856733,-2.361601,-0.193555,0.06947082,0.972863,-9.054201,-25.71457,-31.48666,1000.469
6.257398605,1.177435,-0.5436226,-1.749977,-0.1885924,0.06027841,0.9867864,-9.054201,-25.71457,-31.48666,1000.469
6.277216435,-0.4758682,0.9086823,-0.8325397,-0.1945021,0.06312874,0.9699396,-9.419106,-26.08645,-31.54213,1000.47
6.297033787,0.2589334,0.2430426,-0.5878899,-0.193531,0.0675325,0.9767145,-9.419106,-26.08645,-31.54213,1000.47
6.316851616,-0.7208021,1.695347,-0.8325397,-0.1911163,0.06557746,0.9684857,-9.064862,-25.0435,-31.56188,1000.462
6.336669445,0.3814003,-0.4831098,-1.199515,-0.1955227,0.06993362,0.9670841,-9.064862,-25.0435,-31.56188,1000.462
6.356486797,-0.5983351,0.9691951,-0.1597527,-0.1939956,0.05776805,0.9670132,-9.064862,-25.0435,-31.56188,1000.465
6.376304150,-1.149436,0.5456061,0.4518718,-0.190535,0.05538151,0.9795316,-8.683781,-25.71179,-31.55139,1000.465
6.396121979,-0.5371017,0.4245807,1.002334,-0.1939753,0.06560455,0.9858778,-8.683781,-25.71179,-31.55139,1000.463
6.415939808,-0.04723396,0.6666315,1.063496,-0.1896621,0.0743813,0.9815551,-9.054318,-25.71577,-31.55,1000.463
6.435757637,0.9325016,-0.1805463,-0.4044026,-0.1853152,0.07389359,0.9718754,-9.054318,-25.71577,-31.55,1000.464
6.455575466,1.483603,0.0615045,-0.7713773,-0.1945298,0.07337525,0.9786806,-9.054318,-25.71577,-31.55,1000.464
6.475392342,-0.2309344,0.8481696,-0.5267274,-0.195014,0.06799664,0.9704501,-9.06557,-25.05071,-31.9419,1000.464
6.495210171,-0.1084674,-0.6041352,-0.1597527,-0.195966,0.06458431,0.9709205,-9.06557,-25.05071,-31.9419,1000.464
6.517505646,-0.7820356,0.3035553,0.3907094,-0.1940047,0.06851672,0.9820315,-9.739138,-25.42471,-31.93287,1000.461
6.537323475,0.1976999,-0.05952091,-0.465565,-0.1906632,0.07093381,0.9675452,-9.739138,-25.42471,-31.93287,1000.461
6.557140350,-0.4758682,0.0615045,-0.7102148,-0.1920861,0.07095204,0.9781721,-9.739138,-25.42471,-31.93287,1000.462
6.576958180,0.4426338,-0.241059,-0.9548646,-0.1964773,0.06994148,0.9723988,-9.059818,-25.41741,-31.93542,1000.462
6.596776009,0.4426338,-0.3620844,-0.4044026,-0.1910967,0.06412489,0.9718568,-9.059818,-25.41741,-31.93542,1000.462
6.616593838,-0.6595686,-3.266694,-3.401363,-0.184357,0.06117765,0.9467055,-9.054318,-25.71577,-31.55,1000.462
6.636411667,0.5651007,1.029708,0.7576842,-0.1876743,0.0685553,0.9844105,-9.054318,-25.71577,-31.55,1000.463
6.656229019,0.3201669,-1.209262,-0.8325397,-0.187755,0.07534178,0.9718962,-9.054318,-25.71577,-31.55,1000.463
6.676046848,0.4426338,-1.269775,-1.688814,-0.1877457,0.07485954,0.9738243,-9.728595,-26.09699,-31.92099,1000.464
6.695864678,-1.088203,0.1825299,-0.6490523,-0.1872011,0.06268191,0.9708627,-9.728595,-26.09699,-31.92099,1000.464
6.715682507,-0.1697009,-0.5436226,-0.465565,-0.1940249,0.07094666,0.9801134,-9.431065,-25.42861,-32.31405,1000.46
6.735499859,-0.2921678,0.2430426,-0.2209152,-0.1881672,0.06708146,0.9800615,-9.431065,-25.42861,-32.31405,1000.46
6.755317211,0.5651007,-0.6041352,-0.465565,-0.1930769,0.06800085,0.9680261,-9.431065,-25.42861,-32.31405,1000.461
6.775135040,-0.2309344,-1.269775,-0.8937021,-0.1866869,0.06123772,0.9766447,-9.430357,-25.42139,-31.93403,1000.461
6.797430039,0.6263342,-1.935415,-0.3432401,-0.1953983,0.05975625,0.9868209,-9.430357,-25.42139,-31.93403,1000.462
6.817247868,2.279638,-0.3015717,-0.03742781,-0.1837416,0.06518336,0.9911291,-9.424856,-25.71976,-31.54861,1000.462
6.837065220,1.177435,0.4245807,-0.5878899,-0.1833562,0.07880219,0.9839567,-9.424856,-25.71976,-31.54861,1000.462
6.856883049,-0.1697009,1.271759,-0.2820776,-0.1828634,0.07147624,0.9737802,-9.424856,-25.71976,-31.54861,1000.462
6.876700878,-0.5371017,0.6666315,-0.465565,-0.1882146,0.07438064,0.9781685,-9.425564,-25.72697,-31.92863,1000.463
6.896518707,0.07523298,0.6666315,-0.5878899,-0.1896715,0.06753038,0.9675223,-9.425564,-25.72697,-31.92863,1000.463
6.916336537,0.0139995,-0.4225971,-0.7102148,-0.1823394,0.06857244,0.9800373,-9.734345,-25.73029,-31.92747,1000.464
6.936153412,-1.516837,1.513809,-0.09859026,-0.185205,0.0627283,0.985815,-9.734345,-25.73029,-31.92747,1000.464
6.955971241,0.6875677,0.0009917939,-0.465565,-0.1944562,0.06316154,0.9834545,-9.734345,-25.73029,-31.92747,1000.46
6.975789070,-0.2309344,0.9691951,-0.4044026,-0.1842798,0.06709925,0.979075,-9.430357,-25.42139,-31.93403,1000.46
6.995606899,-0.4758682,0.7876569,-0.2209152,-0.1954715,0.06019278,0.9660684,-9.430357,-25.42139,-31.93403,1000.461
7.015424728,0.5651007,0.5456061,0.1460596,-0.1959108,0.05826835,0.9766799,-8.683781,-25.71179,-31.55139,1000.461
7.035242081,0.1976999,0.8481696,0.5741968,-0.2008615,0.06502497,0.9622613,-8.683781,-25.71179,-31.55139,1000.46
7.057537079,0.3814003,-0.1200336,0.6965217,-0.1813967,0.07100037,0.9752178,-8.683781,-25.71179,-31.55139,1000.46
7.077354908,0.6875677,-1.511826,-0.4044026,-0.1931189,0.07579281,0.9685491,-9.055026,-25.72299,-31.93002,1000.461
7.097172737,-0.4146348,0.1220172,0.1460596,-0.1862551,0.07244535,0.9791132,-9.055026,-25.72299,-31.93002,1000.461
7.116990566,0.0139995,-0.7856733,-0.3432401,-0.1925578,0.0636269,0.9704142,-9.059818,-25.41741,-31.93542,1000.457
7.136807442,0.3201669,-0.9066988,-0.5878899,-0.1930572,0.0680149,0.9738182,-9.059818,-25.41741,-31.93542,1000.457
7.156625271,-0.4146348,-0.4225971,-0.03742781,-0.1939867,0.06706297,0.9849201,-9.059818,-25.41741,-31.93542,1000.458
7.176443100,1.422369,0.3035553,0.3295469,-0.1901239,0.07146309,0.983956,-9.055026,-25.72299,-31.93002,1000.458
7.196260929,0.1976999,0.5456061,-0.2209152,-0.1848005,0.07293867,0.9786251,-9.055026,-25.72299,-31.93002,1000.457
7.216078758,-0.2309344,-0.241059,-0.465565,-0.1895912,0.06612115,0.9887525,-9.055026,-25.72299,-31.93002,1000.457
7.235896587,0.8712681,0.9086823,0.02373465,-0.1916043,0.0670404,0.9704266,-9.419813,-26.09367,-31.92215,1000.457
7.255713940,-0.1084674,-0.5436226,-0.8937021,-0.1944442,0.06072575,0.9829593,-9.419813,-26.09367,-31.92215,1000.457
7.275531769,-0.5371017,2.058424,0.02373465,-0.1998561,0.06212017,0.9670677,-8.683781,-25.71179,-31.55139,1000.452
7.295349598,0.0139995,0.3035553,0.7576842,-0.1954617,0.05873318,0.9665435,-8.683781,-25.71179,-31.55139,1000.452
7.315167427,-0.1697009,0.364068,1.246984,-0.1921249,0.07434645,0.9723976,-8.683781,-25.71179,-31.55139,1000.452
7.337461472,-0.1697009,0.6061188,0.5741968,-0.1892473,0.08068805,0.9709664,-9.06557,-25.05071,-31.9419,1000.452
7.357279301,0.5038673,-0.4831098,-0.09859026,-0.1891742,0.06998508,0.9747725,-9.06557,-25.05071,-31.9419,1000.448
7.377097130,0.3201669,-1.814389,-0.2820776,-0.1881393,0.06710138,0.988267,-9.054318,-25.71577,-31.55,1000.448
7.396914959,-0.2309344,0.0009917939,0.2683845,-0.1891136,0.06709517,0.9877895,-9.054318,-25.71577,-31.55,1000.449
7.416732788,0.5038673,0.1825299,-0.09859026,-0.1882156,0.07780201,0.9834955,-9.054318,-25.71577,-31.55,1000.449
7.436550617,0.993735,0.7876569,-0.9548646,-0.190691,0.07824705,0.9714444,-9.059818,-25.41741,-31.93542,1000.448
7.456367970,0.8100346,0.7876569,-1.505327,-0.1906545,0.06849567,0.9660847,-9.059818,-25.41741,-31.93542,1000.448
7.476185799,0.8712681,-0.3015717,-1.444164,-0.2032145,0.06066873,0.9781802,-9.430357,-25.42139,-31.93403,1000.448
7.496003628,-0.8432691,1.513809,0.3907094,-0.197878,0.05922041,0.9718688,-9.430357,-25.42139,-31.93403,1000.448
7.515821457,-0.1697009,0.3035553,1.063496,-0.1950069,0.06702396,0.9709278,-9.430357,-25.42139,-31.93403,1000.445
7.535639286,-1.333137,0.7876569,0.6965217,-0.1872828,0.07875628,0.973359,-9.055026,-25.72299,-31.93002,1000.445
7.555457115,-0.7208021,0.1220172,-0.5878899,-0.1896872,0.07387446,0.9733471,-9.055026,-25.72299,-31.93002,1000.444
7.575273991,0.993735,-0.846186,-1.688814,-0.1959042,0.06413957,0.9882942,-9.430357,-25.42139,-31.93403,1000.444
7.597569466,-0.2921678,0.8481696,-0.7102148,-0.1978819,0.0543289,0.9626728,-9.430357,-25.42139,-31.93403,1000.446
7.617386818,-1.21067,0.5456061,0.8800091,-0.196817,0.04755566,0.9785605,-9.430357,-25.42139,-31.93403,1000.446
7.637204647,-0.3534013,1.150733,1.797446,-0.1969163,0.06117314,0.9718735,-8.67803,-26.07849,-31.54491,1000.447
7.657022476,1.851004,-2.419516,-1.444164,-0.1951368,0.07964182,0.9536168,-8.67803,-26.07849,-31.54491,1000.447
7.676839829,1.177435,1.029708,-0.3432401,-0.1809796,0.08219747,0.9733422,-9.425564,-25.72697,-31.92863,1000.444
7.696657658,-1.149436,-1.3908,-0.6490523,-0.2042178,0.0567308,0.9627198,-9.425564,-25.72697,-31.92863,1000.444
7.716475487,-0.3534013,-0.4831098,1.736283,-0.1979135,0.0640838,0.9694805,-9.425564,-25.72697,-31.92863,1000.444
7.736293316,-0.5371017,0.0009917939,1.980933,-0.1814523,0.08122696,0.9757532,-9.054318,-25.71577,-31.55,1000.444
7.756111145,-0.4146348,-0.846186,0.3295469,-0.1742271,0.09783655,0.9825566,-9.054318,-25.71577,-31.55,1000.445
7.775928974,-0.965736,-0.7856733,-1.688814,-0.1702939,0.09202063,0.9854012,-9.739138,-25.42471,-31.93287,1000.445
7.795745850,0.4426338,-1.3908,-3.095551,-0.1891049,0.06465704,0.9863289,-9.739138,-25.42471,-31.93287,1000.445
7.815563679,0.5651007,0.2430426,-2.361601,-0.1861907,0.06418053,0.9843798,-9.739138,-25.42471,-31.93287,1000.445
7.835381508,-1.088203,0.9086823,-1.444164,-0.1974637,0.06650454,0.962733,-9.733638,-25.72308,-31.54745,1000.442
7.855199337,-0.7208021,0.364068,-1.016027,-0.2003462,0.06602594,0.9723998,-9.733638,-25.72308,-31.54745,1000.442
7.877494335,-0.5371017,-0.846186,-1.994627,-0.188176,0.0607198,0.9669966,-9.43189,-25.43703,-32.7574,1000.443
7.897312165,-0.1697009,-0.6041352,-0.8325397,-0.1930589,0.06654711,0.9709147,-9.43189,-25.43703,-32.7574,1000.443
7.917129517,-1.455604,-0.3015717,-1.383002,-0.1920245,0.06024086,0.9785994,-9.43189,-25.43703,-32.7574,1000.444
7.936947346,-0.6595686,-0.5436226,-1.688814,-0.1833218,0.07002701,0.9795673,-9.419813,-26.09367,-31.92215,1000.444
7.956765175,-1.333137,0.4850934,-1.627652,-0.1920442,0.05876017,0.9703864,-9.419813,-26.09367,-31.92215,1000.442
7.976583004,-1.271903,0.1220172,-1.749977,-0.1988823,0.06310374,0.9689981,-9.436108,-25.0547,-31.94051,1000.442
7.996400833,-0.6595686,-0.4831098,-1.444164,-0.1906049,0.06022029,0.9670073,-9.436108,-25.0547,-31.94051,1000.443
8.016218662,-1.761771,-0.1805463,-1.260677,-0.1895738,0.05831161,0.9809895,-9.436108,-25.0547,-31.94051,1000.443
8.036035538,-1.271903,-0.3015717,-1.321839,-0.1900733,0.05536646,0.9722888,-9.744182,-25.0508,-31.55933,1000.443
8.055853367,-0.8432691,-0.7251607,-0.9548646,-0.1915371,0.06268855,0.9829534,-9.744182,-25.0508,-31.55933,1000.443
8.075671196,-0.6595686,-0.1200336,-0.7102148,-0.1847231,0.06028331,0.9804903,-9.42639,-25.73539,-32.37198,1000.44
8.095489025,-0.1697009,-0.9066988,-1.627652,-0.1875701,0.05494133,0.9925455,-9.42639,-25.73539,-32.37198,1000.44
8.115306854,0.2589334,0.364068,-1.321839,-0.1895935,0.05683092,0.9727764,-9.42639,-25.73539,-32.37198,1000.442
8.135124683,-1.333137,-0.05952091,-0.8937021,-0.1886421,0.05975398,0.9713382,-9.436108,-25.0547,-31.94051,1000.442
8.157419205,-1.455604,-0.05952091,-0.3432401,-0.1915104,0.05733004,0.9819604,-9.436108,-25.0547,-31.94051,1000.443
8.177237034,0.1364664,-1.027724,0.207222,-0.1876792,0.06415188,0.9756996,-9.428823,-25.40576,-31.11065,1000.443
8.197054863,-0.9045025,0.1825299,-0.2209152,-0.1842166,0.05785589,0.9824059,-9.428823,-25.40576,-31.11065,1000.444
8.216872692,0.1976999,-1.027724,-1.260677,-0.1929498,0.05440328,0.9829186,-9.428823,-25.40576,-31.11065,1000.444
8.236690521,0.8712681,0.0615045,-1.260677,-0.1929596,0.05292962,0.9776016,-9.055026,-25.72299,-31.93002,1000.442
8.256508350,0.7488011,-0.1200336,-0.7102148,-0.191046,0.05389479,0.9698732,-9.055026,-25.72299,-31.93002,1000.442
8.276326180,-0.6595686,0.4850934,0.207222,-0.1876493,0.05586245,0.9708301,-9.06557,-25.05071,-31.9419,1000.443
8.296143055,-0.2921678,0.0009917939,0.08489711,-0.1876182,0.05588472,0.980001,-9.06557,-25.05071,-31.9419,1000.443
8.315960884,-0.04723396,-0.4225971,-0.09859026,-0.1852029,0.05735221,0.9775819,-9.06557,-25.05071,-31.9419,1000.445
8.335778713,-0.3534013,-0.6646479,-0.03742781,-0.1890334,0.0539529,0.9896523,-9.430357,-25.42139,-31.93403,1000.445
8.355596542,-1.02697,0.8481696,0.207222,-0.1856717,0.05540668,0.9795051,-9.430357,-25.42139,-31.93403,1000.443
8.375414372,1.238669,-0.1805463,-0.3432401,-0.1856919,0.06223652,0.9848499,-9.055852,-25.73141,-32.37337,1000.443
8.395232201,1.422369,0.4245807,-1.016027,-0.1842881,0.06416013,0.9718198,-9.055852,-25.73141,-32.37337,1000.44
8.417526722,0.5651007,-0.7251607,-0.6490523,-0.1881225,0.05733594,0.977115,-9.055852,-25.73141,-32.37337,1000.44
8.437344551,0.0139995,0.0615045,0.3295469,-0.1968732,0.05435971,0.9732862,-9.430357,-25.42139,-31.93403,1000.442
8.457162380,0.3814003,0.3035553,0.7576842,-0.1929962,0.05534784,0.9708568,-9.430357,-25.42139,-31.93403,1000.442
8.476980209,-0.1697009,0.0615045,0.5741968,-0.18916,0.06803973,0.9757277,-9.425564,-25.72697,-31.92863,1000.444
8.496798039,-0.1084674,0.7271442,-0.03742781,-0.1896316,0.06804776,0.9800745,-9.425564,-25.72697,-31.92863,1000.444
8.516615868,1.728537,-1.3908,-1.199515,-0.1867715,0.07046586,0.9670389,-9.425564,-25.72697,-31.92863,1000.443
8.536433697,-0.2921678,-0.846186,-0.8937021,-0.1789329,0.0646806,0.9742065,-9.430357,-25.42139,-31.93403,1000.443
8.556250572,-0.3534013,-0.1805463,-0.6490523,-0.1852143,0.06174391,0.9814659,-9.430357,-25.42139,-31.93403,1000.445
8.576068401,-0.1697009,-0.4225971,-0.8937021,-0.1842351,0.060287,0.9809704,-9.430357,-25.42139,-31.93403,1000.445
8.595886231,-0.5371017,0.1220172,-1.199515,-0.1812876,0.06032319,0.9896426,-9.430357,-25.42139,-31.93403,1000.448
8.615704060,-0.4146348,0.1220172,-1.383002,-0.1881111,0.05294424,0.973231,-9.430357,-25.42139,-31.93403,1000.448
8.635521889,-0.6595686,0.3035553,-0.5878899,-0.1938979,0.05001593,0.9829013,-9.055026,-25.72299,-31.93002,1000.444
8.655339718,-0.2309344,0.6666315,-0.03742781,-0.190499,0.05394066,0.9877295,-9.055026,-25.72299,-31.93002,1000.444
8.675157547,1.78977,-0.7251607,-1.444164,-0.1823007,0.06077813,0.9785489,-9.055026,-25.72299,-31.93002,1000.446
8.697452068,0.8712681,-0.3620844,-1.811139,-0.1881673,0.0597483,0.9679568,-9.055026,-25.72299,-31.93002,1000.446
8.717269898,-0.2921678,0.2430426,-0.8937021,-0.1929412,0.04463198,0.9693534,-9.055026,-25.72299,-31.93002,1000.439
8.737087727,-1.21067,0.1825299,0.7576842,-0.193886,0.04464687,0.9775642,-9.424856,-25.71976,-31.54861,1000.439
8.756905556,-0.9045025,0.9691951,0.8188466,-0.1968508,0.05535349,0.9814968,-9.424856,-25.71976,-31.54861,1000.436
8.776723385,0.3814003,0.4850934,0.3295469,-0.1915612,0.05729371,0.9669974,-9.424856,-25.71976,-31.54861,1000.436
8.796541214,1.728537,-1.209262,-0.3432401,-0.1905607,0.05731867,0.9751977,-9.055026,-25.72299,-31.93002,1000.436
8.816359043,1.544836,-1.14875,-0.09859026,-0.1818237,0.06126288,0.9766182,-9.055026,-25.72299,-31.93002,1000.436
8.836176872,-0.2309344,-0.7856733,0.5130343,-0.1818117,0.05736046,0.973702,-9.055852,-25.73141,-32.37337,1000.439
8.855993748,0.07523298,-0.7856733,0.1460596,-0.1813175,0.06861262,0.9945121,-9.055852,-25.73141,-32.37337,1000.439
8.875811577,-0.04723396,0.9086823,-0.7713773,-0.1808127,0.06178413,0.9886822,-9.055852,-25.73141,-32.37337,1000.439
8.895629406,0.2589334,0.7271442,-1.260677,-0.1852454,0.06318828,0.974716,-9.049275,-26.08969,-31.92354,1000.439
8.915447235,0.07523298,0.8481696,-1.260677,-0.1959081,0.05631479,0.9742565,-9.049275,-26.08969,-31.92354,1000.442
8.935265064,-0.1697009,-0.1805463,-0.465565,-0.198758,0.04412657,0.9742095,-9.436108,-25.0547,-31.94051,1000.442
8.957560539,0.5651007,-0.5436226,0.3907094,-0.1968742,0.05778107,0.9786134,-9.436108,-25.0547,-31.94051,1000.443
8.977377892,0.9325016,-0.1200336,0.207222,-0.1837586,0.05734922,0.9732298,-9.436108,-25.0547,-31.94051,1000.443
8.997195721,1.361136,-0.6646479,-0.8325397,-0.1838273,0.06756643,0.9699039,-9.059818,-25.41741,-31.93542,1000.439
9.017013073,-0.4146348,0.3035553,-0.465565,-0.1881105,0.05490014,0.9766199,-9.059818,-25.41741,-31.93542,1000.439
9.036830902,-0.1697009,-0.1200336,-0.6490523,-0.1881214,0.05684784,0.97663,-9.059111,-25.41019,-31.5554,1000.44
9.056648731,-1.945472,2.179449,0.207222,-0.1910312,0.05830523,0.98148,-9.059111,-25.41019,-31.5554,1000.44
9.076466560,-2.067938,2.179449,0.5130343,-0.1934394,0.05293179,0.9795349,-9.059111,-25.41019,-31.5554,1000.442
9.096284390,0.6263342,-0.3015717,-0.2820776,-0.1910771,0.05973906,0.9703861,-9.739964,-25.43313,-32.37622,1000.442
9.116102219,0.9325016,-0.1200336,-0.5267274,-0.1847656,0.06318611,0.9727827,-9.739964,-25.43313,-32.37622,1000.444
9.135920048,-0.2309344,-0.846186,-0.465565,-0.1934814,0.05925712,0.977637,-9.436108,-25.0547,-31.94051,1000.444
9.155737877,-0.4146348,0.4245807,-0.03742781,-0.1895728,0.05342362,0.9732414,-9.436108,-25.0547,-31.94051,1000.445
9.175555706,-0.7208021,-0.1200336,0.4518718,-0.1842493,0.05929908,0.9751733,-9.436108,-25.0547,-31.94051,1000.445
9.195372582,-1.02697,0.364068,-0.1597527,-0.175486,0.06326205,0.9843165,-9.054318,-25.71577,-31.55,1000.447
9.215190411,-0.1084674,-0.7251607,-1.321839,-0.178862,0.06082035,0.9886665,-9.054318,-25.71577,-31.55,1000.447
9.237485886,0.6875677,1.271759,-1.138352,-0.193905,0.05098861,0.9824237,-9.429649,-25.41418,-31.55401,1000.444
9.257303238,1.667303,0.3035553,-0.8937021,-0.1929728,0.04998698,0.9688984,-9.429649,-25.41418,-31.55401,1000.444
9.277121067,0.3201669,0.7876569,0.08489711,-0.1953777,0.04461588,0.9679186,-9.429649,-25.41418,-31.55401,1000.442
9.296938896,0.8100346,-1.027724,0.1460596,-0.1939176,0.04706861,0.9722673,-9.425564,-25.72697,-31.92863,1000.442
9.316756725,0.9325016,-1.209262,0.3907094,-0.190064,0.05781749,0.9790589,-9.425564,-25.72697,-31.92863,1000.443
9.336574555,-0.04723396,0.4245807,0.6965217,-0.1905705,0.06171153,0.9795643,-9.049275,-26.08969,-31.92354,1000.443
9.356391907,0.3201669,0.0615045,0.6353592,-0.1925606,0.06411383,0.9704167,-9.049275,-26.08969,-31.92354,1000.444
9.376209736,0.3201669,-0.241059,0.8188466,-0.178957,0.06808555,0.972776,-9.049275,-26.08969,-31.92354,1000.444
9.396027565,0.0139995,-0.05952091,-0.2209152,-0.1808804,0.06857999,0.9800293,-9.049275,-26.08969,-31.92354,1000.44
9.415845394,0.07523298,-0.7856733,-0.5267274,-0.18667,0.06320533,0.9848602,-9.049275,-26.08969,-31.92354,1000.44
9.435663223,0.2589334,0.4850934,-0.465565,-0.1885957,0.05440953,0.9761373,-9.430357,-25.42139,-31.93403,1000.441
9.455481053,-0.3534013,-0.241059,-0.09859026,-0.1880652,0.05151042,0.9843251,-9.430357,-25.42139,-31.93403,1000.441
9.475298882,0.1364664,-0.1805463,-0.1597527,-0.1920933,0.06605818,0.9680108,-9.430357,-25.42139,-31.93403,1000.441
9.495116711,0.3201669,-0.6041352,-0.7102148,-0.1910808,0.06364734,0.9757156,-9.424856,-25.71976,-31.54861,1000.441
9.517410755,0.07523298,-0.5436226,-0.7713773,-0.1910563,0.05779839,0.973272,-9.424856,-25.71976,-31.54861,1000.446
9.537228584,-0.3534013,-0.1805463,-0.1597527,-0.1954666,0.06166293,0.9699373,-9.429649,-25.41418,-31.55401,1000.446
9.557046414,0.07523298,-0.9672114,-0.3432401,-0.1880608,0.05395794,0.989647,-9.429649,-25.41418,-31.55401,1000.44
9.576864243,0.3201669,0.4245807,-0.03742781,-0.1798145,0.05398549,0.9833272,-9.429649,-25.41418,-31.55401,1000.44
9.596682072,-0.4146348,0.1220172,-0.09859026,-0.186134,0.05786574,0.990622,-9.054318,-25.71577,-31.55,1000.442
9.616499901,0.5038673,0.1220172,-0.6490523,-0.1876509,0.06026118,0.9776102,-9.054318,-25.71577,-31.55,1000.442
9.636317730,0.3814003,0.9086823,-0.6490523,-0.1852956,0.06804112,0.9679837,-9.425564,-25.72697,-31.92863,1000.443
9.656135559,0.0139995,-0.4831098,-1.07719,-0.1929678,0.05292376,0.9751883,-9.425564,-25.72697,-31.92863,1000.443
9.675953388,1.177435,-0.846186,-1.016027,-0.1934901,0.06022863,0.9766768,-9.425564,-25.72697,-31.92863,1000.441
9.695771218,0.6875677,-0.9066988,-0.5878899,-0.1881334,0.05928364,0.9771251,-9.425564,-25.72697,-31.92863,1000.441
9.715589047,-0.4758682,-0.7856733,-0.3432401,-0.1861777,0.05685674,0.9761366,-9.425564,-25.72697,-31.92863,1000.442
9.735406399,-0.2309344,-0.241059,-0.465565,-0.1871378,0.05637181,0.9790355,-9.055026,-25.72299,-31.93002,1000.442
9.755224228,0.6875677,-1.209262,-0.6490523,-0.187163,0.05586497,0.9708275,-9.055026,-25.72299,-31.93002,1000.444
9.777519226,-0.5371017,0.0615045,-0.3432401,-0.1832902,0.06467201,0.9800224,-9.055026,-25.72299,-31.93002,1000.444
9.797337055,0.07523298,0.5456061,-0.7102148,-0.1827777,0.06176,0.9829007,-9.055852,-25.73141,-32.37337,1000.445
9.817154885,0.3201669,0.2430426,-1.260677,-0.1895815,0.05879502,0.9795439,-9.055852,-25.73141,-32.37337,1000.445
9.836972714,0.0139995,0.5456061,-0.8325397,-0.1842297,0.05491325,0.9737026,-9.425564,-25.72697,-31.92863,1000.447
9.856790543,0.7488011,-1.027724,-0.7713773,-0.1851838,0.05394374,0.9775643,-9.425564,-25.72697,-31.92863,1000.447
9.876608372,0.5651007,-0.5436226,-0.8325397,-0.1880777,0.05639021,0.9886943,-9.425564,-25.72697,-31.92863,1000.448
9.896426201,0.5038673,0.2430426,-0.5878899,-0.1851914,0.05736041,0.9809607,-8.684488,-25.71901,-31.9314,1000.448
9.916244030,0.4426338,0.1825299,-0.8937021,-0.1876618,0.06074224,0.9751993,-8.684488,-25.71901,-31.9314,1000.446
9.936061859,0.07523298,0.9691951,-0.3432401,-0.1866526,0.05392916,0.9746762,-8.684488,-25.71901,-31.9314,1000.446
9.955878735,0.8712681,0.6061188,-0.465565,-0.1896236,0.05778719,0.9655414,-9.059818,-25.41741,-31.93542,1000.447
9.975696564,0.0139995,0.0615045,-0.1597527,-0.1852034,0.05686294,0.9766141,-9.059818,-25.41741,-31.93542,1000.447
9.995514393,-0.1084674,-0.241059,-0.2209152,-0.1973491,0.0548535,0.9771528,-9.425564,-25.72697,-31.92863,1000.451
10.015332222,0.8100346,-0.9066988,-0.4044026,-0.1910355,0.05879099,0.981,-9.425564,-25.72697,-31.92863,1000.451
10.035150051,0.3201669,0.5456061,0.3907094,-0.193506,0.05923954,0.9703969,-9.425564,-25.72697,-31.92863,1000.452
10.057445049,1.238669,-0.4225971,-0.3432401,-0.1829431,0.07484135,0.9559388,-9.049275,-26.08969,-31.92354,1000.452
10.077262878,-0.4758682,-0.846186,-0.6490523,-0.1852825,0.06511723,0.9670033,-9.049275,-26.08969,-31.92354,1000.45
10.097080708,-0.2309344,-0.4225971,-0.9548646,-0.1837099,0.061295,0.994005,-9.055026,-25.72299,-31.93002,1000.45
10.116898537,0.5038673,-0.05952091,-0.7102148,-0.185241,0.06416916,0.9776171,-9.055026,-25.72299,-31.93002,1000.452
10.136716366,1.054968,-0.1200336,-0.9548646,-0.180369,0.06322282,0.978551,-9.055026,-25.72299,-31.93002,1000.452
10.156534195,0.8712681,-1.269775,-1.688814,-0.1789434,0.06125104,0.9655007,-9.413355,-26.45315,-31.53565,1000.453
10.176351547,0.1364664,-1.088237,-1.444164,-0.1836631,0.05057329,0.9900882,-9.413355,-26.45315,-31.53565,1000.453
10.196169376,1.054968,-0.5436226,-0.8325397,-0.1890625,0.04855455,0.9722483,-9.060644,-25.42583,-32.37877,1000.447
10.215987206,-0.1697009,0.5456061,-0.2209152,-0.1852077,0.06028196,0.9809757,-9.060644,-25.42583,-32.37877,1000.447
10.235805035,0.3201669,0.364068,-0.7102148,-0.1905841,0.06561279,0.9819978,-9.060644,-25.42583,-32.37877,1000.448
10.255622864,0.3814003,-0.241059,-0.8325397,-0.1944771,0.05483579,0.9636221,-9.428823,-25.40576,-31.11065,1000.448
10.275440693,0.993735,-1.511826,-0.465565,-0.1920405,0.05631852,0.9674777,-9.428823,-25.40576,-31.11065,1000.45
10.295258045,-0.9045025,-0.6041352,0.207222,-0.1929171,0.04709356,0.9804674,-9.42639,-25.73539,-32.37198,1000.45
10.317553520,0.3814003,-0.5436226,0.6353592,-0.1900083,0.05492406,0.9906281,-9.42639,-25.73539,-32.37198,1000.453
10.337371349,1.054968,-0.7251607,-0.1597527,-0.176933,0.06521861,0.991092,-9.42639,-25.73539,-32.37198,1000.453
10.357189179,1.116202,-1.088237,-0.5267274,-0.1866995,0.06025098,0.9713301,-9.055026,-25.72299,-31.93002,1000.451
10.377007008,0.1364664,-0.5436226,-0.4044026,-0.1856886,0.05930559,0.9809734,-9.055026,-25.72299,-31.93002,1000.451
10.396824837,0.3814003,0.364068,0.02373465,-0.1842782,0.06270052,0.9722948,-9.431182,-25.42981,-32.37738,1000.452
10.416642666,0.6263342,-0.05952091,-0.3432401,-0.1828672,0.06951799,0.9694261,-9.431182,-25.42981,-32.37738,1000.452
10.436459541,0.1976999,-0.7251607,-1.199515,-0.1823307,0.06320103,0.9737348,-9.431182,-25.42981,-32.37738,1000.452
10.456277371,-0.8432691,-0.1200336,-0.7713773,-0.1856973,0.06174373,0.982434,-9.420638,-26.10209,-32.3655,1000.452
10.476095200,-0.4758682,0.0615045,-0.5878899,-0.1861733,0.05783762,0.9790378,-9.420638,-26.10209,-32.3655,1000.455
10.495913029,-0.2309344,0.1220172,-0.2820776,-0.1803576,0.06029776,0.9770877,-9.425564,-25.72697,-31.92863,1000.455
10.515730858,-0.9045025,0.6666315,-0.1597527,-0.1856685,0.05687566,0.9828914,-9.425564,-25.72697,-31.92863,1000.455
10.535548687,-0.8432691,1.211246,-0.465565,-0.1798417,0.06032137,0.9857733,-9.425564,-25.72697,-31.92863,1000.455
10.555366516,-0.2921678,1.029708,-0.5878899,-0.1867224,0.06316783,0.9694146,-9.733638,-25.72308,-31.54745,1000.454
10.575184345,-0.1084674,0.9691951,-0.8937021,-0.1803401,0.05835475,0.9790085,-9.733638,-25.72308,-31.54745,1000.454
10.597479344,-0.1697009,-0.5436226,-1.016027,-0.1910204,0.04902437,0.9693654,-9.049275,-26.08969,-31.92354,1000.456
10.617297173,0.1364664,0.1825299,-0.465565,-0.1885608,0.05199014,0.9823996,-9.049275,-26.08969,-31.92354,1000.456
10.637115002,0.07523298,0.4850934,0.1460596,-0.1924738,0.05244287,0.9766312,-9.049275,-26.08969,-31.92354,1000.457
10.656932831,0.3814003,0.3035553,0.4518718,-0.1847537,0.05781705,0.9674455,-8.314775,-25.72344,-32.37615,1000.457
10.676750660,0.4426338,-0.4225971,-0.1597527,-0.1808439,0.06176187,0.9795114,-8.314775,-25.72344,-32.37615,1000.457
10.696568489,0.3201669,-0.3015717,-0.5267274,-0.1832712,0.0597969,0.9775839,-9.734345,-25.73029,-31.92747,1000.457
10.716386318,0.8100346,-1.511826,-2.239276,-0.1808161,0.05738189,0.9804541,-9.734345,-25.73029,-31.92747,1000.458
10.736203194,-0.2309344,0.7271442,-0.465565,-0.1789078,0.06225418,0.9775726,-9.734345,-25.73029,-31.92747,1000.458
10.756021023,-0.2921678,0.4245807,-0.465565,-0.1876754,0.06317686,0.9752119,-9.734345,-25.73029,-31.92747,1000.456
10.775838852,0.2589334,-0.3620844,-1.07719,-0.182305,0.06419715,0.9829106,-9.734345,-25.73029,-31.92747,1000.456
10.795656681,1.361136,-0.6646479,-1.627652,-0.1842444,0.0593026,0.9766214,-9.054318,-25.71577,-31.55,1000.457
10.815474510,-1.333137,0.3035553,-0.4044026,-0.1925143,0.05436948,0.967953,-9.054318,-25.71577,-31.55,1000.457
10.835292340,0.1364664,-0.4831098,0.1460596,-0.1929525,0.05342358,0.9805002,-9.054318,-25.71577,-31.55,1000.458
10.855110169,-0.2921678,0.6666315,0.8188466,-0.1837405,0.06176201,0.9858021,-9.060644,-25.42583,-32.37877,1000.458
10.877405167,-0.4758682,-0.3620844,-0.4044026,-0.1774717,0.06664523,0.97807,-9.060644,-25.42583,-32.37877,1000.454
10.897222996,0.2589334,-1.330288,-1.138352,-0.1797931,0.05546736,0.9920229,-9.419813,-26.09367,-31.92215,1000.454
10.917040825,0.4426338,0.3035553,-1.138352,-0.1827417,0.05591926,0.9838358,-9.419813,-26.09367,-31.92215,1000.457
10.936858654,0.5651007,0.364068,-0.8325397,-0.1881329,0.05683964,0.9732511,-9.419813,-26.09367,-31.92215,1000.457
10.956676483,0.2589334,-0.05952091,-0.5878899,-0.182792,0.05490557,0.9674198,-9.430357,-25.42139,-31.93403,1000.455
10.976494313,-0.965736,0.364068,0.02373465,-0.1891225,0.05340036,0.9626201,-9.430357,-25.42139,-31.93403,1000.455
10.996312141,-0.5983351,-1.269775,0.08489711,-0.189557,0.05294607,0.9771004,-9.425564,-25.72697,-31.92863,1000.458
11.016129971,-0.2309344,-0.241059,0.02373465,-0.1890782,0.05636526,0.9804941,-9.425564,-25.72697,-31.92863,1000.458
11.035947800,0.2589334,-1.632851,-0.4044026,-0.1823694,0.07246198,0.977644,-9.425564,-25.72697,-31.92863,1000.455
11.055765629,0.5038673,-0.241059,-0.7713773,-0.1852481,0.06367519,0.9747185,-9.430357,-25.42139,-31.93403,1000.455
11.075583458,0.2589334,-0.4225971,-0.6490523,-0.1788893,0.0568898,0.9741663,-9.430357,-25.42139,-31.93403,1000.455
11.095400810,-0.6595686,-0.6041352,-0.4044026,-0.1827619,0.05981582,0.9843386,-9.42639,-25.73539,-32.37198,1000.455
11.115218639,-0.4758682,-0.4225971,-0.5878899,-0.181262,0.0569194,0.9915558,-9.42639,-25.73539,-32.37198,1000.456
11.137513638,-0.2309344,0.4850934,-0.8937021,-0.1852067,0.05979387,0.9804905,-9.42639,-25.73539,-32.37198,1000.456
11.157331467,-0.1697009,0.364068,-1.566489,-0.1827723,0.05785289,0.9780538,-9.429649,-25.41418,-31.55401,1000.452
11.177149296,0.0139995,0.1220172,-1.627652,-0.1857101,0.0519572,0.962594,-9.429649,-25.41418,-31.55401,1000.452
11.196967125,-0.1697009,-0.4225971,-0.8937021,-0.1900466,0.04854131,0.9688749,-9.431182,-25.42981,-32.37738,1000.455
11.216784954,-0.1697009,-0.3620844,-0.5267274,-0.1910503,0.05878044,0.976656,-9.431182,-25.42981,-32.37738,1000.455
11.236602783,0.2589334,-0.3620844,-0.7713773,-0.1789095,0.06518627,0.9819317,-9.431182,-25.42981,-32.37738,1000.455
11.256420612,-0.3534013,0.0615045,-1.505327,-0.177927,0.06079843,0.9775597,-9.734345,-25.73029,-31.92747,1000.455
11.276238442,-1.149436,-0.1200336,-1.383002,-0.1807599,0.05204447,0.9881492,-9.734345,-25.73029,-31.92747,1000.458
11.296056271,-1.271903,1.029708,-0.5267274,-0.1807391,0.04863717,0.9886143,-9.734345,-25.73029,-31.92747,1000.458
11.315874100,-0.1697009,-0.241059,-0.465565,-0.1827581,0.05590754,0.9790092,-9.430357,-25.42139,-31.93403,1000.456
11.335691929,-0.04723396,0.4245807,-1.138352,-0.183209,0.05250826,0.9838209,-9.430357,-25.42139,-31.93403,1000.456
11.355509758,-0.4758682,-0.1200336,-0.7102148,-0.1881341,0.05146121,0.9640527,-9.430357,-25.42139,-31.93403,1000.459
11.375327110,-0.2309344,-0.4225971,0.02373465,-0.1856008,0.04714655,0.9867026,-9.430357,-25.42139,-31.93403,1000.459
11.395144940,0.07523298,0.2430426,-0.1597527,-0.181346,0.06223691,0.9756551,-9.430357,-25.42139,-31.93403,1000.459
11.417440415,0.1364664,-0.6646479,-1.138352,-0.1817882,0.05639949,0.9790064,-9.733638,-25.72308,-31.54745,1000.459
11.437258244,-0.1697009,-0.3620844,-0.7102148,-0.1788283,0.04862263,0.9784675,-9.733638,-25.72308,-31.54745,1000.456
11.457076073,0.1364664,-0.846186,-0.465565,-0.1890777,0.0553879,0.979041,-9.424856,-25.71976,-31.54861,1000.456
11.476893902,-0.2309344,0.7271442,-0.2209152,-0.1779063,0.05885777,0.9804457,-9.424856,-25.71976,-31.54861,1000.458
11.496711731,0.5651007,-0.05952091,-1.260677,-0.1837951,0.06416734,0.9737477,-9.424856,-25.71976,-31.54861,1000.458
11.516529560,0.0139995,0.1825299,-1.749977,-0.1866969,0.05389752,0.9616439,-9.059818,-25.41741,-31.93542,1000.46
11.536346913,0.4426338,-1.269775,-1.566489,-0.1891722,0.0602091,0.9592764,-9.059818,-25.41741,-31.93542,1000.46
11.556164742,-0.4758682,-0.3015717,-1.07719,-0.1785116,0.06952541,0.9631274,-8.684488,-25.71901,-31.9314,1000.46
11.575982094,0.9325016,-2.964131,-2.422764,-0.1795371,0.08072668,0.9660867,-8.684488,-25.71901,-31.9314,1000.46
11.595799923,0.993735,-3.085156,-3.707175,-0.1610046,0.08477043,0.9877264,-8.684488,-25.71901,-31.9314,1000.461
11.615617752,0.6875677,-1.14875,-4.624612,-0.1674141,0.09885267,0.9854205,-9.048568,-26.08247,-31.54352,1000.461
11.635435581,1.422369,-1.693364,-6.520648,-0.163143,0.1066216,0.9670953,-9.048568,-26.08247,-31.54352,1000.458
11.655253410,1.238669,-2.72208,-8.722497,-0.1641538,0.1149001,0.9695567,-8.685314,-25.72743,-32.37476,1000.458
11.677548409,3.320607,-3.750796,-11.65829,-0.1637597,0.1216809,0.953661,-8.685314,-25.72743,-32.37476,1000.46
11.697366238,5.892412,-6.292329,-14.8999,-0.1507051,0.138316,0.9585017,-8.685314,-25.72743,-32.37476,1000.46
11.717184067,13.79153,-15.73231,-21.87243,-0.1502291,0.1392889,0.9570562,-9.042816,-26.44916,-31.53704,1000.463
11.737001896,13.5466,-7.078995,-25.97031,-0.1255725,0.1622898,0.9517298,-9.042816,-26.44916,-31.53704,1000.463
11.756819725,13.24043,-13.7959,-31.71958,-0.135203,0.1500863,0.9599254,-9.042109,-26.44195,-31.15702,1000.465
11.776637554,16.05717,-14.76411,-34.34957,-0.149678,0.1241827,0.9511834,-9.042109,-26.44195,-31.15702,1000.465
11.796455383,14.8325,-16.1559,-33.98259,-0.1414666,0.1310295,0.9458641,-9.042109,-26.44195,-31.15702,1000.461
11.816273213,11.40342,-15.91385,-34.7777,-0.1261745,0.1307729,1.008527,-9.042109,-26.44195,-31.15702,1000.461
11.836091042,10.42369,-11.79899,-34.59422,-0.1237719,0.1297871,0.9983728,-9.042109,-26.44195,-31.15702,1000.464
11.855908871,9.38272,-11.61745,-36.18444,-0.1058774,0.1459417,0.9954618,-8.287172,-27.14332,-29.88011,1000.464
11.875726700,6.994615,-11.01232,-39.1814,-0.10168,0.1653909,0.9747835,-8.287172,-27.14332,-29.88011,1000.46
11.895544529,5.035144,-10.10463,-42.36185,-0.09970599,0.1458666,0.9510213,-8.287172,-27.14332,-29.88011,1000.46
11.915362358,10.17875,-19.18154,-47.13252,-0.08988479,0.1498955,0.9852582,-7.905132,-27.87272,-29.86854,1000.461
11.935180187,6.810915,-10.46771,-48.84507,-0.08164747,0.1709382,1.010903,-7.905132,-27.87272,-29.86854,1000.461
11.957475186,7.913117,-10.40719,-51.41389,-0.08353098,0.1387067,0.9759952,-5.736377,-28.20055,-29.04679,1000.458
11.977293015,6.627214,-13.13027,-53.49342,-0.08177792,0.1468902,0.9330692,-5.736377,-28.20055,-29.04679,1000.458
11.997110844,2.891973,-9.136427,-55.6341,-0.07420441,0.1368607,0.9981378,-5.736377,-28.20055,-29.04679,1000.458
12.016928673,0.3814003,-9.075913,-56.18456,-0.09366225,0.1181796,0.9662915,-5.359381,-28.55605,-28.66168,1000.458
12.036746502,3.259373,-11.13335,-57.16316,-0.09222618,0.1196374,0.9619471,-5.359381,-28.55605,-28.66168,1000.459
12.056564331,4.116642,-14.03796,-60.5271,-0.08693009,0.1215823,0.9493785,-4.253518,-28.1774,-28.67232,1000.459
12.076382160,2.524572,-11.25437,-61.56686,-0.09444655,0.07039971,0.9428819,-4.253518,-28.1774,-28.67232,1000.457
12.096199989,5.708712,-16.57949,-61.93383,-0.08213395,0.05052919,0.9552621,-4.253518,-28.1774,-28.67232,1000.457
12.116017818,3.994175,-11.49642,-61.62802,-0.08841204,0.00540801,1.036637,-2.451334,-28.82321,-28.28713,1000.456
12.135835648,11.03602,-8.410274,-58.93687,-0.1060334,-0.0196962,0.9622724,-2.451334,-28.82321,-28.28713,1000.456
12.155653477,4.60651,-16.70051,-52.02552,-0.07901575,0.0277104,0.9763657,-0.6034365,-28.49771,-28.29948,1000.453
12.175471306,-5.007145,-12.58565,-46.45973,-0.07386844,0.0574147,0.9658711,-0.6034365,-28.49771,-28.29948,1000.453
12.195288658,-12.04899,-10.28617,-43.46277,-0.07431287,0.04522032,0.9580882,-0.6034365,-28.49771,-28.29948,1000.454
12.215106487,-9.599655,-11.67796,-39.6707,-0.08314822,0.0456057,0.9349699,0.4569635,-29.1587,-28.29153,1000.454
12.237401962,-12.72256,-10.46771,-36.85723,-0.05219961,0.1199492,1.005171,0.4569635,-29.1587,-28.29153,1000.456
12.257219791,-18.41727,1.332271,-38.87559,-0.0180703,0.1138317,1.019915,2.303194,-28.77931,-28.68497,1000.456
12.277037621,-8.80362,-1.693364,-47.13252,-0.02418533,0.0508826,0.9771499,2.303194,-28.77931,-28.68497,1000.458
12.296855450,5.586245,-5.384639,-50.43529,-0.08539622,-0.02823913,1.009901,2.303194,-28.77931,-28.68497,1000.458
12.316673279,20.83338,-9.681041,-52.27016,-0.112095,-0.01660934,1.043894,2.971262,-28.10695,-29.07941,1000.455
12.336491108,9.750121,5.265597,-45.23648,-0.09768045,-0.01225932,0.9994311,2.971262,-28.10695,-29.07941,1000.455
12.356308460,-2.741507,14.28199,-39.54837,-0.1055508,-0.04462878,0.9201487,4.824662,-28.07982,-28.70634,1000.457
12.376126289,-6.966616,0.1825299,-38.32513,-0.1139973,-0.06694254,0.9736577,4.824662,-28.07982,-28.70634,1000.457
12.395944119,4.422809,-4.900537,-36.7349,-0.1308923,-0.04787419,1.042388,4.824662,-28.07982,-28.70634,1000.46
12.415761948,7.423249,-0.5436226,-32.8205,-0.1044589,-0.008850931,1.013966,6.245057,-28.06455,-28.71166,1000.46
12.435579777,-0.4146348,3.873805,-31.53609,-0.09924801,-0.001100417,0.9859821,6.245057,-28.06455,-28.71166,1000.454
12.455397606,-12.9675,4.478932,-31.29144,-0.1111646,-0.06405511,0.9533845,6.986133,-28.05659,-28.71443,1000.454
12.475215435,-14.00846,-0.3620844,-27.98867,-0.1304239,-0.1085046,0.9373332,6.986133,-28.05659,-28.71443,1000.455
12.497510910,-12.04899,-3.811309,-20.52685,-0.1364691,-0.1142058,1.009256,6.986133,-28.05659,-28.71443,1000.455
12.517328262,-15.04943,3.147652,-14.34944,-0.09294167,-0.08188679,0.990842,8.45678,-27.30726,-28.73295,1000.455
12.537146092,-15.23313,-3.206182,-13.98247,-0.08598781,-0.05031613,0.9426983,8.45678,-27.30726,-28.73295,1000.455
12.556963921,-14.31463,-11.13335,-16.30664,-0.08267016,-0.03422765,0.9437282,9.487853,-26.21153,-29.57969,1000.453
12.576781750,-15.11067,-15.85334,-17.22408,-0.1039328,-0.0503741,0.9572765,9.487853,-26.21153,-29.57969,1000.453
12.596599579,-5.497013,-12.40411,-13.61549,-0.1135474,-0.01807884,1.043412,9.487853,-26.21153,-29.57969,1000.456
12.616417408,-6.660449,-19,-16.12315,-0.05774413,0.01829809,1.065979,9.857682,-26.21476,-29.9611,1000.456
12.636235237,1.912237,-15.42975,-21.7501,-0.06555565,0.0060144,1.036998,9.857682,-26.21476,-29.9611,1000.458
12.656053066,8.035583,-20.81538,-25.05287,-0.08409957,0.004895695,1.016821,9.857682,-26.21476,-29.9611,1000.458
12.675870896,-0.7208021,-23.2964,-24.38008,-0.09657396,-0.01704736,1.030775,10.22247,-25.84409,-29.96897,1000.458
12.695688725,-6.293048,-16.82154,-22.30056,-0.1018095,-0.02628209,1.049098,10.22247,-25.84409,-29.96897,1000.458
12.715506554,-5.61948,-14.21949,-21.44429,-0.07623862,-0.001362416,1.029778,10.58643,-25.48183,-30.42019,1000.461
12.735324383,-6.415515,-10.40719,-23.27916,-0.05594762,0.008424366,1.006067,10.58643,-25.48183,-30.42019,1000.461
12.755142212,-3.231374,-19.78666,-25.72566,-0.08333243,0.0389749,1.012648,10.58643,-25.48183,-30.42019,1000.465
12.777437210,-4.333577,-21.05743,-27.68286,-0.06025251,0.004053375,1.020065,10.58164,-25.17625,-30.42559,1000.465
12.797255039,-3.660008,-22.63076,-28.84494,-0.05676328,-0.01786756,1.008832,10.58164,-25.17625,-30.42559,1000.467
12.817072869,-0.9045025,-24.08307,-28.47797,-0.06316152,-0.01697682,0.9881164,10.58572,-25.48904,-30.80021,1000.467
12.836890698,-2.067938,-14.82462,-28.60029,-0.04508885,0.004682771,1.046533,10.58572,-25.48904,-30.80021,1000.468
12.856708527,-10.88556,-9.499503,-34.53305,-0.05797233,-0.0009310103,0.9674152,10.58572,-25.48904,-30.80021,1000.468
12.876526356,-9.232254,-7.744634,-38.26396,-0.04725186,-0.006726936,0.963948,11.31696,-24.80159,-30.43484,1000.466
12.896344185,-11.37543,-9.741553,-41.26093,-0.04539432,0.006908815,0.9606291,11.31696,-24.80159,-30.43484,1000.466
12.916162014,-16.4578,-12.52514,-45.23648,-0.03587433,-0.03390869,0.9753305,11.67529,-24.07143,-30.82921,1000.469
12.935979843,-10.08952,-19.18154,-38.2028,-0.06575189,-0.07200032,0.9936401,11.67529,-24.07143,-30.82921,1000.469
12.955797672,-4.21111,-17.66872,-34.47189,-0.06212354,-0.07377808,1.056359,11.67529,-24.07143,-30.82921,1000.467
12.975615502,-7.885118,-9.075913,-32.14772,-0.0602202,-0.06744267,1.054451,12.35461,-24.06413,-30.83175,1000.467
12.995433331,-16.76397,-1.027724,-28.72262,-0.04712891,-0.08353581,1.016165,12.35461,-24.06413,-30.83175,1000.469
13.015251160,-17.86617,-4.476948,-26.76542,-0.02484791,-0.08201782,0.9919167,11.96682,-22.96803,-30.84981,1000.469
13.035068989,-18.47851,-1.3908,-26.76542,-0.002953557,-0.06625386,1.020356,11.96682,-22.96803,-30.84981,1000.47
13.057363987,38.95848,26.08197,-24.62473,0.01924907,-0.008082747,1.066388,11.96682,-22.96803,-30.84981,1000.47
13.077181816,-9.171021,3.32919,-32.94283,-0.03816997,0.07191611,1.04684,11.92906,-20.44664,-30.07071,1000.47
13.096999645,-10.39569,-10.77027,-36.42909,0.02440596,-0.07140112,1.048175,11.92906,-20.44664,-30.07071,1000.47
13.116817474,0.5038673,3.32919,-31.29144,0.002863054,-0.08495843,1.126417,12.66285,-20.08761,-30.90334,1000.467
13.136635304,1.483603,13.31379,-33.24864,0.008984182,-0.01662739,1.179829,12.66285,-20.08761,-30.90334,1000.467
13.156453133,-13.08996,36.06656,-33.12632,0.05954985,0.05807774,1.155802,12.66285,-20.08761,-30.90334,1000.469
13.176270962,-9.048554,38.36605,-36.67374,0.03154185,0.038663,1.040013,12.63576,-18.30804,-30.55465,1000.469
13.196088791,3.136906,12.52712,-43.0958,0.01401476,0.03171443,1.02318,12.63576,-18.30804,-30.55465,1000.47
13.215906620,12.81179,-8.470787,-44.01323,0.04527599,0.07108258,1.127469,12.61051,-16.86411,-31.78395,1000.47
13.235724449,4.79021,-0.241059,-47.31601,0.056858,0.04942456,1.207902,12.61051,-16.86411,-31.78395,1000.469
13.255542278,-5.252079,13.19276,-45.053,0.02922735,0.01023573,1.170203,12.61051,-16.86411,-31.78395,1000.469
13.275360107,-16.21287,25.41633,-44.5637,0.05000471,0.02295829,1.15133,13.34359,-16.5123,-32.9966,1000.469
13.295178413,-14.4371,32.49632,-46.52089,0.07672474,0.04913069,1.043198,13.34359,-16.5123,-32.9966,1000.469
13.317472935,-7.762651,20.33326,-53.98272,0.1100234,0.07454123,1.008876,13.72257,-17.27298,-34.63177,1000.47
13.337290764,-1.516837,6.475851,-63.46289,0.05492916,-0.01559372,1.105733,13.72257,-17.27298,-34.63177,1000.47
13.357108593,15.751,7.020465,-67.25497,-0.04586289,-0.1313744,1.166025,13.72257,-17.27298,-34.63177,1000.47
13.376926899,29.40606,11.61943,-60.58826,-0.04015034,-0.1245882,1.140929,14.77664,-17.64403,-35.45259,1000.47
13.396744728,29.77347,16.94455,-54.10504,0.01011338,-0.1069518,1.077031,14.77664,-17.64403,-35.45259,1000.471
13.416562557,27.69153,22.57223,-48.47809,0.03742972,-0.03718869,1.072896,15.16175,-18.34216,-33.79428,1000.471
13.436380386,26.52809,21.36198,-49.82367,0.05535699,0.02264282,1.008909,15.16175,-18.34216,-33.79428,1000.474
13.456198216,33.08007,10.46969,-46.82671,0.041225,0.02206064,0.9998125,15.16175,-18.34216,-33.79428,1000.474
13.476016045,37.67258,2.4215,-46.03159,0.04931609,0.0933526,1.065296,17.77501,-19.39152,-32.58117,1000.476
13.495833874,25.24219,15.00814,-47.74414,0.05307712,0.1235902,1.077015,17.77501,-19.39152,-32.58117,1000.476
13.515651703,5.953646,32.79888,-48.78391,0.05927253,0.1186435,1.031584,18.83612,-20.04529,-32.19321,1000.472
13.535469532,-3.721242,32.85939,-44.99183,0.04895949,0.111186,0.9900916,18.83612,-20.04529,-32.19321,1000.472
13.555287361,7.606949,24.44812,-47.13252,0.04946449,0.1522671,1.063184,18.83612,-20.04529,-32.19321,1000.473
13.575105190,12.01576,26.02145,-54.1662,0.04246454,0.1436405,1.13558,20.69116,-20.00132,-30.93342,1000.473
13.597400189,10.11752,33.04093,-58.32525,-0.04701313,0.09722837,1.062464,20.69116,-20.00132,-30.93342,1000.474
13.617218018,16.79197,23.17736,-52.08668,-0.06366616,0.0408383,0.9353215,22.10652,-19.61214,-30.5652,1000.474
13.637035847,27.38536,-2.359004,-44.93067,-0.04559777,0.07339384,0.8678148,22.10652,-19.61214,-30.5652,1000.474
13.656853676,24.01752,-30.31587,-50.92459,-0.0152406,0.1706367,0.9448939,22.10652,-19.61214,-30.5652,1000.474
13.676671505,4.055408,-27.29024,-62.97359,0.001915408,0.208464,1.046357,24.25169,-18.54993,-30.59166,1000.473
13.696489334,-2.863973,-13.43283,-73.92168,-0.05785517,0.1622348,0.9851463,24.25169,-18.54993,-30.59166,1000.473
13.716307163,9.321486,-23.2964,-76.0012,-0.09337611,0.1077727,0.8904561,25.36906,-18.90468,-30.58935,1000.473
13.736124993,17.52677,-33.94663,-73.00424,-0.07353745,0.1244255,0.8880196,25.36906,-18.90468,-30.58935,1000.473
13.755942822,12.13823,-33.52304,-72.02564,-0.05015415,0.1333742,0.9140023,25.36906,-18.90468,-30.58935,1000.474
13.775760651,0.5038673,-24.20409,-68.41705,-0.0478071,0.1004281,0.9775337,26.82175,-17.06249,-31.00732,1000.474
13.795578480,-10.39569,-4.355923,-68.29473,-0.04789187,0.09645654,0.9461397,26.82175,-17.06249,-31.00732,1000.476
13.815396786,-15.5393,3.631754,-63.64638,-0.04176715,0.07972641,0.8605862,27.84381,-15.27885,-31.04257,1000.476
13.835214615,-15.78424,0.7271442,-60.34361,-0.0007977702,0.05802271,0.8588024,27.84381,-15.27885,-31.04257,1000.476
13.857509613,-0.1697009,-16.76103,-54.83899,0.01505215,0.09218462,0.8564777,27.84381,-15.27885,-31.04257,1000.476
13.877327442,-3.782475,-23.35691,-56.1234,0.03419706,0.1207646,0.9554688,28.91612,-12.76115,-31.09102,1000.473
13.897145272,-24.47939,-8.289248,-56.55154,0.05154777,0.1021658,0.8785324,28.91612,-12.76115,-31.09102,1000.473
13.916963101,-24.96926,-14.52206,-49.33437,0.03146729,-0.006711577,0.8008546,30.30623,-10.92804,-31.95211,1000.475
13.936780930,-23.31595,-12.46463,-60.0378,0.1184546,-0.0499614,0.8518029,30.30623,-10.92804,-31.95211,1000.475
13.956598759,-35.25648,-24.08307,-56.36805,0.03176244,0.02513223,1.082418,30.30623,-10.92804,-31.95211,1000.476
13.976416588,-36.78732,-1.027724,-52.45365,-0.04382204,-0.05816647,1.029309,31.38347,-8.785454,-32.43743,1000.476
13.996234417,-0.6595686,-16.94257,-48.29461,-0.03093904,-0.1587821,1.076024,31.38347,-8.785454,-32.43743,1000.472
14.016052246,21.01708,-14.82462,-41.38325,0.0305474,-0.1430168,1.019778,31.38347,-8.785454,-32.43743,1000.472
14.035870075,7.484482,-7.86566,-40.09884,0.05368381,-0.200386,1.006807,31.70979,-5.900605,-32.04622,1000.475
14.055687904,-6.599215,-3.750796,-25.78682,0.004815644,-0.1797844,0.9724277,31.70979,-5.900605,-32.04622,1000.475
14.075505734,-11.74283,-0.05952091,-22.85102,0.01414496,-0.1459407,1.054123,32.04453,-3.78042,-33.2888,1000.476
14.095323563,-8.252519,4.055343,-20.40453,0.0859132,-0.1286067,1.020514,32.04453,-3.78042,-33.2888,1000.476
14.115141392,15.13867,-7.442071,-26.88775,0.07044116,-0.1427998,1.023905,32.04453,-3.78042,-33.2888,1000.476
14.137436390,30.7532,-15.6718,-27.98867,0.08524743,-0.07007281,1.06426,32.7821,-3.382906,-32.09467,1000.476
14.157254219,32.28404,-19.24205,-31.84191,0.1323261,-0.006199591,0.9982032,32.7821,-3.382906,-32.09467,1000.471
14.177072048,-25.15296,-0.5436226,-41.38325,0.1781444,-0.0361992,0.9784912,33.06705,-1.921225,-32.5651,1000.471
14.196889877,-39.17542,22.02761,-46.52089,0.1174122,-0.04233815,0.986515,33.06705,-1.921225,-32.5651,1000.47
14.216708183,-24.90802,9.743537,-48.72274,0.1365714,0.02941659,1.018153,33.06705,-1.921225,-32.5651,1000.47
14.236526012,-19.39701,-14.15898,13.78529,0.1166936,0.1419419,1.079174,32.74127,-0.8927913,-32.96232,1000.471
14.256343842,-17.13137,-33.46253,-60.89407,0.2054305,0.04708686,1.130331,32.74127,-0.8927913,-32.96232,1000.471
14.276161671,-35.37894,-3.266694,-76.61282,0.169117,-0.0958811,1.085389,34.11662,1.994922,-33.0184,1000.472
14.295979500,-45.9111,9.683024,-64.99196,0.1238634,-0.1587087,0.975263,34.11662,1.994922,-33.0184,1000.472
14.315797329,-14.19217,6.475851,-69.70147,0.04290723,-0.2180961,0.9551287,34.11662,1.994922,-33.0184,1000.468
14.335615158,-7.39525,-6.655406,-64.38033,0.08437295,-0.1933472,1.03274,33.71228,4.198328,-32.67588,1000.468
14.355432987,3.565541,6.052262,-57.77479,0.1100589,-0.1478127,1.081101,33.71228,4.198328,-32.67588,1000.469
14.375250816,7.729416,14.22148,-55.57294,0.04936292,-0.1391158,0.9815636,33.65502,7.796948,-33.11961,1000.469
14.397545815,13.24043,5.568161,-58.63106,0.09174238,-0.1372372,0.8616371,33.65502,7.796948,-33.11961,1000.468
14.417363644,6.749681,9.743537,-56.97968,0.06939872,-0.09137937,0.9454983,33.65502,7.796948,-33.11961,1000.468
14.437181473,-12.84503,13.13225,-47.49949,0.06505042,-0.1109364,0.9217703,33.62793,9.576525,-32.77092,1000.47
14.456999302,1.544836,19.90967,-22.60637,0.05610774,-0.1288598,0.9796486,33.62793,9.576525,-32.77092,1000.47
14.476817131,21.01708,24.93223,-26.21496,0.06461556,-0.0698369,1.004522,33.22384,11.7116,-32.80733,1000.465
14.496635914,19.97611,28.26042,-27.74402,0.06643167,-0.08409646,0.9431385,33.22384,11.7116,-32.80733,1000.465
14.516453266,21.56818,20.93839,-34.96119,0.03472205,0.001366171,0.9128597,33.22384,11.7116,-32.80733,1000.466
14.536271095,-13.886,26.74761,-55.93991,0.0369898,-0.03505873,0.947413,33.56646,13.55748,-32.39776,1000.466
14.556088925,-7.823884,32.01221,-50.80227,-0.07513876,-0.1161514,0.8781046,33.56646,13.55748,-32.39776,1000.465
14.575906754,15.62853,13.07174,-47.19368,-0.06383482,-0.05622273,0.8686969,33.5524,14.6193,-31.21273,1000.465
14.595724583,25.18096,7.625592,-42.97347,0.03019574,-0.04828312,0.9300058,33.5524,14.6193,-31.21273,1000.463
14.615542412,23.65012,13.79789,-40.83279,0.01045952,-0.04970764,0.9875453,33.5524,14.6193,-31.21273,1000.463
14.635360241,22.24175,33.88811,-37.34653,-0.03602848,-0.07620568,1.003109,33.51789,16.81947,-31.25161,1000.464
14.655178070,42.51003,37.15579,-41.93371,-0.09574838,-0.09648854,0.9994706,33.51789,16.81947,-31.25161,1000.464
14.677473068,41.59153,26.68709,-41.81139,-0.02677787,-0.003164712,0.9836441,33.50888,17.50738,-30.44012,1000.465
14.697290898,25.05849,34.73529,-44.5637,-0.02824971,0.08984807,0.9904046,33.50888,17.50738,-30.44012,1000.465
14.717108727,19.11884,28.44196,-40.52697,-0.1284695,-0.0799896,0.844312,33.50888,17.50738,-30.44012,1000.463
14.736926556,22.73162,17.6707,-39.36489,-0.05770408,0.06833549,1.017485,33.49163,18.60747,-30.45956,1000.463
14.756745339,6.504747,18.21531,-47.49949,-0.05040531,0.1035748,1.076513,33.49163,18.60747,-30.45956,1000.464
14.776563168,16.05717,26.02145,-44.44137,-0.06668566,0.03899639,1.187769,33.84645,19.72717,-29.65702,1000.464
14.796380997,5.892412,35.46144,-36.91839,-0.1212216,-0.0234202,1.066112,33.84645,19.72717,-29.65702,1000.458
14.816198826,6.627214,44.47783,-33.86027,-0.1242419,0.04556636,1.007114,33.84645,19.72717,-29.65702,1000.458
14.836016655,2.647039,34.61426,-44.0744,-0.1097572,0.1470509,0.8579254,33.08403,21.13209,-29.29906,1000.461
14.855834484,6.749681,15.85532,-52.08668,-0.1060829,-0.001010639,0.835907,33.08403,21.13209,-29.29906,1000.461
14.875652313,24.75232,1.513809,-54.41085,-0.07968891,0.108871,0.91259,33.79789,22.98917,-28.51087,1000.461
14.895469666,21.56818,6.959952,-60.77175,-0.08008151,0.05564835,0.8524667,33.79789,22.98917,-28.51087,1000.461
14.915287495,30.7532,-12.46463,-61.56686,0.03060015,-0.009229377,0.9702665,33.79789,22.98917,-28.51087,1000.461
14.935105324,18.87391,-40.23995,-38.38629,-0.01391515,0.1492397,1.155707,32.36049,24.00565,-28.90392,1000.461
14.957400799,23.22149,-31.70766,-52.51482,0.05278146,0.03837255,1.277856,32.36049,24.00565,-28.90392,1000.457
14.977219105,0.0139995,-6.171304,-50.61878,-0.03491009,-0.0184096,1.140963,30.09969,26.15065,-30.58122,1000.457
14.997036934,-37.88951,17.12609,-38.2028,-0.06571344,0.05038898,1.063774,30.09969,26.15065,-30.58122,1000.46
15.016854763,-29.13313,11.92199,-44.74718,-0.1316328,-0.008804756,0.8895841,30.09969,26.15065,-30.58122,1000.46
15.036672592,-9.293488,12.28507,-46.58206,-0.1431461,0.07058924,0.924325,27.91618,27.53309,-30.59796,1000.462
15.056490421,-8.742387,10.65123,-57.5913,-0.1563817,0.0880459,0.9225565,27.91618,27.53309,-30.59796,1000.462
15.076308250,5.035144,20.39377,-53.55458,-0.1449881,0.07959656,0.8268804,26.40047,29.65621,-30.63021,1000.458
15.096126080,5.157611,11.67994,-40.89395,-0.06889518,0.06939521,0.8751619,26.40047,29.65621,-30.63021,1000.458
15.115943909,7.545716,1.876886,-5.603211,-0.05735244,-0.2088913,0.9494499,26.40047,29.65621,-30.63021,1000.457
15.135761738,44.95937,23.17736,93.96927,-0.1410985,-0.03325603,1.068584,25.32257,31.48562,-30.27866,1000.457
15.155579567,37.42765,20.0307,37.27167,-0.2177166,0.3848645,0.967375,25.32257,31.48562,-30.27866,1000.458
15.175397873,39.81575,-13.7959,17.27155,-0.2392678,0.2478179,1.125108,25.69733,31.10727,-31.09694,1000.458
15.195215702,23.52765,-10.04412,10.23787,-0.1938365,0.382004,1.547409,25.69733,31.10727,-31.09694,1000.46
15.217510700,-5.80318,21.24095,-13.12619,-0.1508268,0.4708058,1.327528,25.69733,31.10727,-31.09694,1000.46
15.237328529,-15.66177,20.93839,-27.07123,-0.2046362,0.3570881,1.334479,26.0952,29.26334,-31.82596,1000.457
15.257146359,-14.19217,22.33018,-20.64918,-0.2402578,0.1076954,1.174592,26.0952,29.26334,-31.82596,1000.457
15.276964188,8.341751,40.60502,-11.65829,-0.2346002,0.09782074,1.10597,24.97126,29.97637,-32.27811,1000.456
15.296782017,16.6695,36.36913,-5.542049,-0.2734844,0.1202671,1.007349,24.97126,29.97637,-32.27811,1000.456
15.316599846,39.93822,29.71273,4.672081,-0.2975909,0.05380474,0.959837,24.97126,29.97637,-32.27811,1000.457
15.336417675,33.32501,10.34866,-0.5267274,-0.3030072,0.09332809,1.005442,24.59651,30.35471,-31.45983,1000.457
15.356235504,16.1184,-3.569258,1.124659,-0.3355089,0.006544137,1.02979,24.59651,30.35471,-31.45983,1000.453
15.376053810,-9.048554,-18.27384,1.308146,-0.2791384,-0.02741618,0.9602843,24.59651,30.35471,-31.45983,1000.453
15.395871639,24.56862,-16.82154,19.77921,-0.2808015,-0.1300316,1.016722,24.24099,29.22779,-32.64239,1000.454
15.415689468,32.22281,-4.416436,27.05754,-0.3128068,-0.04848991,1.178531,24.24099,29.22779,-32.64239,1000.454
15.435507298,16.97567,3.631754,20.88013,-0.2518422,-0.1060834,0.991105,23.87721,28.51305,-34.65588,1000.453
15.455325127,35.89681,-0.7251607,28.64776,-0.2856055,-0.1412583,1.015726,23.87721,28.51305,-34.65588,1000.453
15.475142956,29.2836,10.71174,32.25635,-0.3241106,-0.1009417,1.057654,23.87721,28.51305,-34.65588,1000.45
15.497437954,2.157171,18.88095,20.51316,-0.3180437,-0.03236176,0.8103589,23.52157,27.38492,-35.90178,1000.45
15.517255783,12.75056,5.205084,8.280666,-0.2940171,-0.0769304,0.65168,23.52157,27.38492,-35.90178,1000.447
15.537073612,19.85364,-7.018482,3.632319,-0.2445229,-0.111607,0.7038429,23.54137,25.9564,-37.08033,1000.447
15.556891441,27.50783,-13.55385,8.097179,-0.2285022,-0.1683971,0.7444911,23.54137,25.9564,-37.08033,1000.446
15.576710224,31.73294,-15.55077,17.69968,-0.2360467,-0.1996997,0.9051036,23.54137,25.9564,-37.08033,1000.446
15.596528053,28.30386,1.332271,23.38779,-0.2753803,-0.1260417,1.044226,22.86053,25.93346,-37.90115,1000.448
15.616345883,1.912237,18.1548,22.71501,-0.2215324,-0.1359811,0.8450166,22.86053,25.93346,-37.90115,1000.448
15.636163712,2.402105,11.80097,27.24103,-0.1995443,-0.05728684,0.7193214,22.14667,24.07638,-38.68935,1000.443
15.655981541,24.13999,-3.145669,30.48264,-0.2059197,0.007173594,0.8099482,22.14667,24.07638,-38.68935,1000.443
15.675799370,-77.87497,-34.18868,54.82529,-0.6403524,0.1759598,0.05442281,22.14667,24.07638,-38.68935,1000.444
15.695617199,-30.23533,-8.652325,26.75173,-0.1779829,-0.02801497,1.100187,22.52071,23.69082,-39.88765,1000.444
15.715434551,-20.43798,-13.97744,27.91381,-0.1144699,0.09335737,0.8137517,22.52071,23.69082,-39.88765,1000.439
15.735253334,-9.722122,-10.16514,26.50708,-0.1448887,0.002425787,0.7289824,21.78469,23.30894,-40.25841,1000.439
15.755071163,1.973471,-9.43899,23.81593,-0.144069,0.04226526,0.8923278,21.78469,23.30894,-40.25841,1000.438
15.777366162,13.48536,6.657389,16.59876,-0.1472823,0.09825936,0.8979425,21.78469,23.30894,-40.25841,1000.438
15.797183991,11.46466,2.845089,15.13086,-0.1359952,0.02017028,0.7990133,20.29749,23.66692,-39.87931,1000.44
15.817001820,17.52677,-4.840024,20.51316,-0.1517317,0.03693209,0.918407,20.29749,23.66692,-39.87931,1000.44
15.836819649,22.79285,-9.983604,21.67525,-0.1552654,0.04562169,0.8948198,20.29678,23.6597,-40.25933,1000.435
15.856637478,27.26289,-19.12102,20.20735,-0.1733768,0.1011762,0.9521602,20.29678,23.6597,-40.25933,1000.435
15.876455307,20.89461,-17.24513,17.14922,-0.2210076,0.1311169,1.153369,20.29678,23.6597,-40.25933,1000.437
15.896273136,-15.41683,-0.846186,3.38767,-0.1932097,0.1358591,1.040777,20.31155,22.6051,-41.06435,1000.437
15.916091442,-12.35516,0.3035553,8.586479,-0.1605125,0.1435855,0.9436194,20.31155,22.6051,-41.06435,1000.436
15.935909271,-4.945911,-8.470787,8.892291,-0.2056725,0.1634443,0.9970633,19.2659,22.21148,-41.8773,1000.436
15.955727101,3.749241,1.453297,13.66296,-0.1896684,0.161396,1.122944,19.2659,22.21148,-41.8773,1000.431
15.975544930,-18.29481,0.8481696,11.33879,-0.1335376,0.1037985,0.9442328,19.2659,22.21148,-41.8773,1000.431
15.995362759,-14.0697,-15.42975,16.5376,-0.1369088,0.01405338,1.09149,18.51403,22.94412,-41.50747,1000.432
16.015180588,-17.49877,-12.04104,20.69665,-0.18211,0.0539264,1.165792,18.51403,22.94412,-41.50747,1000.432
16.037475586,-14.37587,-0.3620844,30.84961,-0.1984625,0.1114571,1.029096,18.51078,23.26534,-40.6895,1000.432
16.057293415,-5.741947,3.692266,37.14935,-0.1641653,0.1888554,0.9453201,18.51078,23.26534,-40.6895,1000.432
16.077112198,-9.660889,-2.237978,25.28383,-0.1566552,0.1838132,0.8574056,18.51078,23.26534,-40.6895,1000.433
16.096930027,-13.57983,-9.257452,19.41223,-0.1181178,0.1008438,0.8973134,18.13295,23.61242,-41.51796,1000.433
16.116747856,-9.844589,-8.410274,22.34803,-0.1255135,0.07956871,0.9754385,18.13295,23.61242,-41.51796,1000.428
16.136565208,-5.558246,-6.715919,24.18291,-0.1213773,0.1014186,0.9407753,18.87556,23.63602,-40.69736,1000.428
16.156383038,0.6875677,-7.260533,27.85265,-0.09889311,0.09281542,0.9594325,18.87556,23.63602,-40.69736,1000.426
16.176200867,3.259373,-9.862579,37.08818,-0.1005741,0.08482726,0.8812068,18.87556,23.63602,-40.69736,1000.426
16.196018696,1.728537,-9.196939,39.22887,-0.1300535,0.1817476,0.9533024,18.49281,24.35821,-41.08895,1000.427
16.215837479,-6.048114,-6.050279,34.09122,-0.09812446,0.1935261,0.9227793,18.49281,24.35821,-41.08895,1000.427
16.235655308,-7.946352,1.150733,31.33891,-0.1126647,0.1895751,0.9310442,18.88693,22.97216,-40.24213,1000.42
16.255473137,-14.0697,3.147652,28.83125,-0.09653381,0.120297,0.8408219,18.88693,22.97216,-40.24213,1000.42
16.275290966,-11.86529,-0.9672114,34.03006,-0.1002255,0.1179746,0.8953728,18.88693,22.97216,-40.24213,1000.423
16.295108795,-10.21199,3.631754,37.51632,-0.1075304,0.1467732,0.9399671,18.88693,22.97216,-40.24213,1000.423
16.317403793,-11.19173,5.507648,35.19215,-0.09764943,0.1705436,0.881631,18.88693,22.97216,-40.24213,1000.421
16.337221623,-7.885118,1.75586,33.29611,-0.1147105,0.190471,0.9030645,19.62463,23.30014,-39.49027,1000.421
16.357039929,-8.497453,-0.846186,27.17986,-0.09464179,0.1716005,0.9096153,19.62463,23.30014,-39.49027,1000.416
16.376857758,-2.863973,0.1825299,24.79453,-0.09341484,0.1820536,1.001371,19.62463,23.30014,-39.49027,1000.416
16.396675587,-8.681153,1.876886,20.88013,-0.08623268,0.1300465,1.025199,20.01299,22.28079,-38.64993,1000.417
16.416493416,-11.74283,6.2338,21.36943,-0.09121779,0.1338453,0.995802,20.01299,22.28079,-38.64993,1000.417
16.436311245,-12.04899,6.354825,22.40919,-0.08286958,0.1153685,0.988904,20.70535,21.57034,-37.81614,1000.415
16.456129074,-2.190405,4.176368,24.42756,-0.06755916,0.09948112,1.031214,20.70535,21.57034,-37.81614,1000.415
16.475946903,4.361576,8.896359,23.38779,-0.07839761,0.180479,1.123881,20.70535,21.57034,-37.81614,1000.418
16.495765209,7.668183,12.04302,17.94433,-0.1234382,0.2235439,1.107938,21.07167,21.95665,-37.00064,1000.418
16.515583038,0.5038673,13.19276,12.86785,-0.1135811,0.2233425,1.003142,21.07167,21.95665,-37.00064,1000.418
16.535400868,2.218405,-5.203101,15.49784,-0.09440634,0.08998332,0.9869061,21.46745,20.51671,-35.77272,1000.418
16.555218697,-6.905383,-9.317965,18.31131,-0.1165251,0.004207695,1.20524,21.46745,20.51671,-35.77272,1000.417
16.575036526,-16.15164,-2.480029,26.6294,-0.07410233,0.04864909,1.16807,21.46745,20.51671,-35.77272,1000.417
16.597331524,-10.08952,-1.753877,30.60496,-0.07897405,0.184812,1.104599,21.09845,20.52836,-34.94796,1000.412
16.617149353,-18.41727,-3.811309,21.49176,-0.06983408,0.1671887,1.046055,21.09845,20.52836,-34.94796,1000.412
16.636968136,-16.76397,-9.317965,17.39387,-0.04864743,0.0697187,0.9657962,21.48035,19.86849,-34.49411,1000.413
16.656785965,-18.66221,-12.58565,17.0269,-0.05993556,0.08180931,0.955784,21.48035,19.86849,-34.49411,1000.413
16.676603794,-20.56045,-14.7036,17.27155,-0.03818567,0.08573712,0.9223803,21.48035,19.86849,-34.49411,1000.408
16.696421623,-15.84547,-14.46154,19.4734,-0.01436861,0.1234942,0.9803653,20.73999,19.86774,-34.11132,1000.408
16.716239453,-13.08996,-13.3118,22.47036,0.001518467,0.1224839,0.9310399,20.73999,19.86774,-34.11132,1000.408
16.736057282,-7.517717,-12.58565,21.55292,-0.01729806,0.1641911,0.9014311,20.73999,19.86774,-34.11132,1000.408
16.755875111,-7.578951,-10.64924,15.0697,-0.02261745,0.1402303,0.8709283,20.43427,19.8957,-32.46342,1000.405
16.775693417,-4.578511,-6.231817,7.60788,-0.02102914,0.1271308,0.8872634,20.43427,19.8957,-32.46342,1000.405
16.795511246,1.60607,-3.871821,9.503916,0.004562662,0.05023617,0.8490795,19.71045,18.78764,-32.4412,1000.407
16.815329075,5.769945,-3.629771,9.381591,0.01495328,0.05530474,0.9093835,19.71045,18.78764,-32.4412,1000.407
16.835146904,2.157171,-0.1200336,8.097179,0.02639294,0.05261099,0.9792953,19.71045,18.78764,-32.4412,1000.407
16.857441902,-3.170141,6.778414,10.78833,0.01577847,0.05652718,1.010748,18.95436,19.90262,-31.25448,1000.408
16.877259731,-10.33446,11.74046,6.751605,0.0006755642,0.1372378,0.9933858,18.95436,19.90262,-31.25448,1000.405
16.897078037,-11.43666,11.25635,-1.444164,-0.02286756,0.1477297,0.9525409,18.23629,18.42787,-31.22578,1000.405
16.916895867,-9.109787,8.896359,-5.786699,-0.03241871,0.1130949,0.9471058,18.23629,18.42787,-31.22578,1000.405
16.936713696,-2.680273,10.46969,-5.786699,-0.03537343,0.06451133,0.9990017,18.23629,18.42787,-31.22578,1000.405
16.956531525,0.993735,13.73738,-6.887623,-0.02662054,0.06797799,1.004281,18.23853,18.45072,-30.02239,1000.406
16.976349354,0.5651007,7.080978,-10.86318,-0.02030026,-0.03088669,0.9834663,18.23853,18.45072,-30.02239,1000.406
16.996167183,3.19814,5.144571,-7.56041,-0.04680461,-0.02987316,1.056984,17.48748,19.19178,-29.20921,1000.407
17.015985966,12.81179,7.686105,-3.462525,-0.06500901,0.0187707,1.075675,17.48748,19.19178,-29.20921,1000.407
17.035803795,16.1184,6.959952,-1.016027,-0.03334463,0.05123771,1.144209,17.48748,19.19178,-29.20921,1000.402
17.055621147,-4.639744,13.73738,-3.034388,0.03119414,0.09595758,1.174976,16.43916,19.19614,-28.3819,1000.402
17.075438976,-15.04943,12.10353,-7.254598,0.01647306,0.05360149,1.209592,16.43916,19.19614,-28.3819,1000.402
17.095256805,-31.94987,15.06866,-2.973226,-0.04383441,0.02493294,1.162473,16.08588,18.09207,-28.36107,1000.402
17.115074635,-43.76793,16.82352,-3.890663,-0.1000625,0.1257693,1.098619,16.08588,18.09207,-28.36107,1000.402
17.137370110,-50.87101,11.19584,-10.55737,-0.06806649,0.08982998,0.8665742,16.08588,18.09207,-28.36107,1000.401
17.157188416,-30.41903,-4.416436,-6.092511,-0.04230454,0.02430104,0.896988,16.07661,18.84831,-27.17064,1000.399
17.177006245,-5.80318,-7.442071,5.406031,-0.05187922,0.01786012,1.073668,16.07661,18.84831,-27.17064,1000.399
17.196824074,-11.06926,-0.6041352,4.488594,-0.06934477,0.06668695,1.166688,15.69106,19.96727,-25.98531,1000.4
17.216641903,-11.68159,4.418419,0.02373465,-0.06950617,0.09653662,1.0259,15.69106,19.96727,-25.98531,1000.4
17.236459732,-9.905823,1.029708,-8.967146,-0.09198492,0.06505612,0.942841,15.69106,19.96727,-25.98531,1000.403
17.256278038,-12.72256,0.7876569,-12.14759,-0.1059003,0.0431184,0.9621117,15.32135,19.9717,-25.54057,1000.403
17.276095867,-19.51948,3.692266,-6.82646,-0.0889167,-0.009129956,0.864732,15.32135,19.9717,-25.54057,1000.403
17.295913696,-2.251639,3.389703,2.959532,-0.08085199,0.02317721,0.7157062,14.57127,20.65165,-24.7263,1000.398
17.315731525,16.17964,-6.715919,2.164421,-0.1088271,0.03835204,0.8090941,14.57127,20.65165,-24.7263,1000.398
17.335549355,20.89461,-1.330288,1.185821,-0.1078553,0.01572456,0.9141966,14.57127,20.65165,-24.7263,1000.398
17.355367184,17.52677,4.720983,1.124659,-0.08309085,0.009470169,0.8923083,14.57044,20.64323,-25.16965,1000.398
17.375185490,14.4651,2.179449,-0.1597527,-0.06785332,0.05673903,0.8746085,14.57044,20.64323,-25.16965,1000.395
17.397480965,17.4043,-0.6041352,-0.9548646,-0.07020597,0.03512871,1.004834,14.26824,20.28164,-24.71866,1000.395
17.417298794,13.24043,7.080978,0.08489711,-0.08321692,0.05127925,1.066771,14.26824,20.28164,-24.71866,1000.395
17.437116623,10.72986,11.13533,0.5130343,-0.08467453,0.0743935,0.9626388,14.26824,20.28164,-24.71866,1000.396
17.456934452,15.751,7.56508,3.632319,-0.07750262,0.10612,0.9786909,13.90824,19.60538,-24.70539,1000.396
17.476752758,7.97435,6.717902,1.369309,-0.09697329,0.1759155,1.088724,13.90824,19.60538,-24.70539,1000.393
17.496570587,-4.333577,10.16713,-3.8295,-0.09760468,0.1953642,1.078208,14.28594,19.2571,-23.94027,1000.393
17.516388416,-13.08996,8.049181,-13.18736,-0.07126161,0.1515597,1.029571,14.28594,19.2571,-23.94027,1000.393
17.536206246,-4.517277,3.389703,-14.96107,-0.04386528,0.04852056,1.049647,14.28594,19.2571,-23.94027,1000.393
17.556024075,11.58712,6.2338,-12.20876,-0.1027702,0.1131938,1.139597,14.60623,18.52703,-23.92846,1000.393
17.575841904,-1.088203,3.510728,-15.75618,-0.07677154,0.09490956,1.174597,14.60623,18.52703,-23.92846,1000.39
17.595660210,-9.048554,4.055343,-18.14152,-0.05128913,0.0472691,1.152492,14.30473,18.17265,-23.09745,1000.39
17.615478039,-1.578071,-3.569258,-19.67058,-0.04903784,-0.02827732,1.117821,14.30473,18.17265,-23.09745,1000.391
17.635295868,-0.1697009,-0.7251607,-17.04059,-0.1046279,-0.06010202,1.165265,14.30473,18.17265,-23.09745,1000.391
17.655113697,-2.863973,2.663551,-11.59713,-0.1150906,-0.02156868,1.012994,14.29323,18.90604,-23.11041,1000.389
17.677408695,14.2814,1.75586,-2.545089,-0.115997,-0.004760857,0.9175146,14.29323,18.90604,-23.11041,1000.39
17.697227478,15.44483,1.211246,-2.116951,-0.1124947,0.07906771,0.9415773,13.91847,19.28439,-22.29214,1000.39
17.717045307,4.177875,2.179449,-6.948785,-0.0925893,0.06496924,0.9080911,13.91847,19.28439,-22.29214,1000.39
17.736863136,9.015319,-4.840024,-5.358562,-0.07161482,-0.004297829,0.8120502,13.91847,19.28439,-22.29214,1000.39
17.756680489,8.709152,-13.00924,-1.321839,-0.069398,-0.05263588,0.9546625,13.93502,18.17709,-22.65271,1000.39
17.776498318,-3.476308,-6.473867,5.834168,-0.07539461,-0.05585795,1.04494,13.93502,18.17709,-22.65271,1000.385
17.796317101,-13.3349,7.80713,5.161381,-0.0770688,0.1031518,0.9584008,12.82258,18.15672,-23.0919,1000.385
17.816134930,-24.54062,10.89328,-9.395284,-0.1675582,-0.02835703,0.7337753,12.82258,18.15672,-23.0919,1000.387
17.835952759,17.89417,8.23072,2.225583,-0.09283152,0.05795192,0.8255184,12.82258,18.15672,-23.0919,1000.387
17.855770588,27.93646,7.80713,4.855569,-0.07559013,0.03228692,0.8474953,12.82411,18.17236,-22.26853,1000.387
17.875588417,30.81443,11.61943,7.974854,-0.1026767,0.05571755,0.9298192,12.82411,18.17236,-22.26853,1000.387
17.895406723,25.42589,18.09429,7.424392,-0.1050964,0.08651245,0.9840506,13.56366,18.16469,-23.09468,1000.388
17.915224552,18.13911,16.27891,2.837208,-0.1232603,0.1030634,0.8191592,13.56366,18.16469,-23.09468,1000.388
17.935042382,19.91488,-7.502584,-8.783659,-0.09097022,0.06313572,0.9519965,13.56366,18.16469,-23.09468,1000.389
17.957337380,10.54616,0.7271442,-8.110872,-0.1873705,0.1026484,0.9869973,13.94978,17.12248,-23.45772,1000.384
17.977155209,-11.49789,2.542525,-12.39224,-0.132729,0.01784604,1.03984,13.94978,17.12248,-23.45772,1000.384
17.996973038,-17.49877,0.6666315,-8.844821,-0.1498014,0.05550857,0.9445565,14.33828,16.0336,-23.05965,1000.384
18.016791344,-7.701417,-8.591812,-7.376923,-0.1813933,0.08126914,0.9931296,14.33828,16.0336,-23.05965,1000.386
18.036609173,7.606949,-10.70976,-2.912063,-0.1870025,0.07749002,1.053476,14.33828,16.0336,-23.05965,1000.386
18.056427002,14.4651,-11.31488,-3.401363,-0.1970253,0.15007,1.086243,13.96199,16.39631,-23.06475,1000.387
18.076244831,17.58801,-8.047197,-4.685774,-0.1492048,0.2312388,1.123564,13.96199,16.39631,-23.06475,1000.387
18.096062660,-0.4758682,-6.171304,-13.49317,-0.1195611,0.1986219,1.062899,13.96199,16.39631,-23.06475,1000.382
18.115881443,-18.96837,5.326109,-15.8785,-0.1775494,0.1038878,0.8740032,13.97924,15.29622,-23.04531,1000.382
18.135699272,-21.23401,-3.508745,-16.00083,-0.1982773,0.04099057,0.6821703,13.97924,15.29622,-23.04531,1000.384
18.155517101,-11.06926,-18.03179,-9.089471,-0.2549386,-0.07807264,0.699728,12.49063,15.63977,-23.42625,1000.384
18.175334930,-15.1719,-19.84718,2.837208,-0.2995966,0.007941375,0.7240655,12.49063,15.63977,-23.42625,1000.386
18.195153236,-1.578071,-17.97128,15.19202,-0.3042305,0.07632098,0.6187355,12.49063,15.63977,-23.42625,1000.386
18.217448235,12.07699,-19.4841,16.0483,-0.2915641,0.2322948,0.4539086,13.23817,15.28826,-23.04253,1000.389
18.237266064,-17.31507,-30.4369,-7.376923,-0.2019311,0.1498995,0.2179305,13.23817,15.28826,-23.04253,1000.389
18.257083893,-17.98864,-56.94146,-8.661334,-0.115281,-0.08160581,0.1453134,11.76681,14.53172,-23.40403,1000.387
18.276901722,-12.60009,-51.55583,0.02373465,-0.07144293,-0.03684302,0.2384602,11.76681,14.53172,-23.40403,1000.387
18.296720028,2.034704,-33.64407,0.7576842,-0.02222201,-0.006349909,0.4603794,11.76681,14.53172,-23.40403,1000.39
18.316537857,-3.108907,-16.94257,8.769966,0.1399057,-0.08624824,0.09417681,11.39205,14.91007,-22.58575,1000.39
18.336355686,11.09726,-36.42765,25.22267,0.1695949,-0.1510982,-0.006233191,11.39205,14.91007,-22.58575,1000.392
18.356173515,-20.92785,-49.0143,23.57128,0.1800067,-0.09154846,0.4351836,11.09477,14.17336,-22.57164,1000.392
18.375991345,-52.64678,-30.55792,3.876969,0.1784701,0.01789591,0.5926246,11.09477,14.17336,-22.57164,1000.39
18.395810127,-27.17366,-39.87688,-17.16292,0.2610584,-0.1565539,0.5637639,11.09477,14.17336,-22.57164,1000.39
18.415627956,-9.354721,-72.97733,-3.340201,0.2751941,-0.200744,0.7854916,9.989367,13.87026,-21.80204,1000.392
18.435445786,2.463338,-76.1845,20.63548,0.2320679,-0.1641329,1.32024,9.989367,13.87026,-21.80204,1000.392
18.455263615,-28.82696,-32.67587,25.22267,0.2094145,0.06692984,1.475526,9.255576,13.51124,-20.96941,1000.396
18.475081444,-62.0155,-25.41434,9.503916,0.2715186,-0.07154816,1.061302,9.255576,13.51124,-20.96941,1000.396
18.497376919,-10.88556,-59.24094,26.87405,0.3658648,-0.03005333,0.6999552,9.255576,13.51124,-20.96941,1000.395
18.517194748,24.99726,-96.45626,20.88013,0.4567732,-0.02368395,1.126661,9.26286,13.16018,-20.13956,1000.395
18.537012577,36.14175,-76.42655,24.48872,0.4866095,0.02386802,1.397041,9.26286,13.16018,-20.13956,1000.399
18.556830406,9.38272,-53.67377,13.72412,0.4723562,0.08059837,1.731907,9.275187,12.43521,-19.68324,1000.399
18.576648712,-42.72696,-19.42359,-0.7713773,0.6188571,-0.02010283,1.455461,9.275187,12.43521,-19.68324,1000.403
18.596466541,-29.0719,-61.66145,-5.297399,0.7406486,-0.3905219,1.047925,9.275187,12.43521,-19.68324,1000.403
18.616284371,3.871708,-88.34756,17.88317,0.681381,-0.3255616,1.459825,8.540572,12.06776,-19.29397,1000.403
18.636102200,3.749241,-74.55066,32.68449,0.6211777,-0.03302411,1.544195,8.540572,12.06776,-19.29397,1000.403
18.655920029,20.89461,-74.36913,25.28383,0.6558497,0.1137169,1.541863,8.540572,12.06776,-19.29397,1000.405
18.675738812,19.24131,-73.46143,12.19506,0.618894,0.1037519,1.527533,8.540572,12.06776,-19.29397,1000.405
18.695556641,-1.455604,-57.72813,-9.150634,0.5111811,0.1174069,1.768084,8.540572,12.06776,-19.29397,1000.409
18.715374470,-45.1763,-31.16305,-27.19356,0.452466,0.02445396,1.511626,6.762866,10.97827,-20.91564,1000.409
18.735192299,-25.70406,-28.98459,-22.66754,0.3757855,-0.11257,1.191326,6.762866,10.97827,-20.91564,1000.414
18.757487297,-10.70186,-18.69743,-5.909023,0.3077889,-0.04818352,1.181893,5.664289,10.24857,-20.07515,1000.414
18.777305603,-10.02829,-17.72923,-13.43201,0.2723847,0.1517378,0.9697698,5.664289,10.24857,-20.07515,1000.418
18.797123432,0.5038673,-12.04104,-21.2608,0.25954,0.1020094,0.9719981,5.664289,10.24857,-20.07515,1000.418
18.816941261,-10.70186,-10.64924,-22.85102,0.2635146,-0.062948,1.010226,5.65783,10.60805,-20.46165,1000.423
18.836759091,-41.93093,2.542525,-24.56357,0.3243635,-0.06489261,0.8805251,5.65783,10.60805,-20.46165,1000.423
18.856577397,-25.03049,-8.773351,-12.39224,0.3821923,-0.07034751,0.7151046,5.665114,10.25699,-19.63179,1000.423
18.876395226,-3.108907,-15.00616,0.02373465,0.3554361,0.03496081,1.02905,5.665114,10.25699,-19.63179,1000.423
18.896213055,8.892852,-6.715919,-8.600172,0.3242663,0.2242489,1.042743,5.665114,10.25699,-19.63179,1000.427
18.916030884,-11.00803,-3.38772,-28.78378,0.3704133,0.06772254,1.053753,6.041402,9.894276,-19.6267,1000.427
18.935849667,-30.9089,-11.07283,-33.00399,0.4452475,-0.07399366,1.086886,6.041402,9.894276,-19.6267,1000.427
18.955667496,-20.62168,-6.231817,-26.82658,0.4909948,-0.0774437,1.375259,5.671573,9.897509,-19.2453,1000.427
18.975485325,-15.11067,17.06557,-27.07123,0.4212768,0.05616759,1.402874,5.671573,9.897509,-19.2453,1000.432
18.995303154,-33.11331,36.79272,-35.57281,0.2856992,0.031243,1.252893,5.671573,9.897509,-19.2453,1000.432
19.015121460,-27.54106,45.44603,-30.55749,0.3369044,-0.02495759,1.058287,5.677323,9.530815,-19.23882,1000.435
19.037416458,-3.231374,39.45528,-17.3464,0.6922544,-0.09817109,1.029419,5.677323,9.530815,-19.23882,1000.435
19.057234287,-1.21067,31.52811,-24.80822,0.5435322,-0.05731948,1.126496,6.037066,10.2754,-18.87315,1000.431
19.077052116,-17.25384,33.58554,-28.84494,0.4773759,-0.1769577,0.9259318,6.037066,10.2754,-18.87315,1000.431
19.096869946,-11.25296,26.86863,-20.40453,0.5394177,-0.2261605,0.7829494,6.037066,10.2754,-18.87315,1000.435
19.116688252,-3.537542,9.561998,-4.991587,0.5554541,-0.2454974,0.604654,7.525796,9.93306,-18.42887,1000.435
19.136506081,19.60871,-9.43899,10.29903,0.4715222,-0.1608678,0.9472843,7.525796,9.93306,-18.42887,1000.437
19.156323910,17.71047,-5.324126,8.097179,0.3310646,0.007763876,1.111099,7.526504,9.940277,-18.04885,1000.437
19.176141739,-2.98644,-1.088237,-5.419724,0.3249702,-0.1037126,1.137107,7.526504,9.940277,-18.04885,1000.435
19.195960522,-9.415955,10.77225,-5.970186,0.2643175,-0.1189395,1.010899,7.526504,9.940277,-18.04885,1000.435
19.215778351,-5.129612,15.43173,0.6353592,0.2038947,-0.1511126,0.9241828,7.527329,9.948696,-17.6055,1000.434
19.235596180,2.708272,24.08505,11.95041,0.1697724,-0.1125807,0.8222396,7.527329,9.948696,-17.6055,1000.434
19.255414009,27.32413,26.38453,23.87709,0.181171,0.006856877,0.6533706,8.268405,9.956663,-17.60827,1000.436
19.275232315,22.05805,24.02453,19.10642,0.1978197,0.06226607,0.7776124,8.268405,9.956663,-17.60827,1000.436
19.295050144,8.464218,15.61327,5.283706,0.2679974,0.01091256,0.7349715,8.268405,9.956663,-17.60827,1000.439
19.317345142,9.38272,10.83277,4.488594,0.2473012,0.01926953,0.8123562,8.948432,9.971182,-17.2308,1000.439
19.337162972,19.54748,4.236881,6.996255,0.2332458,0.02411969,0.8346612,8.948432,9.971182,-17.2308,1000.435
19.356981278,23.40519,3.99483,9.259266,0.1984197,-0.02153497,0.9581831,9.318261,9.967947,-17.61221,1000.435
19.376799107,10.54616,9.077897,3.448832,0.1715731,0.08106316,0.9559609,9.318261,9.967947,-17.61221,1000.438
19.396616936,2.891973,10.77225,-0.3432401,0.1882968,0.04510695,0.9518232,9.318261,9.967947,-17.61221,1000.438
19.416434765,3.626774,10.71174,3.938132,0.2256027,0.0535105,0.9236669,9.706761,8.879061,-17.21414,1000.44
19.436253548,4.851443,12.10353,2.164421,0.2444479,0.06022207,1.041372,9.706761,8.879061,-17.21414,1000.44
19.456071377,-2.496573,17.1866,1.858608,0.2933748,0.06424981,0.990926,9.706761,8.879061,-17.21414,1000.438
19.475889206,-8.497453,8.593796,-1.505327,0.3353406,0.05478987,1.01623,10.0773,8.883045,-17.21552,1000.438
19.495707035,-8.864854,7.80713,-3.401363,0.3833034,0.04009772,1.080088,10.0773,8.883045,-17.21552,1000.44
19.515525341,-9.232254,7.14149,-7.193435,0.4143411,0.004853754,1.138624,10.07237,9.25816,-16.77865,1000.44
19.535343170,-3.721242,-2.05644,-4.318799,0.5369775,-0.06142923,1.051695,10.07237,9.25816,-16.77865,1000.443
19.555160999,-3.904943,-11.8595,-8.905984,0.3823575,0.1100205,1.203053,10.07237,9.25816,-16.77865,1000.443
19.577455998,-14.4371,-4.416436,-21.01615,0.2521189,0.06835061,1.164937,10.44291,9.262142,-16.78004,1000.444
19.597274780,-12.11023,-4.537461,-21.38313,0.1993417,0.02033305,1.154843,10.44291,9.262142,-16.78004,1000.444
19.617092610,-20.86661,3.026627,-22.2394,0.3003827,-0.1001212,1.063893,10.44291,9.262142,-16.78004,1000.446
19.636909962,-0.2309344,-4.718999,-3.707175,0.3526208,-0.1901497,0.9738494,10.44291,9.262142,-16.78004,1000.446
19.656727791,10.72986,-9.741553,7.913692,0.3224868,-0.08699672,1.006884,10.44291,9.262142,-16.78004,1000.443
19.676546574,5.463778,-14.15898,4.794406,0.3089663,-0.0145012,1.012157,10.07308,9.265377,-16.39863,1000.443
19.696364403,5.953646,-15.00616,2.531395,0.2782531,0.04981816,1.096641,10.07308,9.265377,-16.39863,1000.445
19.716182232,-2.557806,-11.98052,-4.746937,0.2096495,0.04650775,1.083002,9.695258,9.612452,-17.22709,1000.445
19.736000061,-0.04723396,-14.46154,0.3907094,0.2008929,-0.0905674,0.9993253,9.695258,9.612452,-17.22709,1000.445
19.755818367,7.117082,-15.6718,11.09414,0.2025755,-0.08551132,1.073192,9.695258,9.612452,-17.22709,1000.445
19.775636196,18.20034,-19.24205,19.35107,0.2043699,0.01573117,1.052947,10.07812,8.891464,-16.77217,1000.448
19.795454025,28.12016,-29.58972,15.37551,0.1746623,0.1626985,1.283137,10.07812,8.891464,-16.77217,1000.448
19.815271855,6.688447,-3.085156,5.222544,0.1702206,0.1339874,1.502149,9.700301,9.238541,-17.60063,1000.45
19.835090161,-14.92697,9.319948,-5.175074,0.1700995,0.1123904,1.431085,9.700301,9.238541,-17.60063,1000.45
19.857385636,-70.34325,18.1548,-17.65222,0.2190659,-0.09356734,1.331776,9.700301,9.238541,-17.60063,1000.453
19.877203465,-57.11683,19.00198,0.6353592,0.2901659,-0.06742236,1.116729,9.339732,8.485531,-18.40966,1000.453
19.897020817,16.60827,4.963033,9.809728,0.3277914,-0.07961071,1.43358,9.339732,8.485531,-18.40966,1000.453
19.916839600,31.3043,28.98658,16.0483,0.3544757,-0.04495183,1.614134,9.341266,8.501167,-17.58628,1000.453
19.936657429,19.54748,46.83783,14.76389,0.424264,-0.03630853,1.413485,9.341266,8.501167,-17.58628,1000.455
19.956475258,-15.29437,48.35064,11.76693,0.456092,-0.1283869,1.32499,9.341266,8.501167,-17.58628,1000.455
19.976293564,-27.05119,28.74453,16.90457,0.4495718,-0.277322,1.164494,10.45135,8.497478,-18.41382,1000.454
19.996111393,22.67038,53.13115,35.62029,0.4290229,-0.03601285,1.525924,10.45135,8.497478,-18.41382,1000.454
20.015929222,44.16333,74.91572,27.79149,0.5639184,0.03075488,1.259573,10.82188,8.501461,-18.41521,1000.454
20.035747051,17.2206,56.58037,9.259266,0.5213311,-0.003739003,0.9796754,10.82188,8.501461,-18.41521,1000.454
20.055565357,-12.53886,43.44912,9.075778,0.3569514,-0.1381959,0.9031388,10.82188,8.501461,-18.41521,1000.454
20.075383186,-6.048114,43.08604,16.90457,0.2602031,-0.1010313,0.9748129,11.88804,7.473776,-18.40078,1000.454
20.095201015,-6.048114,59.1219,14.64156,0.2600303,0.08407032,0.8010351,11.88804,7.473776,-18.40078,1000.443
20.115019798,-9.905823,44.17527,1.736283,0.2831767,0.04899511,0.5424954,13.37019,7.489708,-18.40634,1000.443
20.137314796,-3.537542,11.67994,10.60484,0.243326,-0.2219688,0.5331163,13.37019,7.489708,-18.40634,1000.437
20.157132626,13.1792,-4.05336,25.22267,0.1745225,-0.2273201,0.8853378,13.37019,7.489708,-18.40634,1000.437
20.176950455,21.99681,22.63274,31.21659,0.1387464,-0.07321615,1.059124,13.7399,7.485271,-18.85108,1000.434
20.196768761,8.158051,36.91374,19.4734,0.1659239,0.04513376,0.8090732,13.7399,7.485271,-18.85108,1000.434
20.216586590,19.18008,19.123,14.0911,0.1695452,-0.05980103,0.6999117,14.79984,6.748731,-19.60209,1000.429
20.236404419,33.20254,12.46661,19.35107,0.09851494,-0.06033101,0.834965,14.79984,6.748731,-19.60209,1000.429
20.256222248,27.814,25.96094,19.35107,0.07379001,0.03164804,0.8669469,14.79984,6.748731,-19.60209,1000.43
20.276040554,18.38404,26.32402,14.94737,0.1011782,-0.06245344,0.7567456,15.17952,5.995268,-20.85724,1000.43
20.295858383,11.28096,22.4512,20.69665,0.1260355,0.0004332792,0.7332813,15.17952,5.995268,-20.85724,1000.43
20.315676212,9.505187,12.52712,16.47644,0.1251828,-0.0151299,0.7428597,15.93619,4.957047,-21.22167,1000.43
20.335494995,21.56818,7.56508,8.831128,0.1212493,-0.03439049,0.8412486,15.93619,4.957047,-21.22167,1000.425
20.355312824,20.83338,23.29838,7.60788,0.08445866,-0.08852356,1.087821,15.93619,4.957047,-21.22167,1000.425
20.375130653,-14.00846,33.94862,6.078818,0.1422852,-0.05668196,0.8405364,16.3174,4.21922,-21.65346,1000.426
20.397425652,7.423249,19.66762,16.78225,0.08860699,-0.05562225,0.7896717,16.3174,4.21922,-21.65346,1000.426
20.417243958,26.58932,20.39377,19.71805,0.02881062,0.03305871,0.9429808,17.06281,3.846056,-22.40979,1000.427
20.437061787,38.28492,27.95786,21.36943,0.03621293,0.01361831,0.9423578,17.06281,3.846056,-22.40979,1000.427
20.456879616,31.488,36.18759,20.75781,0.04593585,0.09887359,0.938881,17.06281,3.846056,-22.40979,1000.424
20.476697445,23.77259,25.05325,14.70272,0.06008936,0.04325086,0.861772,17.43757,3.467707,-23.22807,1000.424
20.496516228,32.95761,22.4512,20.9413,0.02551981,0.05658806,1.015039,17.43757,3.467707,-23.22807,1000.425
20.516334057,4.912677,26.68709,18.73945,-0.005192285,0.1596729,1.021046,17.76853,1.995826,-23.64666,1000.425
20.536151409,-3.660008,23.17736,16.29295,0.02941508,0.1536958,0.8909852,17.76853,1.995826,-23.64666,1000.424
20.555970192,-3.231374,6.959952,4.916731,0.04270444,0.1217553,0.7420835,17.76853,1.995826,-23.64666,1000.424
20.575788021,-1.39437,1.453297,-3.034388,-0.01484771,0.09660894,0.9382367,17.84166,1.332634,-23.19165,1000.421
20.595605850,-16.4578,3.873805,-8.355522,-0.02448259,-0.01630531,0.7793911,17.84166,1.332634,-23.19165,1000.421
20.615424156,-12.90626,6.657389,-3.034388,-0.04824408,0.005130793,0.8351392,18.15465,0.9536219,-24.0097,1000.417
20.635241985,-10.94679,2.300474,-1.138352,-0.0191792,0.03858683,0.7135171,18.15465,0.9536219,-24.0097,1000.417
20.655059815,15.9347,-8.5313,-3.8295,-0.01303492,0.008527308,0.7543567,18.15465,0.9536219,-24.0097,1000.415
20.677354813,30.14087,-2.177466,2.959532,-0.0469,-0.04900734,0.9975165,17.77683,1.300698,-24.83817,1000.415
20.697173596,11.09726,12.16405,5.039056,-0.06742978,0.01988744,0.9381305,17.77683,1.300698,-24.83817,1000.415
20.716991425,-4.700978,13.13225,0.7576842,-0.01640486,0.0448546,0.6816773,17.83859,1.301362,-24.8384,1000.415
20.736809254,-10.94679,-2.782593,-1.749977,-0.002706735,0.01076185,0.6490877,17.83859,1.301362,-24.8384,1000.414
20.756627560,11.83206,-3.871821,5.589519,-0.03758112,0.1021007,0.8413711,17.83859,1.301362,-24.8384,1000.414
20.776445389,1.973471,1.997911,-3.523688,-0.04914849,0.1118925,0.8883045,18.15241,0.9307685,-25.21309,1000.417
20.796263218,10.54616,7.444054,-1.321839,-0.05604091,0.0593442,0.9199291,18.15241,0.9307685,-25.21309,1000.417
20.816081047,-0.7208021,8.351745,-4.869262,-0.02838044,0.04673388,0.8810986,18.15241,0.9307685,-25.21309,1000.416
20.835899353,-1.761771,10.89328,-6.275998,-0.01106725,0.0352975,0.9475547,17.84351,0.9262462,-25.27527,1000.416
20.855717182,-5.864414,16.2184,-7.376923,-0.01298978,0.02503741,0.9373763,17.84351,0.9262462,-25.27527,1000.411
20.875535011,-6.415515,15.00814,-9.762259,0.0002211609,0.006096559,0.9294839,18.16462,0.2045951,-24.82011,1000.411
20.895353794,-12.53886,13.67686,-13.98247,0.02403077,0.02136025,0.9482563,18.16462,0.2045951,-24.82011,1000.411
20.915171147,-7.823884,8.412257,-14.28828,-0.003216263,-0.05519755,0.9615273,18.16462,0.2045951,-24.82011,1000.411
20.937466622,9.015319,9.743537,-3.279038,-0.08059342,-0.0527008,0.9518275,18.89491,0.9531674,-24.45583,1000.41
20.957284928,16.36334,7.202003,0.9411715,-0.1240829,0.04568002,1.053933,18.89491,0.9531674,-24.45583,1000.41
20.977102757,8.219284,8.170207,-6.398323,-0.1081222,0.1113528,0.9933657,18.88998,1.328283,-24.01896,1000.405
20.996920586,10.60739,4.902521,-13.24852,-0.02944288,0.1077737,0.9552677,18.88998,1.328283,-24.01896,1000.405
21.016738415,11.09726,-2.480029,-9.517609,0.03760171,-0.04278842,0.9715038,18.88998,1.328283,-24.01896,1000.409
21.036556721,6.933381,-0.7251607,-1.749977,-0.02038924,0.006060178,1.160799,19.64901,0.2433796,-23.62228,1000.409
21.056374550,-27.11243,7.14149,0.08489711,-0.04551017,0.007314886,0.927327,19.64901,0.2433796,-23.62228,1000.408
21.076192379,-23.80582,-9.075913,3.204182,-0.08003104,-0.002491348,0.7715605,20.00888,0.9891725,-23.19327,1000.408
21.096011162,-9.783356,-21.17845,1.980933,-0.1041981,0.04539904,0.8945391,20.00888,0.9891725,-23.19327,1000.406
21.115828991,8.096817,-19.90769,4.060457,-0.07563224,-0.01398478,1.044191,20.00888,0.9891725,-23.19327,1000.406
21.135646820,4.667743,-4.416436,8.036016,-0.01941045,0.0943542,1.022719,21.05873,1.000457,-23.19721,1000.405
21.155465126,5.341311,-8.712837,-0.3432401,0.005276167,0.07889944,0.8202622,21.05873,1.000457,-23.19721,1000.405
21.175282955,15.26113,-17.36615,-3.340201,0.01055314,-0.06954066,0.8397433,20.02108,0.2629991,-22.80029,1000.408
21.195100784,10.79109,-8.168223,3.999295,-0.01714206,-0.08203146,0.9696712,20.02108,0.2629991,-22.80029,1000.408
21.217396736,-4.39481,1.392784,8.219504,-0.02889697,0.002711305,0.7997854,20.02108,0.2629991,-22.80029,1000.404
21.237214088,-0.1084674,2.966114,9.993216,-0.04980608,0.06336921,0.7582183,21.09452,-1.115745,-21.95602,1000.404
21.257031918,2.769506,9.259436,12.68436,-0.09467799,0.128065,0.8273366,21.09452,-1.115745,-21.95602,1000.405
21.276849747,-13.3349,9.319948,2.959532,-0.09238612,0.1422988,0.667148,22.20613,-1.103796,-21.96018,1000.405
21.296668530,-1.884238,4.176368,1.552796,-0.1152215,0.08192123,0.7171614,22.20613,-1.103796,-21.96018,1000.403
21.316486359,-8.313752,7.625592,1.002334,-0.0923114,-0.01926321,0.7083108,22.20613,-1.103796,-21.96018,1000.403
21.336304188,-7.089083,0.2430426,6.13998,-0.06628758,0.002213013,0.6735258,22.21917,-1.82155,-21.12385,1000.404
21.356122494,-13.3349,-13.13027,7.913692,-0.05498189,-0.005954084,0.6951425,22.21917,-1.82155,-21.12385,1000.404
21.375940323,-5.068378,-12.94873,11.21646,-0.09244451,0.06262836,0.9466925,22.9775,-2.91367,-21.10719,1000.403
21.395758152,-14.13093,1.816373,4.733244,-0.09070501,0.1123563,0.9681762,22.9775,-2.91367,-21.10719,1000.403
21.415576458,-17.68247,8.533283,5.650681,-0.05439667,0.1032814,0.7613446,22.9775,-2.91367,-21.10719,1000.401
21.435394287,-4.333577,-5.142588,6.62928,0.02233513,-0.04418147,0.628396,22.61271,-3.284348,-21.09932,1000.401
21.455212116,18.01664,-15.00616,16.96573,0.00780697,-0.05672231,0.9112606,22.61271,-3.284348,-21.09932,1000.404
21.475030899,7.668183,1.695347,18.73945,-0.02868373,-0.0365337,1.082915,22.61342,-3.277131,-20.7193,1000.404
21.497325897,-14.37587,17.30762,8.219504,0.0572164,0.1369301,0.7440127,22.61342,-3.277131,-20.7193,1000.406
21.517143726,10.23999,-6.594893,5.956493,0.03585427,0.08502495,0.6695306,22.61342,-3.277131,-20.7193,1000.406
