Time (s),Gyroscope X (deg/s),Gyroscope Y (deg/s),Gyroscope Z (deg/s),Accelerometer X (g),Accelerometer Y (g),Accelerometer Z (g),Magnetometer X (uT),Magnetometer Y (uT),Magnetometer Z (uT),Barometer (hPa)
0.000000000,-0.5983351,-4.658486,-0.5878899,-0.100499,0.01454077,1.215341,15.0795,-10.31074,-42.29962,1002.598
0.019827843,-9.477188,-21.17845,-7.009948,-0.06204238,-0.01637823,1.032037,15.0795,-10.31074,-42.29962,1002.598
0.039656162,-14.9882,-19.72615,-11.53597,0.02031525,-0.02923361,0.77377,15.0795,-10.31074,-42.29962,1002.598
0.059484005,-9.354721,-10.52822,-11.04667,0.07445045,-0.01403517,0.7001846,17.23522,-9.920815,-42.3142,1002.598
0.079311848,8.219284,17.61019,-4.563449,0.09966079,-0.02437073,0.8023213,17.23522,-9.920815,-42.3142,1002.6
0.099140167,15.81223,27.71581,-1.138352,-0.03499667,-0.0281051,0.9570135,13.59652,-10.33509,-42.73742,1002.6
0.118968010,15.751,16.46045,0.8188466,-0.07725947,-0.04847744,1.080706,13.59652,-10.33509,-42.73742,1002.596
0.138796330,13.24043,10.77225,-3.768338,-0.1106829,-0.0177569,1.170825,13.59652,-10.33509,-42.73742,1002.596
0.158624172,6.810915,-2.237978,-5.909023,-0.09109721,0.00409267,1.102772,16.85893,-9.558102,-42.31929,1002.597
0.178452969,2.095937,0.6061188,-6.275998,-0.03957015,0.02257451,0.9828808,16.85893,-9.558102,-42.31929,1002.597
0.198280811,-0.7820356,5.689186,-4.379962,-0.02859827,0.02199079,0.9191043,16.85893,-9.558102,-42.31929,1002.597
0.218109131,2.218405,-1.14875,-3.340201,-0.009764254,0.0205274,0.8774834,14.71471,-10.68142,-42.29175,1002.597
0.237936974,-0.4146348,3.510728,-2.178114,0.007693285,0.01813769,0.8585511,14.71471,-10.68142,-42.29175,1002.597
0.260243416,1.361136,0.4850934,-2.422764,-0.006362021,-0.007322168,0.8309847,16.85893,-9.558102,-42.31929,1002.595
0.280071735,0.2589334,1.876886,-3.8295,0.01510518,-0.01742864,0.8341939,16.85893,-9.558102,-42.31929,1002.597
0.299899578,2.585805,-0.05952091,-4.746937,0.03202893,-0.01398832,0.8109504,14.34583,-10.66857,-41.40366,1002.597
0.319728375,5.035144,-0.9672114,-2.850901,0.05787341,-0.003539283,0.8480288,14.34583,-10.66857,-41.40366,1002.597
0.339556217,5.708712,2.058424,-0.6490523,0.04099568,0.0003863727,0.8968919,14.34583,-10.66857,-41.40366,1002.599
0.359384537,4.79021,1.997911,0.3907094,0.01285633,-0.0006889272,0.9153821,17.59673,-9.158182,-40.99849,1002.599
0.379212380,2.218405,2.239962,0.2683845,-0.009815857,0.0007918237,0.9724699,17.59673,-9.158182,-40.99849,1002.601
0.399040222,-0.4146348,0.0009917939,-0.5267274,-0.008307658,0.002301161,0.9893632,14.33515,-9.926756,-40.97326,1002.601
0.418868542,-0.4146348,-1.330288,0.3295469,0.008750192,0.01854799,1.026519,14.33515,-9.926756,-40.97326,1002.598
0.438696385,-0.6595686,1.271759,2.40907,-0.004293136,0.02636457,1.065245,14.33515,-9.926756,-40.97326,1002.598
0.458524704,-0.8432691,-4.597974,3.876969,-0.01493021,0.01755393,1.06912,17.60331,-9.516459,-40.54865,1002.602
0.478352547,-3.904943,-3.266694,3.693482,-0.004135568,0.002033575,1.071394,17.60331,-9.516459,-40.54865,1002.602
0.498181343,-3.231374,12.34558,3.326507,-0.0439831,0.02238231,1.114675,17.60331,-9.516459,-40.54865,1002.604
0.518009186,-0.04723396,20.63582,4.610919,-0.09306832,0.06810641,1.200613,14.70651,-9.914352,-40.5313,1002.604
0.540315628,-5.864414,17.42865,5.89533,-0.1307767,0.07882634,1.28486,14.70651,-9.914352,-40.5313,1002.605
0.560143948,-9.844589,-8.410274,3.020695,-0.1183463,0.04891752,1.172657,17.9681,-9.145781,-40.55652,1002.605
0.579971790,-14.2534,-16.21641,-1.199515,-0.03373163,0.01185136,0.9659001,17.9681,-9.145781,-40.55652,1002.605
0.599800110,-6.537982,-6.836944,-1.444164,0.03713175,0.03572793,0.8203487,15.75802,-9.886229,-39.64852,1002.605
0.619627952,5.035144,4.357906,4.672081,0.0702071,0.07354577,0.8835928,15.75802,-9.886229,-39.64852,1002.605
0.639456272,5.341311,9.501486,10.72717,3.242539E-05,0.09982511,1.028433,15.75802,-9.886229,-39.64852,1002.605
0.659284115,0.8712681,4.478932,9.993216,-0.07618697,0.05601634,0.9967681,17.58782,-8.398331,-39.61805,1002.601
0.679111957,-5.925647,-0.7856733,6.017655,-0.05178279,0.0381166,0.9926811,17.58782,-8.398331,-39.61805,1002.601
0.698940754,-7.701417,-0.4831098,3.38767,0.006826668,0.01918619,0.8913833,17.58782,-8.398331,-39.61805,1002.601
0.718768597,-5.007145,-2.116953,4.488594,0.044176,0.006599254,0.8413984,15.38843,-9.880589,-39.14044,1002.601
0.738596916,-0.4758682,1.634835,5.467194,0.03451524,-0.0134478,0.8278334,15.38843,-9.880589,-39.14044,1002.601
0.758424759,2.279638,2.482013,4.977894,-0.001312504,-0.01645248,0.8704897,16.8525,-8.772991,-39.60879,1002.601
0.778253078,1.851004,2.542525,2.531395,-0.0167131,-0.005173219,0.9367588,16.8525,-8.772991,-39.60879,1002.601
0.798080921,-1.823005,2.239962,-0.5267274,-0.01425566,0.001702008,0.9556052,16.8525,-8.772991,-39.60879,1002.601
0.817908764,-2.496573,-1.753877,-2.912063,-0.01237362,0.009488806,0.9498428,16.13021,-9.865406,-38.7632,1002.599
0.840215683,-1.21067,-6.171304,-3.523688,0.02398867,0.02035241,0.9342538,16.13021,-9.865406,-38.7632,1002.599
0.860043526,-1.21067,-4.355923,-3.095551,0.04098674,0.0228681,0.9312775,17.23537,-9.493979,-39.15386,1002.599
0.879872322,-1.761771,-3.811309,-3.034388,0.02637224,0.02130838,0.921696,17.23537,-9.493979,-39.15386,1002.599
0.899700165,-2.129172,-4.658486,-3.707175,0.0162199,0.01543235,0.9299269,17.23537,-9.493979,-39.15386,1002.6
0.919528484,-1.02697,-9.620528,-5.236237,0.01769687,0.01251953,0.9303865,16.1295,-9.872623,-39.14322,1002.6
0.939356327,0.6875677,-10.46771,-5.847861,0.0372763,0.01271043,0.9674465,16.1295,-9.872623,-39.14322,1002.599
0.959184170,-2.863973,-6.836944,-5.297399,0.04129212,0.01477552,1.007497,16.85332,-8.764572,-39.16544,1002.599
0.979012489,-0.7208021,-5.142588,-5.786699,0.02625778,0.001039006,0.997373,16.85332,-8.764572,-39.16544,1002.6
0.998840332,1.116202,-5.929253,-5.175074,0.02526105,0.03474894,1.045819,16.85332,-8.764572,-39.16544,1002.6
1.018668652,1.238669,-0.6041352,-4.135312,0.01899825,0.02938114,1.054514,15.76472,-10.2433,-39.13535,1002.602
1.038496494,3.075673,-3.811309,-2.667413,0.01028853,0.02496758,1.060331,15.76472,-10.2433,-39.13535,1002.602
1.058325291,5.769945,13.31379,1.185821,-0.02363501,0.04932043,1.13594,17.21729,-8.402313,-39.61666,1002.602
1.078153133,9.872588,19.30454,4.305107,-0.08498858,0.03804994,1.238546,17.21729,-8.402313,-39.61666,1002.602
1.097980976,7.545716,1.574322,1.308146,-0.1416135,0.04381885,1.329629,17.21729,-8.402313,-39.61666,1002.6
1.120287895,-6.966616,-11.01232,-10.31272,-0.1346884,-0.01067245,1.131413,15.39335,-10.2557,-39.57732,1002.6
1.140115738,-10.94679,-19.4841,-16.79594,-0.007506785,-0.009060635,0.9202774,15.39335,-10.2557,-39.57732,1002.6
1.159944058,-10.21199,-10.58873,-14.65526,0.1100421,0.01750038,0.7778629,17.59933,-9.131721,-39.60508,1002.6
1.179771900,1.851004,6.415338,-6.337161,0.1108609,0.003218214,0.7092448,17.59933,-9.131721,-39.60508,1002.6
1.199599743,17.58801,16.76301,0.3907094,0.02525223,-0.0003123321,0.8429145,17.59933,-9.131721,-39.60508,1002.6
1.219428062,21.32325,12.70866,1.613959,-0.04958488,0.009463744,1.019552,15.76799,-10.63526,-40.45893,1002.602
1.239255905,16.79197,5.931237,-1.138352,-0.07609528,0.008028593,1.087265,15.76799,-10.63526,-40.45893,1002.602
1.259084702,4.239109,1.453297,-5.419724,-0.0830033,0.01134441,1.063668,16.84991,-8.799454,-41.00219,1002.599
1.278912544,-2.067938,-1.572338,-8.233197,-0.05858955,0.01657232,0.9578549,16.84991,-8.799454,-41.00219,1002.599
1.298740864,-2.80274,-2.903618,-6.642973,-0.01259256,0.02302075,0.9079204,16.84991,-8.799454,-41.00219,1002.601
1.318568707,-3.782475,-5.929253,-6.275998,0.003336899,0.005907943,0.8445144,16.89686,-11.72339,-40.44366,1002.601
1.338396549,-5.61948,-2.601054,-5.909023,0.02460684,-0.001895145,0.7936767,16.89686,-11.72339,-40.44366,1002.601
1.358229637,-4.39481,1.574322,-4.746937,0.04702279,-0.002725095,0.8051341,16.47854,-8.811855,-41.44416,1002.601
1.378052712,-3.292608,-0.7251607,-3.58485,0.04608957,0.003164524,0.8264073,16.47854,-8.811855,-41.44416,1002.603
1.400360108,-3.904943,3.510728,-2.606251,0.02381732,0.002141691,0.8540366,16.47854,-8.811855,-41.44416,1002.603
1.420187950,-1.884238,4.902521,-2.178114,0.02550842,-0.00844006,0.9046542,16.5114,-11.02887,-42.29198,1002.604
1.440015316,-0.965736,1.332271,-1.505327,0.02904463,0.003893629,0.9635848,16.5114,-11.02887,-42.29198,1002.604
1.459844113,-0.9045025,9.501486,0.08489711,0.009224513,0.01951967,1.024591,16.85318,-9.191408,-42.32577,1002.602
1.479671955,2.340871,11.49841,1.858608,-0.03816313,0.01409027,1.096259,16.85318,-9.191408,-42.32577,1002.602
1.499500275,3.01444,1.150733,1.430471,-0.06221884,0.01855063,1.1804,16.85318,-9.191408,-42.32577,1002.605
1.519328117,-3.660008,-7.684122,-3.279038,-0.06472182,0.0003988058,1.129639,16.87043,-10.29149,-42.30633,1002.605
1.539156437,-5.497013,-6.715919,-3.523688,-0.02218871,0.006298164,1.061379,16.87043,-10.29149,-42.30633,1002.605
1.558984280,-0.3534013,-9.681041,-3.340201,0.005252847,0.01015305,0.9854679,16.49167,-9.954041,-43.64148,1002.605
1.578812122,4.60651,-13.25129,-2.300439,0.02319526,0.01949774,0.9854176,16.49167,-9.954041,-43.64148,1002.605
1.598640919,0.4426338,-9.257452,-0.09859026,0.031941,0.05571373,1.042512,16.49167,-9.954041,-43.64148,1002.605
1.618468285,-4.02741,-4.476948,0.9411715,-0.006142468,0.05345488,0.9954062,16.49659,-10.32915,-44.07836,1002.605
1.638297081,-6.170581,-12.8277,1.552796,0.0002010379,0.0476363,0.9919629,16.49659,-10.32915,-44.07836,1002.605
1.658124924,-8.497453,-7.260533,2.714883,0.02885427,0.02820119,0.9477825,15.72594,-8.512064,-44.55133,1002.605
1.677953243,-5.558246,5.144571,5.956493,0.0570093,0.01853251,0.9162046,15.72594,-8.512064,-44.55133,1002.603
1.700259685,-1.149436,20.09121,12.50088,0.02066779,0.04337141,0.9966556,15.72594,-8.512064,-44.55133,1002.603
1.720087528,6.38228,23.54043,16.65992,-0.1064741,0.06833087,1.120563,15.73661,-9.253874,-44.98173,1002.603
1.739915848,2.891973,20.9989,14.76389,-0.1750326,0.04828728,1.23523,15.73661,-9.253874,-44.98173,1002.603
1.759743690,-4.456044,-2.480029,4.855569,-0.1550325,0.007857386,1.186162,16.09072,-8.141386,-44.5592,1002.603
1.779572487,-13.76353,-14.21949,-4.257637,-0.05645544,-0.003326444,0.9804268,16.09072,-8.141386,-44.5592,1002.603
1.799400330,-9.477188,-7.86566,-6.337161,0.0546324,0.02945805,0.807671,16.09072,-8.141386,-44.5592,1002.599
1.819227695,-1.02697,-4.718999,-1.872301,0.1176957,0.03211558,0.7643812,17.21711,-9.254782,-45.87399,1002.599
1.839056492,3.443074,-3.992847,2.470233,0.09348726,0.02180065,0.7794237,17.21711,-9.254782,-45.87399,1002.601
1.858884335,3.136906,-1.753877,2.470233,0.04595891,0.0006267847,0.7839193,16.44071,-7.070996,-46.35344,1002.601
1.878712654,1.116202,0.6666315,0.6353592,0.03634056,0.002120418,0.8182496,16.44071,-7.070996,-46.35344,1002.599
1.898540497,2.647039,1.695347,-0.1597527,0.03638013,0.01681486,0.8540432,16.44071,-7.070996,-46.35344,1002.599
1.918368340,3.38184,5.386622,1.430471,0.02292701,0.02566137,0.9169104,17.20396,-8.538231,-46.77365,1002.597
1.938196659,6.19858,5.144571,1.124659,-0.03038675,0.02160395,0.9644839,17.20396,-8.538231,-46.77365,1002.597
1.958024502,4.177875,-2.601054,-1.321839,-0.03265209,0.03099878,1.028741,16.8285,-8.167099,-46.33539,1002.599
1.980331898,-5.986881,-6.110791,-6.153673,-0.009908168,0.03934674,1.008869,16.8285,-8.167099,-46.33539,1002.599
2.000159740,-10.15076,-7.563096,-8.539009,0.02481245,0.04078367,0.924218,16.8285,-8.167099,-46.33539,1002.601
2.019987583,-7.640184,-7.139507,-8.600172,0.07331826,0.05463292,0.9090605,17.59258,-9.625914,-46.31225,1002.601
2.039815903,-6.966616,0.6061188,-4.135312,0.09540313,0.05635577,0.9702486,17.59258,-9.625914,-46.31225,1002.604
2.059643745,-3.415075,-0.1805463,-0.1597527,0.04751895,0.06216061,1.057423,17.19163,-7.81326,-47.22997,1002.604
2.079472065,-3.415075,-1.209262,1.063496,0.005085076,0.04117714,1.129949,17.19163,-7.81326,-47.22997,1002.606
2.099299908,-9.844589,-8.5313,-1.016027,-0.03541526,0.03583923,1.224748,17.19163,-7.81326,-47.22997,1002.606
2.119128227,-25.94899,-11.19386,-4.746937,-0.01267693,0.0001847032,1.130801,17.58517,-9.276058,-47.20544,1002.602
2.138956070,-27.05119,-0.4831098,-6.214836,0.00836264,-0.02587129,0.9823697,17.58517,-9.276058,-47.20544,1002.602
2.158783913,-16.33534,11.07482,-3.890663,0.02016138,-0.05847467,0.9657266,17.19738,-8.179955,-47.22349,1002.605
2.178612709,-5.068378,8.896359,-4.502287,-0.02854777,-0.1146561,0.9941826,17.19738,-8.179955,-47.22349,1002.605
2.198440552,4.484043,1.997911,-9.456446,-0.06732611,-0.1421427,0.9870136,17.19738,-8.179955,-47.22349,1002.607
2.218268871,13.11796,6.596876,-16.73478,-0.08645829,-0.1247597,0.9674178,17.92613,-7.447019,-47.68258,1002.607
2.238096714,19.30254,4.66047,-21.38313,-0.0797685,-0.06907794,1.02414,17.92613,-7.447019,-47.68258,1002.603
2.257924557,20.22104,11.67994,-20.52685,-0.08147521,-0.008642411,1.051008,18.2975,-7.434616,-47.24061,1002.603
2.280231476,24.38492,7.625592,-16.06199,-0.09416957,0.02254437,1.087921,18.2975,-7.434616,-47.24061,1002.604
2.300059319,15.13867,-3.024643,-13.92131,-0.06539132,0.0295977,1.124,18.2975,-7.434616,-47.24061,1002.604
2.319887638,2.830739,-3.508745,-13.92131,-0.02687491,0.01240984,0.9808285,19.05008,-8.160041,-47.23043,1002.604
2.339715481,-1.761771,1.937398,-12.63689,0.004726189,0.02248733,0.8513495,19.05008,-8.160041,-47.23043,1002.604
2.359543324,1.60607,1.816373,-8.661334,0.06100528,0.01486077,0.7983903,19.05582,-8.526736,-47.22395,1002.606
2.379372120,3.871708,1.271759,-3.462525,0.07122319,0.01931704,0.8070455,19.05582,-8.526736,-47.22395,1002.606
2.399199963,4.851443,1.997911,-1.199515,0.04850743,-0.004654695,0.8094601,19.05582,-8.526736,-47.22395,1002.602
2.419028282,4.300342,0.7271442,0.3295469,0.04228902,-0.002657692,0.8432919,19.44444,-9.614419,-46.76255,1002.602
2.438856125,2.402105,4.66047,1.246984,0.03902639,0.005247894,0.897893,19.44444,-9.614419,-46.76255,1002.604
2.458683968,1.78977,4.66047,2.225583,0.01087498,0.002208491,0.9096158,19.06158,-8.893431,-47.21747,1002.604
2.478512287,1.544836,-3.024643,1.980933,0.007044598,0.01054224,0.9410536,19.06158,-8.893431,-47.21747,1002.602
2.498340130,-2.251639,-6.292329,0.5130343,0.04597538,0.0004947385,0.9311353,19.06158,-8.893431,-47.21747,1002.602
2.518168450,-6.537982,-4.174385,0.7576842,0.06426559,-0.00687871,0.8629397,20.56015,-9.986006,-47.64694,1002.602
2.537996292,-4.088643,-0.6041352,1.919771,0.07403079,-0.01902258,0.8541356,20.56015,-9.986006,-47.64694,1002.602
2.560302735,-0.1697009,3.147652,4.427432,0.05716617,-0.01508755,0.9068601,19.44362,-9.622839,-47.2059,1002.604
2.580131531,2.647039,10.46969,4.672081,0.00925288,-0.01908095,0.9693674,19.44362,-9.622839,-47.2059,1002.604
2.599959374,6.137346,7.686105,3.38767,-0.03523668,-0.002999094,1.070573,19.44362,-9.622839,-47.2059,1002.6
2.619787693,5.402544,-1.693364,0.5741968,-0.05312436,0.02729396,1.151917,20.56015,-9.986006,-47.64694,1002.6
2.639615536,-1.578071,-6.957969,-2.239276,-0.02932321,0.02641883,1.141646,20.56015,-9.986006,-47.64694,1002.602
2.659443378,-5.680713,-9.257452,-3.156713,-0.004658225,0.02058223,1.091282,20.58233,-11.46121,-48.06437,1002.602
2.679271698,-0.8432691,-12.16206,-1.627652,0.0301545,0.041151,1.065133,20.58233,-11.46121,-48.06437,1002.603
2.699099541,2.095937,-7.381558,4.243944,0.0559381,0.07306691,1.119698,20.58233,-11.46121,-48.06437,1002.603
2.718927860,2.585805,-0.1805463,12.25623,0.008745993,0.1001866,1.159675,20.57658,-11.09451,-48.07085,1002.599
2.738755703,-1.884238,-11.55693,19.41223,-0.005199095,0.0982714,1.203183,20.57658,-11.09451,-48.07085,1002.599
2.758583546,-15.1719,-6.897457,20.9413,-0.0417079,0.04917105,1.11287,19.46332,-11.1233,-48.9534,1002.599
2.778412342,-19.88688,-7.442071,19.84037,-0.04983948,0.01465938,0.9534531,19.46332,-11.1233,-48.9534,1002.599
2.798240185,-16.6415,-6.473867,19.84037,0.01372689,0.00608735,0.8965878,19.46332,-11.1233,-48.9534,1002.599
2.818068504,-12.53886,0.6061188,20.57432,0.03562675,-0.01089917,0.8727294,20.21507,-11.85714,-49.38656,1002.599
2.837896347,-5.741947,9.319948,22.65384,0.01763577,-0.01538984,0.86653,20.21507,-11.85714,-49.38656,1002.599
2.860202789,4.177875,14.64507,24.30523,-0.06349919,0.02335824,0.9555032,19.84454,-11.86113,-49.38517,1002.599
2.880031109,6.014879,22.33018,23.08198,-0.1117234,0.01802106,1.067238,19.84454,-11.86113,-49.38517,1002.599
2.899858952,5.096377,3.873805,15.86481,-0.1183755,-0.002923807,1.078752,19.84454,-11.86113,-49.38517,1002.599
2.919686794,0.07523298,-9.802066,7.730205,-0.04773371,0.0001179569,0.9765354,20.21917,-12.24068,-50.26679,1002.598
2.939515114,-5.007145,-5.203101,4.243944,0.02621241,0.006039126,0.8496994,20.21917,-12.24068,-50.26679,1002.598
2.959342957,-4.945911,0.7271442,3.38767,0.05953404,-0.0003105735,0.7698424,19.49125,-12.96519,-49.36435,1002.598
2.979171753,-1.578071,3.389703,5.467194,0.0765769,0.001259383,0.7784454,19.49125,-12.96519,-49.36435,1002.598
2.998999596,0.1976999,8.412257,6.751605,0.06460852,-0.0206671,0.7981881,19.49125,-12.96519,-49.36435,1002.598
3.018827915,0.6263342,7.323029,5.222544,0.04052668,-0.04506886,0.8271553,19.48385,-12.61534,-50.25753,1002.594
3.038655758,0.6263342,6.415338,2.714883,0.02119984,-0.03921278,0.8741109,19.48385,-12.61534,-50.25753,1002.594
3.058483601,1.361136,5.689186,1.308146,0.02274981,-0.02251855,0.9282482,20.9775,-13.3328,-50.25013,1002.595
3.078311920,2.157171,3.934317,0.2683845,0.01416718,-0.0072864,1.003671,20.9775,-13.3328,-50.25013,1002.595
3.098139763,0.3201669,0.7876569,-1.199515,-0.01007858,0.005837835,1.046347,20.9775,-13.3328,-50.25013,1002.597
3.117968082,-3.353841,-5.929253,-3.768338,-0.02950647,0.0150438,1.069187,20.60696,-13.33678,-50.24874,1002.597
3.140274525,-8.558686,-14.94565,-9.028309,-0.01943352,0.01157452,1.022294,20.60696,-13.33678,-50.24874,1002.597
3.160102367,-12.47763,-18.21333,-11.96411,0.03238506,0.008265445,0.9520048,20.99214,-14.38861,-51.11847,1002.597
3.179931164,-7.762651,-12.88821,-11.65829,0.06079884,0.01896926,0.8872253,20.99214,-14.38861,-51.11847,1002.595
3.199759007,5.280077,-10.58873,-8.844821,0.07831794,0.03911166,0.9234338,20.99214,-14.38861,-51.11847,1002.595
3.219586849,10.60739,-4.96105,-4.012987,0.04265849,0.06898169,1.069551,20.60437,-13.36324,-51.64214,1002.596
3.239415169,5.647479,-1.632851,-1.994627,-0.02613213,0.09130405,1.185885,20.60437,-13.36324,-51.64214,1002.596
3.259243012,-10.82432,-3.871821,-3.890663,-0.007807772,0.02563541,1.174346,19.87301,-14.0519,-52.07083,1002.598
3.279071331,-21.41771,5.991749,-8.722497,-0.02682702,-0.0409868,1.049577,19.87301,-14.0519,-52.07083,1002.598
3.298899174,-15.1719,4.115856,-7.193435,0.04395609,-0.05202132,0.9656295,19.87301,-14.0519,-52.07083,1002.596
3.318727017,-2.374106,13.13225,-4.318799,0.004024054,-0.01804456,1.006567,20.60764,-13.7552,-52.96572,1002.596
3.338555336,3.38184,12.46661,-4.746937,-0.04032596,-0.06101649,1.051479,20.60764,-13.7552,-52.96572,1002.599
3.358383179,8.586685,6.2338,-5.786699,-0.06956524,-0.05729906,1.040556,20.60023,-13.40534,-53.85891,1002.599
3.378211975,18.38404,5.810211,-6.275998,-0.09207559,-0.01107147,1.076152,20.60023,-13.40534,-53.85891,1002.601
3.398039818,23.28272,9.501486,-4.318799,-0.1021104,0.01735751,1.175302,20.60023,-13.40534,-53.85891,1002.601
3.420346260,17.34307,1.937398,-4.624612,-0.1020954,0.03790092,1.213539,21.72322,-14.05725,-53.40784,1002.599
3.440174580,4.79021,-9.681041,-5.419724,-0.0611822,0.0607882,1.126068,21.72322,-14.05725,-53.40784,1002.599
3.460002422,-4.823445,-9.257452,-5.297399,0.006332967,0.03726667,0.9189916,22.48072,-15.15779,-53.83453,1002.602
3.479830265,-6.966616,-9.317965,-2.606251,0.05931883,0.04255636,0.7773039,22.48072,-15.15779,-53.83453,1002.602
3.499658585,-0.4758682,-5.929253,1.491634,0.08632415,0.03422273,0.6960234,22.48072,-15.15779,-53.83453,1002.602
3.519486427,-0.9045025,3.813292,5.773006,0.06970324,0.0001999106,0.7577224,22.47332,-14.80793,-54.72771,1002.602
3.539314747,-1.578071,6.415338,5.834168,0.03296258,-0.02672183,0.7785404,22.47332,-14.80793,-54.72771,1002.604
3.559142590,0.5038673,3.692266,3.020695,-0.02230672,-0.02101919,0.8392071,22.484,-15.54974,-55.15811,1002.604
3.578970432,0.0139995,9.198922,-0.1597527,-0.003344022,-0.04194549,0.8032776,22.484,-15.54974,-55.15811,1002.607
3.598799229,3.810475,1.211246,-1.505327,0.01001613,-0.02460317,0.8988638,22.484,-15.54974,-55.15811,1002.607
3.618626594,4.912677,0.8481696,-2.178114,0.03002162,-0.03423027,0.9020836,22.10114,-14.82875,-55.61303,1002.607
3.638455391,3.38184,-1.693364,-2.667413,0.03145165,-0.03375454,0.8943554,22.10114,-14.82875,-55.61303,1002.607
3.658283234,2.279638,0.4245807,-2.789738,0.04754315,-0.03364101,0.9068175,22.86521,-16.28757,-55.58989,1002.611
3.678111076,-0.04723396,5.689186,-2.239276,0.05734337,-0.04233774,0.9139594,22.86521,-16.28757,-55.58989,1002.611
3.697939396,-2.190405,3.510728,-1.811139,0.05119695,-0.05055561,0.9520824,22.86521,-16.28757,-55.58989,1002.611
3.720245838,-0.1084674,4.357906,-2.300439,0.05120198,-0.04321893,0.965635,23.22177,-15.57545,-56.9343,1002.611
3.740073681,0.4426338,6.415338,-1.933464,0.0372117,-0.03441127,1.013542,23.22177,-15.57545,-56.9343,1002.607
3.759902000,-0.7208021,4.720983,-2.300439,0.01697843,-0.02215755,1.090462,23.2382,-16.68396,-57.35822,1002.607
3.779729843,-7.640184,1.271759,-1.933464,0.02529589,-0.01425718,1.117969,23.2382,-16.68396,-57.35822,1002.609
3.799558639,-11.19173,0.0615045,-1.688814,0.0110554,-0.03398292,1.045544,23.2382,-16.68396,-57.35822,1002.609
3.819386482,-4.823445,-2.782593,-1.383002,0.01346832,-0.04327229,1.024728,24.34816,-16.68885,-58.24908,1002.61
3.839213848,3.749241,-8.047197,-1.505327,0.0174156,-0.02072356,1.0784,24.34816,-16.68885,-58.24908,1002.61
3.859042644,4.300342,-8.410274,-0.4044026,0.005749688,0.01344137,1.13656,23.60626,-16.70524,-58.68966,1002.608
3.878870487,-5.313313,3.873805,3.204182,-0.01415869,0.04660372,1.200553,23.60626,-16.70524,-58.68966,1002.608
3.898698807,-10.08952,10.83277,6.62928,-0.05229471,0.07461739,1.187873,23.60626,-16.70524,-58.68966,1002.611
3.918526649,-13.45736,9.13841,10.97181,-0.06396675,0.06575719,1.173411,23.96939,-16.3514,-59.58424,1002.611
3.938354492,-15.11067,1.816373,12.1339,-0.07849226,0.02270694,1.121623,23.96939,-16.3514,-59.58424,1002.611
3.958182812,-13.27366,2.966114,10.23787,-0.07227433,-0.01008935,1.036952,23.97842,-17.11005,-60.90134,1002.611
3.978010654,-5.007145,6.475851,10.1767,-0.06265415,0.0001512535,1.022472,23.97842,-17.11005,-60.90134,1002.613
4.000317097,0.3201669,8.291232,9.075778,-0.08393684,-0.003298825,1.051049,23.97842,-17.11005,-60.90134,1002.613
4.020145893,1.544836,-3.448232,3.938132,-0.08944121,-0.008325825,0.9974755,23.57913,-15.28055,-60.93235,1002.611
4.039973259,0.5038673,-14.88513,-1.505327,-0.02863014,0.01121283,0.8920192,23.57913,-15.28055,-60.93235,1002.611
4.059802055,-0.965736,-13.49334,-3.401363,0.06473114,0.03285142,0.7796379,23.97102,-16.76019,-61.79453,1002.613
4.079629898,-3.537542,-8.470787,0.6353592,0.1218318,0.04369904,0.7127714,23.97102,-16.76019,-61.79453,1002.613
4.099457741,-2.374106,1.392784,5.711843,0.1223057,0.01827133,0.6672664,23.97102,-16.76019,-61.79453,1002.614
4.119286060,3.504307,7.14149,7.974854,0.06620792,-0.01797101,0.7011749,22.44519,-14.24414,-63.67109,1002.614
4.139113903,7.913117,7.867643,6.568118,0.0194164,-0.02771928,0.7979166,22.44519,-14.24414,-63.67109,1002.616
4.158941746,7.484482,8.170207,4.182782,-0.003673322,-0.03059173,0.8680165,23.19213,-14.60166,-63.60405,1002.616
4.178770065,4.484043,10.71174,1.491634,-0.02007525,-0.03595965,0.8984875,23.19213,-14.60166,-63.60405,1002.614
4.198597908,4.851443,7.202003,-0.9548646,-0.0243767,-0.03006187,0.9303982,23.19213,-14.60166,-63.60405,1002.614
4.218426228,5.096377,5.205084,-2.973226,-0.02238855,-0.01682165,0.9647255,23.56677,-14.98122,-64.48566,1002.616
4.238254070,5.831179,-1.088237,-5.664374,-0.02961673,-0.01143409,0.9932706,23.56677,-14.98122,-64.48566,1002.616
4.258081913,3.443074,-6.715919,-9.517609,-0.03061657,-0.002169986,1.000564,24.31923,-15.70784,-64.53882,1002.616
4.277910709,-0.5371017,-10.46771,-13.12619,0.001901752,-0.01231465,0.9641329,24.31923,-15.70784,-64.53882,1002.613
4.300217152,1.299902,-11.07283,-12.26992,0.04547698,-0.002938514,0.9219496,24.31923,-15.70784,-64.53882,1002.615
4.320044994,8.586685,-18.33436,-6.82646,0.1249625,0.009846398,1.004601,25.33964,-13.94104,-65.46078,1002.615
4.339873314,0.8712681,-13.00924,3.999295,0.04492008,0.09820506,1.067758,25.33964,-13.94104,-65.46078,1002.613
4.359701157,6.443513,-15.79282,9.259266,0.07562996,0.02787305,1.115014,24.99442,-15.74264,-66.75813,1002.613
4.379529476,-17.31507,-11.19386,6.445793,-0.001253769,-0.009853926,1.183782,24.99442,-15.74264,-66.75813,1002.613
4.399357319,-16.6415,-4.597974,5.039056,-0.007713032,-0.03247266,1.106472,24.99442,-15.74264,-66.75813,1002.615
4.419185162,-8.252519,19.48608,-2.178114,-0.01636479,-0.06959922,1.075437,24.2962,-14.66669,-67.66173,1002.615
4.439013481,-6.415515,19.42557,-5.664374,-0.06636024,-0.05121237,1.134692,24.2962,-14.66669,-67.66173,1002.617
4.458841324,-2.680273,8.835846,-9.517609,-0.07168937,-0.06931368,1.110977,24.98537,-15.40962,-68.53802,1002.617
4.478669167,2.463338,5.749699,-13.49317,-0.06565309,-0.08024054,1.009043,24.98537,-15.40962,-68.53802,1002.612
4.498497963,14.03646,5.689186,-15.20572,-0.04533024,-0.05967581,1.012416,24.98537,-15.40962,-68.53802,1002.612
4.518325806,19.54748,6.89944,-13.79898,-0.04282052,-0.02978623,1.084475,26.43808,-13.63817,-69.4616,1002.614
4.538154125,18.38404,8.896359,-12.33108,-0.06560221,-0.006384502,1.145537,26.43808,-13.63817,-69.4616,1002.614
4.557981968,14.22016,-3.932334,-12.51457,-0.06142885,0.01060317,1.113745,26.43808,-13.63817,-69.4616,1002.616
4.580288410,8.770386,-15.1877,-11.65829,0.001247228,0.03156111,0.9870478,27.57091,-15.04031,-69.88428,1002.616
4.600116730,3.749241,-9.681041,-7.80506,0.04026603,0.02856454,0.8719413,27.57091,-15.04031,-69.88428,1002.616
4.619944572,1.483603,-9.862579,-4.502287,0.03919588,0.01480141,0.8207126,28.68005,-15.05362,-71.21851,1002.616
4.639772415,1.054968,-13.3118,-2.361601,0.02893193,0.001512543,0.784017,28.68005,-15.05362,-71.21851,1002.618
4.659600735,-1.455604,-8.289248,-1.994627,0.02841305,-0.018557,0.7414411,27.9554,-16.17009,-71.63964,1002.618
4.679428577,2.095937,-7.442071,-2.361601,0.03380413,-0.02387728,0.744763,27.9554,-16.17009,-71.63964,1002.617
4.699257374,3.688008,-2.601054,-0.5267274,0.04954157,-0.02269399,0.7977775,27.9554,-16.17009,-71.63964,1002.617
4.719085216,3.626774,3.99483,1.675121,0.02332977,-0.006172524,0.8399988,27.19459,-15.10323,-72.98637,1002.619
4.738913059,7.178315,0.1825299,2.164421,0.006028762,-0.02469244,0.8704072,27.19459,-15.10323,-72.98637,1002.619
4.758741379,0.4426338,-5.203101,1.736283,0.02084334,-0.0200565,0.943717,27.19459,-15.10323,-72.98637,1002.621
4.778569221,-5.741947,-3.38772,2.042096,0.03286863,-0.02888829,0.8900285,28.33331,-16.9416,-73.84484,1002.621
4.798397064,-5.190845,0.4850934,2.592558,0.05515064,-0.03225832,0.8580325,28.33331,-16.9416,-73.84484,1002.621
4.818225384,-1.088203,3.752779,4.060457,0.0406487,-0.03569309,0.8783667,29.07356,-16.94205,-74.29098,1002.621
4.838053226,3.994175,7.988668,5.161381,0.02193238,-0.0214349,0.9755607,29.07356,-16.94205,-74.29098,1002.618
4.857881546,2.402105,9.380461,5.161381,-0.007598186,0.01272947,1.071951,29.07356,-16.94205,-74.29098,1002.618
4.880187988,-7.946352,6.959952,5.344869,0.001704491,0.02015498,1.102347,29.08916,-18.05897,-75.15824,1002.618
4.900015831,-6.476748,6.415338,6.262305,-0.001383608,0.01024085,1.036186,29.08916,-18.05897,-75.15824,1002.618
4.919844627,3.38184,1.513809,7.669042,0.03176471,-0.004687347,1.033997,30.21051,-18.79846,-76.09949,1002.62
4.939672470,10.97479,-4.355923,9.136941,0.04264855,0.02238792,1.132543,30.21051,-18.79846,-76.09949,1002.62
4.959500313,9.321486,-3.38772,11.6446,0.01732732,0.06623258,1.195655,30.23186,-20.28208,-76.96028,1002.622
4.979328632,1.422369,-0.3620844,13.72412,-0.007377198,0.06030799,1.215067,30.23186,-20.28208,-76.96028,1002.622
4.999156475,-9.967056,1.029708,13.47948,-0.01659524,0.04805425,1.201539,30.23186,-20.28208,-76.96028,1002.62
5.018984318,-18.72344,8.593796,16.72108,-0.01583923,0.03323828,1.113612,30.25487,-21.74886,-76.93436,1002.62
5.038812637,-11.98776,14.40302,18.55596,-0.0498636,0.004720879,1.072624,30.25487,-21.74886,-76.93436,1002.62
5.058640480,-4.272344,16.03686,17.57736,-0.104118,0.01730292,1.156971,30.25487,-21.74886,-76.93436,1002.62
5.078468800,-4.02741,13.43481,13.35715,-0.1536259,0.0107607,1.17555,29.51706,-22.14878,-78.25517,1002.62
5.098296642,-5.374546,-6.957969,4.610919,-0.1465324,-0.004989361,1.090479,29.51706,-22.14878,-78.25517,1002.62
5.118124485,-6.905383,-16.57949,-2.300439,-0.05818975,0.00526894,0.913871,31.00989,-22.87466,-78.69111,1002.617
5.137953281,-1.455604,-14.15898,-5.480886,0.03256179,0.03165638,0.7571219,31.00989,-22.87466,-78.69111,1002.617
5.160259724,3.01444,-10.58873,-3.951825,0.09796704,0.03181804,0.6833977,29.54896,-24.30467,-79.10406,1002.617
5.180087090,5.157611,-9.075913,-0.5267274,0.1426144,0.0393148,0.6672633,29.54896,-24.30467,-79.10406,1002.617
5.199915886,-2.067938,3.208165,5.100219,0.1365155,0.03406418,0.7242259,29.54896,-24.30467,-79.10406,1002.615
5.219743729,1.299902,6.536364,9.075778,0.07976018,0.02165166,0.7471586,28.05448,-23.59564,-79.55482,1002.615
5.239571571,4.055408,3.813292,9.687403,0.02139663,0.003114673,0.8588816,28.05448,-23.59564,-79.55482,1002.615
5.259399891,0.5038673,4.720983,7.60788,-0.03225107,-0.006702815,0.9416628,28.05448,-23.59564,-79.55482,1002.615
5.279227734,-2.251639,1.937398,3.938132,-0.03747516,-0.01739597,0.9609436,26.98312,-26.17445,-79.5053,1002.615
5.299055576,-2.129172,-2.72208,-0.2820776,-0.01608408,-0.002135492,0.9835908,26.98312,-26.17445,-79.5053,1002.615
5.318883896,-5.252079,-7.502584,-2.728576,0.01251883,0.01065898,0.9777078,27.35283,-26.17889,-79.95005,1002.613
5.338711739,-10.27322,-7.926172,-4.379962,0.04543402,0.01120808,0.9326414,27.35283,-26.17889,-79.95005,1002.613
5.358540535,-10.39569,-10.28617,-5.052749,0.07251976,0.008798392,0.8846955,27.35283,-26.17889,-79.95005,1002.613
5.378367901,-11.19173,-5.62669,-4.624612,0.09589662,-0.009634316,0.8637178,26.63886,-28.03717,-80.80157,1002.613
5.398195744,-4.39481,1.211246,-2.789738,0.08728623,-0.02326546,0.8834847,26.63886,-28.03717,-80.80157,1002.615
5.418024540,2.095937,4.720983,-1.872301,0.04348239,-0.01339393,1.032923,25.88711,-27.30332,-80.36841,1002.615
5.440330982,4.667743,5.870724,-2.545089,-0.01060002,-0.008022012,1.155847,25.88711,-27.30332,-80.36841,1002.615
5.460158825,-1.333137,-2.480029,-5.786699,-0.02111499,-0.001590346,1.220616,25.88711,-27.30332,-80.36841,1002.615
5.479987145,-9.660889,0.0009917939,-8.905984,-0.009070002,-0.00894144,1.175141,25.52725,-28.04912,-80.79741,1002.615
5.499814987,-5.374546,10.5302,-8.539009,-0.009840975,-0.00279205,1.101809,25.52725,-28.04912,-80.79741,1002.615
5.519642830,1.054968,7.14149,-6.642973,-0.01013997,-0.01097151,1.143279,25.92162,-29.5035,-80.32953,1002.615
5.539471150,4.116642,0.7271442,-9.395284,-0.06176233,-0.03671071,1.080682,25.92162,-29.5035,-80.32953,1002.615
5.559298992,10.11752,-1.874902,-11.65829,-0.04697769,-0.05395158,0.9666001,25.92162,-29.5035,-80.32953,1002.615
5.579126835,18.50651,4.115856,-10.92435,-0.01173295,-0.01190875,0.9598656,26.27573,-28.39101,-79.90701,1002.615
5.598955155,21.50695,17.61019,-6.092511,-0.01418218,0.01739843,1.002988,26.27573,-28.39101,-79.90701,1002.612
5.618782997,21.32325,22.14864,-2.973226,-0.06030474,0.0186822,1.028829,26.66024,-29.09516,-78.56537,1002.612
5.638611793,17.09814,13.8584,-2.973226,-0.08364267,0.01074365,1.017814,26.66024,-29.09516,-78.56537,1002.614
5.658439636,12.93426,8.23072,-5.175074,-0.07073527,0.01309624,0.9559729,26.66024,-29.09516,-78.56537,1002.614
5.678267479,5.525012,13.01122,-5.603211,-0.0561831,0.01314479,0.9447918,27.42034,-30.16924,-77.59866,1002.614
5.698095798,3.565541,8.291232,-5.603211,-0.0377677,0.007816302,0.9166683,27.42034,-30.16924,-77.59866,1002.616
5.717923641,1.667303,0.0009917939,-4.379962,-0.0246293,-0.001398946,0.9035167,28.91565,-30.86985,-76.70454,1002.616
5.740230083,2.340871,-0.05952091,-3.707175,-0.03207947,-0.002525384,0.8562493,28.91565,-30.86985,-76.70454,1002.618
5.760058403,2.769506,-1.995928,-2.606251,-0.02669851,0.009257625,0.8847584,28.91565,-30.86985,-76.70454,1002.618
5.779886246,3.075673,-7.321045,-1.749977,-0.0169429,0.01323969,0.8996884,29.29194,-31.23256,-76.69946,1002.615
5.799714088,0.1976999,-9.741553,-1.260677,0.006379575,0.01187863,0.8908655,29.29194,-31.23256,-76.69946,1002.615
5.819542408,-2.374106,-8.470787,0.5130343,0.02134215,0.0143198,0.8613528,29.28291,-30.47392,-75.38235,1002.615
5.839370251,-3.231374,-5.263614,3.020695,0.03886136,0.007085443,0.8525316,29.28291,-30.47392,-75.38235,1002.615
5.859198093,-5.190845,-2.116953,5.834168,0.03214349,0.007603923,0.8800837,29.28291,-30.47392,-75.38235,1002.619
5.879026890,-5.864414,0.5456061,7.485555,0.01617251,-0.009045113,0.8757414,28.17705,-30.85256,-75.3717,1002.619
5.898854732,-3.904943,0.364068,8.097179,-0.007521632,-0.01493771,0.9062496,28.17705,-30.85256,-75.3717,1002.619
5.918682098,-2.129172,2.058424,8.464154,-0.03361651,-0.0007770434,0.978867,28.16555,-30.11917,-75.38467,1002.619
5.938510895,-0.4758682,-1.814389,7.424392,-0.04854726,0.004626484,1.030623,28.16555,-30.11917,-75.38467,1002.621
5.958338737,-4.700978,-3.508745,6.812768,-0.03188246,0.009204526,1.075927,28.16555,-30.11917,-75.38467,1002.621
5.978167057,-8.497453,0.9086823,6.812768,-0.01969977,0.0004852305,1.068575,27.39737,-28.27682,-74.52759,1002.622
5.997994900,-3.476308,2.724063,8.402991,0.0007488816,-0.008192449,1.060696,27.39737,-28.27682,-74.52759,1002.622
6.020301342,1.361136,19.54659,12.86785,-0.03984101,0.02600426,1.194313,26.65302,-27.89283,-73.20123,1002.62
6.040129662,-7.578951,33.46452,11.09414,-0.1170703,-0.02629078,1.280384,26.65302,-27.89283,-73.20123,1002.62
6.059957504,-10.27322,17.73121,9.075778,-0.2201531,0.03478709,1.387934,26.65302,-27.89283,-73.20123,1002.62
6.079785347,-27.11243,-4.718999,0.7576842,-0.1470622,0.00265515,1.232912,27.74903,-26.76396,-72.33813,1002.62
6.099614143,-33.66441,2.118936,-11.96411,-0.01543592,0.001893662,1.037668,27.74903,-26.76396,-72.33813,1002.62
6.119441509,-19.39701,0.4245807,-2.422764,0.04943675,-0.01543582,0.7789909,29.20408,-24.89771,-71.48937,1002.62
6.139269352,7.239549,3.32919,7.791367,0.0519266,0.03741654,0.8830246,29.20408,-24.89771,-71.48937,1002.62
6.159098148,9.688888,3.873805,12.31739,-0.05321146,0.05475237,1.028975,29.20408,-24.89771,-71.48937,1002.62
6.178925991,3.810475,2.905602,9.320428,-0.1259919,0.02418552,1.029217,28.80082,-22.75422,-71.08243,1002.616
6.198753834,2.463338,-8.047197,3.326507,-0.07698899,0.02875642,1.001942,28.80082,-22.75422,-71.08243,1002.616
6.218582153,-1.149436,-11.73847,1.430471,-0.004813167,0.04310343,0.9403204,29.53779,-22.36272,-70.20497,1002.618
6.238409996,-2.61904,-6.897457,3.509995,0.02110916,0.03859688,0.8330008,29.53779,-22.36272,-70.20497,1002.618
6.258237839,-0.5371017,-4.29541,6.38463,0.01479154,0.02243473,0.807853,29.53779,-22.36272,-70.20497,1002.618
6.278066158,1.422369,-5.324126,7.60788,0.007557267,0.02244033,0.8257518,28.77454,-20.89548,-69.78477,1002.618
6.297894001,-0.1084674,-7.684122,5.467194,-0.01035896,0.01018112,0.828683,28.77454,-20.89548,-69.78477,1002.614
6.320200443,-1.945472,-9.075913,2.347908,0.008544409,0.004856318,0.8010395,29.13522,-20.14127,-68.91241,1002.614
6.340028763,-1.149436,-10.83078,0.9411715,0.03864991,0.009867548,0.7951083,29.13522,-20.14127,-68.91241,1002.614
6.359856606,2.402105,-10.58873,2.531395,0.0459833,0.02215458,0.8265054,29.13522,-20.14127,-68.91241,1002.614
6.379684448,3.932941,-2.419516,5.711843,0.03206397,0.02563536,0.8864515,27.64898,-19.77367,-68.02663,1002.614
6.399513245,2.891973,-1.572338,5.283706,-0.01768542,0.01682123,0.9730781,27.64898,-19.77367,-68.02663,1002.614
6.419341087,0.7488011,-11.67796,2.103258,-0.05092487,0.0002526711,1.039302,28.38595,-19.38217,-67.14918,1002.614
6.439169407,-5.741947,-12.22257,-3.401363,-0.05091733,-0.0075639,1.028643,28.38595,-19.38217,-67.14918,1002.614
6.458997250,-5.374546,-9.136427,-8.233197,-0.03365539,-0.006182428,0.958567,28.38595,-19.38217,-67.14918,1002.612
6.478825092,2.034704,-1.632851,-5.480886,0.0125225,0.03559408,1.019829,27.62762,-18.29005,-67.16584,1002.612
6.498653412,8.219284,5.931237,-0.5267274,-0.03294993,0.06290766,1.136544,27.62762,-18.29005,-67.16584,1002.612
6.518481255,3.259373,5.265597,1.613959,-0.06509584,0.0170982,1.190062,26.88245,-17.91448,-66.28284,1002.612
6.538309097,4.116642,4.963033,-1.627652,-0.1428465,0.03385034,1.23691,26.88245,-17.91448,-66.28284,1002.612
6.558137417,0.8712681,4.357906,-3.217876,-0.1457571,0.01428561,1.2069,26.88245,-17.91448,-66.28284,1002.612
6.577965260,-3.537542,-7.139507,-9.272959,-0.1201272,-0.02870572,1.093109,27.62119,-17.50493,-64.45534,1002.613
6.600271702,-7.150316,-19.9682,-15.08339,0.0174792,-0.07284359,0.8686492,27.62119,-17.50493,-64.45534,1002.613
6.620100498,-1.700538,-4.537461,-14.77758,0.08736867,-0.05875038,0.7066418,27.98598,-17.13426,-64.4632,1002.613
6.639928341,13.05673,25.2953,-8.600172,0.08305033,-0.04895369,0.7400205,27.98598,-17.13426,-64.4632,1002.613
6.659755707,31.05937,34.73529,-0.8937021,-0.02290319,-0.01000019,0.9676593,27.98598,-17.13426,-64.4632,1002.611
6.679584503,27.87523,26.86863,1.246984,-0.1464743,-0.004602845,1.25073,26.47672,-15.29987,-63.60335,1002.611
6.699412346,15.0162,16.7025,-5.786699,-0.1827645,-0.01834816,1.282715,26.47672,-15.29987,-63.60335,1002.611
6.719240189,1.483603,-2.540542,-14.96107,-0.1521098,-0.00532369,1.165806,28.73366,-17.05893,-60.91916,1002.611
6.739068508,-4.700978,-5.808228,-17.28524,-0.05357701,0.01963739,1.006594,28.73366,-17.05893,-60.91916,1002.611
6.758896351,-3.353841,-11.19386,-14.53293,-0.003435255,0.03083124,0.8963261,28.73366,-17.05893,-60.91916,1002.611
6.778724194,1.238669,-12.10155,-11.10783,0.01183482,0.02581403,0.8020945,29.46981,-16.67585,-60.48506,1002.611
6.798552513,4.60651,-9.862579,-7.866222,0.01566091,0.02236594,0.7774392,29.46981,-16.67585,-60.48506,1002.611
6.818380356,1.78977,-0.4225971,-4.135312,0.03968895,0.02654168,0.8420081,28.35244,-16.32111,-60.48738,1002.613
6.838208199,-2.006705,3.026627,-1.627652,0.02563179,0.02259087,0.8493049,28.35244,-16.32111,-60.48738,1002.613
6.858036518,-1.639304,-4.174385,0.1460596,0.02823863,0.006595878,0.8743077,28.35244,-16.32111,-60.48738,1002.609
6.877864361,-3.721242,-4.900537,2.40907,0.04134227,0.01153308,0.8742613,27.21947,-14.84943,-59.62242,1002.609
6.900170803,-3.660008,-8.349761,4.427432,0.04473759,-0.003610754,0.8466523,27.21947,-14.84943,-59.62242,1002.609
6.919999599,-3.660008,-10.34668,5.406031,0.05457436,-0.01765896,0.8556972,27.2162,-14.45748,-58.29884,1002.609
6.939827442,-4.578511,-4.05336,6.812768,0.06244189,-0.02391239,0.8705851,27.2162,-14.45748,-58.29884,1002.611
6.959655285,-1.578071,-0.4831098,8.525316,0.05378141,-0.0238909,0.8981453,27.2162,-14.45748,-58.29884,1002.611
6.979483604,2.891973,-2.237978,9.320428,0.02728494,-0.00869445,0.9973174,25.35297,-13.80512,-58.30378,1002.611
6.999311447,1.116202,0.0615045,8.708804,-0.007591877,-0.003398802,1.047251,25.35297,-13.80512,-58.30378,1002.611
7.019139290,-4.333577,-0.9672114,7.424392,-0.01527045,-0.006787783,1.071893,25.72995,-14.08988,-57.41306,1002.609
7.038967609,-5.129612,-4.113872,6.262305,-0.01824085,-0.003907116,1.061305,25.72995,-14.08988,-57.41306,1002.609
7.058795452,0.3201669,-9.499503,5.406031,-0.001265208,-0.002385203,1.050118,25.72995,-14.08988,-57.41306,1002.609
7.078623295,5.035144,-11.55693,4.916731,0.008961812,0.02603231,1.100889,24.60862,-13.42113,-56.97742,1002.61
7.098451614,4.545276,-6.594893,6.690443,-0.03537329,0.06876747,1.148654,24.60862,-13.42113,-56.97742,1002.61
7.118279457,-1.823005,0.1220172,11.6446,-0.0815042,0.09595551,1.21469,23.56124,-13.40716,-55.64343,1002.612
7.138107300,-9.048554,-0.9672114,13.84645,-0.1495535,0.1078512,1.246015,23.56124,-13.40716,-55.64343,1002.612
7.157936096,-20.13181,-16.82154,11.27763,-0.1601995,0.05063587,1.167586,23.56124,-13.40716,-55.64343,1002.612
7.180242538,-24.78555,-12.94873,2.89837,-0.1386108,-0.01252698,0.9764852,22.44564,-13.03437,-54.6957,1002.612
7.200069904,-15.78424,-2.237978,1.613959,-0.05770408,-0.002550974,0.9007958,22.44564,-13.03437,-54.6957,1002.61
7.219898701,0.7488011,11.07482,8.769966,0.0006236811,0.02901617,0.9426317,22.44072,-12.65925,-54.25882,1002.61
7.239726543,3.932941,9.925075,12.68436,-0.06700623,0.0192124,1.061208,22.44072,-12.65925,-54.25882,1002.61
7.259554386,14.58756,5.265597,9.014616,-0.08973776,0.0001181127,1.067026,22.44072,-12.65925,-54.25882,1002.61
7.279382706,5.402544,-3.508745,0.1460596,-0.01494122,-0.02254145,0.9998908,21.67336,-10.80848,-52.95839,1002.611
7.299210548,-6.905383,-2.116953,-5.603211,0.08231021,0.003027899,0.8937833,21.67336,-10.80848,-52.95839,1002.611
7.319038391,-9.109787,3.208165,-5.542049,0.1337891,0.01658659,0.7516637,22.0513,-11.15436,-52.06659,1002.607
7.338866711,-3.660008,-0.1805463,-2.667413,0.163325,0.007358481,0.6978773,22.0513,-11.15436,-52.06659,1002.607
7.358694553,-1.271903,0.4245807,1.491634,0.1624086,0.009349189,0.7176824,22.0513,-11.15436,-52.06659,1002.609
7.378522396,-1.823005,6.475851,5.161381,0.130907,0.003397572,0.7405101,21.66599,-10.033,-50.75458,1002.609
7.398350716,-0.965736,11.0143,5.834168,0.07282423,-0.01870591,0.7860862,21.66599,-10.033,-50.75458,1002.611
7.418178558,2.402105,6.173287,2.776045,0.02004992,-0.01636751,0.8597543,21.66106,-9.657879,-50.3177,1002.611
7.438006401,2.095937,7.14149,-0.5878899,0.0002447602,0.01246876,0.9468929,21.66106,-9.657879,-50.3177,1002.611
7.460313797,-3.108907,8.170207,-3.768338,-0.02628128,0.02471085,1.032535,21.66106,-9.657879,-50.3177,1002.611
7.480141640,-2.557806,-3.690283,-7.193435,-0.03518805,0.03580037,1.006094,22.03901,-10.00375,-49.4259,1002.614
7.499969483,-5.129612,-8.954888,-9.334121,-0.01287101,0.03587747,0.9900432,22.03901,-10.00375,-49.4259,1002.614
7.519797802,-6.476748,-9.257452,-10.1904,0.008431162,0.02760855,0.9478912,22.40544,-9.616236,-48.54707,1002.611
7.539625645,-1.516837,-5.263614,-8.661334,0.01957526,0.03154777,0.9420583,22.40544,-9.616236,-48.54707,1002.611
7.559453488,8.280518,-0.05952091,-5.909023,0.01008399,0.0512205,1.043574,22.40544,-9.616236,-48.54707,1002.612
7.579281807,6.810915,1.876886,-2.912063,-0.03238846,0.0800744,1.186827,21.28315,-8.886374,-48.11251,1002.612
7.599109650,-3.415075,-2.843105,-3.217876,-0.04232867,0.04452879,1.208419,21.28315,-8.886374,-48.11251,1002.616
7.618937492,-13.64106,-2.661567,-6.642973,-0.015233,0.01181612,1.113498,21.29631,-9.602924,-47.21284,1002.616
7.638765812,-10.57939,10.59071,-3.58485,0.0403189,0.01428122,1.006535,21.29631,-9.602924,-47.21284,1002.616
7.658593655,1.60607,20.81736,3.693482,0.03908673,0.01492464,1.07412,21.29631,-9.602924,-47.21284,1002.616
7.678421497,4.851443,17.79173,7.913692,-0.04176614,-0.01114565,1.139107,21.28563,-8.861115,-46.78245,1002.616
7.698250294,6.994615,10.71174,3.632319,-0.1130663,-0.04168972,1.145616,21.28563,-8.861115,-46.78245,1002.616
7.718077660,11.15849,3.813292,-3.646013,-0.1059114,-0.05104063,1.089055,23.14079,-8.815941,-45.45932,1002.614
7.737905502,17.52677,0.9086823,-7.988547,-0.06881811,-0.0105235,1.051411,23.14079,-8.815941,-45.45932,1002.614
7.760211945,17.83294,5.689186,-7.009948,-0.0309278,0.01212993,1.075454,23.14079,-8.815941,-45.45932,1002.614
7.780040741,12.99549,2.784576,-5.175074,-0.04561949,0.001715351,1.028661,23.51873,-9.161814,-44.56752,1002.614
7.799868584,6.19858,-2.480029,-4.318799,-0.03700878,-0.0002971911,0.9832321,23.51873,-9.161814,-44.56752,1002.615
7.819696426,1.422369,-4.234898,-5.603211,-0.02376929,-0.005385395,0.863912,23.16229,-9.872725,-43.15978,1002.615
7.839524746,0.993735,-11.13335,-5.113912,0.02020109,0.01028344,0.8053477,23.16229,-9.872725,-43.15978,1002.613
7.859352589,-0.7208021,-7.442071,-2.973226,0.05082983,-0.001298088,0.7829173,23.16229,-9.872725,-43.15978,1002.613
7.879180431,0.0139995,-5.505664,-0.2820776,0.05372969,-0.005695773,0.7703292,23.16394,-9.855886,-42.27307,1002.613
7.899008751,1.973471,-4.416436,2.164421,0.0445649,-0.002756428,0.7974245,23.16394,-9.855886,-42.27307,1002.613
7.918836594,3.19814,1.453297,3.754644,0.009805499,-0.003732208,0.8714594,23.90585,-9.8395,-41.8325,1002.613
7.938664913,2.585805,0.7271442,4.977894,-0.009412706,-0.006109314,0.9367141,23.90585,-9.8395,-41.8325,1002.613
7.958492756,0.4426338,-2.964131,3.938132,-0.02289717,-0.009018138,0.9710431,23.90585,-9.8395,-41.8325,1002.609
7.978320599,-3.231374,-11.19386,0.7576842,-0.003982834,-0.01189074,0.9506523,22.78931,-9.476334,-41.39146,1002.609
7.998149395,-7.21155,-12.76719,-1.383002,0.05171654,-0.01518671,0.8774461,22.78931,-9.476334,-41.39146,1002.611
8.017977238,-7.39525,-5.566177,-0.9548646,0.08658675,-0.02342031,0.8207395,22.81231,-10.94312,-41.36554,1002.611
8.037805080,-3.047674,-4.234898,1.002334,0.09245279,-0.02141312,0.8327847,22.81231,-10.94312,-41.36554,1002.612
8.060111523,1.60607,2.300474,2.164421,0.07482517,-0.03199946,0.9230877,22.81231,-10.94312,-41.36554,1002.612
8.079939842,3.075673,5.326109,1.369309,0.02546843,-0.01936764,1.017545,22.06056,-10.20927,-40.93237,1002.612
8.099767685,-0.4146348,1.937398,-0.9548646,0.01015862,-0.004601402,1.116171,22.06056,-10.20927,-40.93237,1002.612
8.119595528,-8.61992,1.392784,-2.728576,0.03354993,-0.007379875,1.125199,22.45658,-11.64681,-39.57777,1002.61
8.139423847,-9.232254,5.568161,-2.422764,0.05767434,-0.02205746,1.044385,22.45658,-11.64681,-39.57777,1002.61
8.159251690,-1.088203,6.596876,1.185821,0.08154915,-0.03167965,1.041309,22.45658,-11.64681,-39.57777,1002.612
8.179079533,6.810915,18.45737,4.610919,0.03799523,-0.006330644,1.146901,21.70975,-11.28808,-39.58147,1002.612
8.198907852,8.770386,17.91275,5.467194,-0.08333874,0.04454921,1.30518,21.70975,-11.28808,-39.58147,1002.614
8.218735695,-0.5371017,10.95379,3.265345,-0.1389737,0.04691352,1.395757,21.70647,-10.89613,-38.2579,1002.614
8.238563538,-9.783356,-22.8123,-4.318799,-0.1086683,0.0448783,1.294219,21.70647,-10.89613,-38.2579,1002.614
8.258391857,-23.00978,-37.39586,-8.722497,0.003782055,0.02431435,1.005338,21.70647,-10.89613,-38.2579,1002.614
8.278219700,-22.39745,-29.9528,-8.416684,0.1016342,0.02664589,0.7518914,22.46563,-11.97983,-37.79788,1002.613
8.298047543,-13.7023,-10.89129,0.1460596,0.1669402,0.04042503,0.67148,22.46563,-11.97983,-37.79788,1002.613
8.317876339,0.9325016,11.25635,12.19506,0.1520544,0.05808253,0.7566036,21.71798,-11.62952,-38.24493,1002.615
8.340182781,6.994615,14.58455,21.36943,0.0261831,0.05392764,0.9199339,21.71798,-11.62952,-38.24493,1002.615
8.360010624,4.851443,13.55584,21.18595,-0.0711411,0.02341757,0.9965731,21.71798,-11.62952,-38.24493,1002.615
8.379838467,0.9325016,9.985588,16.10946,-0.08847769,0.0009612413,1.010068,21.34417,-11.24155,-36.91996,1002.615
8.399666786,-3.598775,3.32919,10.84949,-0.06750091,0.008937597,1.04185,21.34417,-11.24155,-36.91996,1002.617
8.419494629,-7.823884,-0.7251607,6.87393,-0.04830592,-0.004834658,0.9432083,21.72046,-11.60426,-36.91488,1002.617
8.439322472,-6.476748,-1.3908,3.876969,-0.02325746,-0.01758646,0.8512968,21.72046,-11.60426,-36.91488,1002.615
8.459150791,-4.578511,3.510728,2.042096,0.0009583714,-0.02242126,0.8134906,21.72046,-11.60426,-36.91488,1002.615
8.478978634,-1.149436,1.332271,-0.5878899,0.00242618,-0.01751868,0.8241266,20.98186,-11.58696,-35.58204,1002.615
8.498806477,-0.2921678,0.6666315,-3.279038,0.02964164,-0.008102736,0.8336796,20.98186,-11.58696,-35.58204,1002.615
8.518634796,0.6875677,2.966114,-6.031348,0.04231235,-0.01388508,0.8316498,20.60639,-11.21583,-35.14378,1002.615
8.538462639,2.891973,-2.298491,-7.376923,0.06228965,-0.007888406,0.8523264,20.60639,-11.21583,-35.14378,1002.616
8.558290482,2.095937,3.268678,-7.988547,0.05751279,-0.002474208,0.8866505,20.60639,-11.21583,-35.14378,1002.616
8.578119278,1.667303,1.634835,-9.089471,0.03037881,-0.009387569,0.9051054,20.60804,-11.19899,-34.25707,1002.612
8.597946644,1.667303,-3.508745,-9.456446,0.03252856,-0.006787031,0.9693031,20.60804,-11.19899,-34.25707,1002.612
8.620253086,1.054968,-1.027724,-10.61853,-0.002856472,-0.003465033,1.009576,20.98598,-11.54487,-33.36526,1002.612
8.640080929,3.932941,-0.9066988,-10.86318,-0.01539938,-0.003457821,1.039571,20.98598,-11.54487,-33.36526,1002.612
8.659909725,6.014879,-2.298491,-10.92435,-0.02591056,0.0005321926,1.101432,20.98598,-11.54487,-33.36526,1002.612
8.679737568,4.912677,-3.448232,-8.905984,0.006778883,-0.006068077,1.121009,20.98106,-11.16975,-32.92839,1002.612
8.699565411,11.70959,9.683024,-7.499248,-0.03544525,0.005018852,1.165221,20.98106,-11.16975,-32.92839,1002.616
8.719393730,17.34307,19.00198,-2.422764,-0.0916535,0.03469529,1.275249,20.97696,-10.78622,-32.04816,1002.616
8.739221573,10.85232,7.867643,-1.994627,-0.1267832,0.04357734,1.399535,20.97696,-10.78622,-32.04816,1002.613
8.759049416,-7.456484,-12.46463,-13.61549,-0.1320429,-0.03446175,1.154928,20.97696,-10.78622,-32.04816,1002.613
8.778877735,-13.02873,-28.37947,-23.15684,0.006984175,-0.04425461,0.8331352,21.35501,-11.13089,-31.09303,1002.615
8.798705578,-9.538422,-11.98052,-20.09871,0.1404302,-0.001097289,0.6733426,21.35501,-11.13089,-31.09303,1002.615
8.818533421,5.953646,22.57223,-7.621572,0.159356,-0.008361588,0.6490678,21.34434,-10.38908,-30.66264,1002.615
8.838361740,23.09902,33.94862,3.14302,0.02789279,0.009138132,0.9196944,21.34434,-10.38908,-30.66264,1002.615
8.858189583,22.73162,25.53735,4.977894,-0.1006928,-0.007596984,1.122072,21.34434,-10.38908,-30.66264,1002.615
8.878017426,12.13823,11.37738,-1.505327,-0.1481567,0.002074135,1.196231,21.70503,-9.634863,-29.79028,1002.615
8.897846222,3.749241,-4.174385,-8.905984,-0.08431888,0.02512776,1.128425,21.70503,-9.634863,-29.79028,1002.615
8.920152664,-8.987321,-2.116953,-9.028309,0.006487689,0.04079935,0.9701728,22.45843,-10.35187,-29.33674,1002.615
8.939980507,-5.007145,-7.563096,-5.786699,0.04683675,0.01816344,0.7849699,22.45843,-10.35187,-29.33674,1002.617
8.959807873,3.871708,-8.894376,-2.422764,0.06556299,0.009778823,0.7003556,22.45843,-10.35187,-29.33674,1002.617
8.979636669,7.97435,-2.964131,1.002334,0.06137066,0.003532785,0.7442701,22.45351,-9.976754,-28.89986,1002.615
8.999464512,5.953646,9.259436,1.736283,0.03650455,-0.03100568,0.8118038,22.45351,-9.976754,-28.89986,1002.615
9.019292355,4.79021,7.202003,1.491634,0.01692134,-0.0332986,0.912779,22.08545,-9.955478,-27.56841,1002.615
9.039120674,2.769506,4.418419,0.6965217,0.009374141,-0.02339414,0.9978226,22.08545,-9.955478,-27.56841,1002.615
9.058948517,-1.455604,-4.234898,-0.7713773,0.008887834,-0.02193002,1.000246,22.08545,-9.955478,-27.56841,1002.615
9.078776360,-6.966616,-11.01232,-1.811139,0.02615897,-0.02689732,0.9224149,22.08052,-9.580362,-27.13154,1002.615
9.098604679,-4.21111,-6.231817,-1.811139,0.04875476,-0.02061071,0.8557139,22.08052,-9.580362,-27.13154,1002.616
9.118432522,-1.088203,0.9691951,-1.016027,0.04588245,-0.0005494177,0.9021698,22.08052,-9.580362,-27.13154,1002.616
9.138260365,0.8712681,4.842008,1.124659,0.02268336,0.0272989,0.9907699,22.44613,-9.201265,-26.69606,1002.618
9.158088684,-1.823005,5.689186,1.124659,-0.01777508,0.009769128,1.077783,22.44613,-9.201265,-26.69606,1002.618
9.177916527,-8.068818,-1.330288,0.1460596,-0.01381902,-0.0004302929,1.080123,22.06327,-8.480277,-27.15098,1002.616
9.200222969,-9.293488,2.118936,-0.7102148,0.009523116,-0.03795383,1.017537,22.06327,-8.480277,-27.15098,1002.616
9.220050812,1.177435,-4.900537,-0.3432401,0.01040144,-0.0243278,1.012293,21.6837,-7.72561,-25.83249,1002.616
9.239879608,-0.04723396,19.123,-2.912063,0.02805252,-0.02672301,1.192705,21.6837,-7.72561,-25.83249,1002.616
9.259707451,-1.333137,12.34558,3.632319,-0.1106791,0.0550878,1.291869,21.6837,-7.72561,-25.83249,1002.616
9.279534817,-1.516837,3.389703,10.36019,-0.1316798,0.0896262,1.323052,22.43053,-8.084339,-25.82879,1002.616
9.299363613,-10.82432,-4.29541,11.88925,-0.1258939,0.02802269,1.206861,22.43053,-8.084339,-25.82879,1002.618
9.319191456,-11.19173,-5.082076,10.29903,-0.1125693,0.01859552,1.105378,22.43053,-8.084339,-25.82879,1002.618
9.339019299,-5.007145,-1.572338,10.11554,-0.1049874,0.02484863,1.0571,22.42561,-7.709225,-25.39191,1002.616
9.358847618,-2.312872,-1.088237,10.666,-0.1098637,0.03214725,1.06537,22.42561,-7.709225,-25.39191,1002.616
9.378675461,-2.80274,-4.597974,7.791367,-0.1206992,0.01879493,1.003578,22.05507,-7.713207,-25.39053,1002.617
9.398503304,-3.598775,-9.862579,3.999295,-0.0815318,0.01248246,0.9265854,22.05507,-7.713207,-25.39053,1002.617
9.418331623,-4.272344,-10.95181,2.470233,-0.02203112,0.02869767,0.8592507,22.05507,-7.713207,-25.39053,1002.617
9.438159466,-3.537542,-9.015401,2.837208,0.02987861,0.01763178,0.802919,22.04932,-7.346512,-25.39701,1002.617
9.457987309,-3.782475,-7.502584,3.081857,0.02394306,0.009219577,0.75995,22.04932,-7.346512,-25.39701,1002.615
9.477815628,-2.61904,-5.808228,2.164421,0.04137576,-0.009320672,0.7071474,22.05179,-7.321253,-24.06695,1002.615
9.500122070,1.544836,-1.027724,2.65372,0.07053584,-0.009183721,0.7011963,22.05179,-7.321253,-24.06695,1002.617
9.519949913,4.361576,8.896359,5.222544,0.05468102,-0.007172606,0.7616283,20.92702,-6.616651,-24.96245,1002.617
9.539777756,8.647919,12.46661,5.344869,-0.01648594,-0.01268901,0.8483889,20.92702,-6.616651,-24.96245,1002.619
9.559606552,9.260253,6.2338,1.858608,-0.05214471,-0.009706462,0.9504445,20.92702,-6.616651,-24.96245,1002.619
9.579434395,4.361576,-0.5436226,-4.135312,-0.04330892,0.01777418,1.01956,21.29839,-6.604248,-24.52048,1002.619
9.599262238,-4.700978,-5.324126,-7.56041,-0.001708763,0.04716275,1.001624,21.29839,-6.604248,-24.52048,1002.619
9.619090557,-8.987321,-4.900537,-7.438085,0.04620897,0.0550703,0.9468601,21.29839,-6.604248,-24.52048,1002.614
9.638918400,-8.61992,-8.349761,-6.275998,0.07618028,0.04140848,0.8708454,21.67467,-6.96696,-24.51539,1002.614
9.658746242,-4.639744,-6.53438,-4.502287,0.105833,0.02688632,0.8426131,21.67467,-6.96696,-24.51539,1002.616
9.678574085,3.01444,0.9691951,-0.8937021,0.1006748,0.03237299,0.9078311,22.41166,-6.57546,-23.63794,1002.616
9.698402405,9.566421,7.625592,3.38767,0.06508022,0.05300083,1.057762,22.41166,-6.57546,-23.63794,1002.616
9.718230247,8.280518,6.717902,4.733244,-0.02689907,0.07042453,1.211847,22.41166,-6.57546,-23.63794,1002.616
9.738058090,-4.517277,3.752779,3.509995,-0.04598052,0.0412572,1.273102,20.91965,-5.841162,-22.75864,1002.616
9.757886410,-13.08996,1.453297,-0.7713773,-0.04035746,0.02255812,1.179818,20.91965,-5.841162,-22.75864,1002.616
9.780192852,-8.191285,9.017385,-0.09859026,-0.01444349,0.007779286,1.053138,21.30661,-6.945684,-23.18394,1002.618
9.800020695,1.728537,12.76917,1.124659,-0.04785,0.002824261,1.089497,21.30661,-6.945684,-23.18394,1002.618
9.819849014,2.034704,1.513809,-3.279038,-0.06069959,-0.04250775,1.09754,21.30661,-6.945684,-23.18394,1002.62
9.839676857,-1.39437,0.364068,-9.762259,-0.06000358,-0.04954464,1.004825,20.93608,-6.949667,-23.18255,1002.62
9.859504700,8.219284,6.89944,-10.92435,-0.03128801,-0.0267484,0.9058364,20.93608,-6.949667,-23.18255,1002.62
9.879332542,20.15981,11.0143,-6.520648,-0.02341435,0.0100233,0.9933469,21.67797,-6.933282,-22.74198,1002.616
9.899161339,22.79285,13.73738,-1.260677,-0.06060021,0.02663804,1.097894,21.67797,-6.933282,-22.74198,1002.616
9.918989181,19.30254,2.118936,-2.728576,-0.098878,0.0001417713,1.09652,21.67797,-6.933282,-22.74198,1002.616
9.938816547,11.58712,-7.623609,-6.58181,-0.0703707,0.01531228,1.066516,21.29102,-5.828759,-22.31668,1002.616
9.958645344,-0.1697009,-3.38772,-7.438085,-0.02320032,0.03720805,0.9582498,21.29102,-5.828759,-22.31668,1002.617
9.978473186,-0.2309344,-5.384639,-5.419724,-0.002580715,0.026352,0.8543054,22.04852,-6.929299,-22.74336,1002.617
9.998301029,2.463338,-6.715919,-2.422764,0.01402201,0.01084193,0.8483427,22.04852,-6.929299,-22.74336,1002.615
10.018129349,3.871708,-6.655406,-0.03742781,0.02242609,0.001204819,0.8723812,22.04852,-6.929299,-22.74336,1002.615
10.037957191,3.19814,-8.894376,1.736283,0.01377127,0.01345215,0.9217246,21.67223,-6.566586,-22.74846,1002.615
10.060263634,-1.088203,-9.983604,3.14302,0.001681789,0.006105281,0.9299586,21.67223,-6.566586,-22.74846,1002.615
10.080091476,-5.007145,-12.28309,3.632319,0.004498224,0.01338089,0.9121214,21.29676,-6.195455,-22.31019,1002.617
10.099919796,-6.415515,-16.21641,3.938132,0.02333115,0.0124056,0.8709857,21.29676,-6.195455,-22.31019,1002.617
10.119747639,-8.80362,-16.09539,5.344869,0.06551224,0.009598733,0.827782,21.29676,-6.195455,-22.31019,1002.617
10.139575481,-11.13049,-9.620528,8.219504,0.08642761,0.005309406,0.8213707,20.54994,-5.836725,-22.3139,1002.617
10.159403801,-9.048554,-6.050279,11.09414,0.07966681,-0.0132688,0.8049012,20.54994,-5.836725,-22.3139,1002.619
10.179231644,-5.741947,-2.903618,13.47948,0.05024982,-0.02057738,0.8663248,20.54994,-5.836725,-22.3139,1002.619
10.199059486,-3.782475,3.32919,13.54064,-0.00346325,-0.01724205,0.9515874,20.54994,-5.836725,-22.3139,1002.615
10.218887329,-3.660008,7.928156,10.97181,-0.05473812,-0.01388945,1.038767,20.54994,-5.836725,-22.3139,1002.615
10.238716126,-5.252079,1.997911,8.341829,-0.06821187,0.004230884,1.110853,20.1909,-6.574099,-22.29955,1002.617
10.258543968,-7.21155,-3.085156,5.100219,-0.03313463,-0.01069896,1.103827,20.1909,-6.574099,-22.29955,1002.617
10.278371334,-3.415075,-5.62669,3.876969,0.006011925,0.01230599,1.068978,20.19007,-6.582518,-22.7429,1002.618
10.298200131,0.6875677,-1.693364,7.11858,0.002972004,0.07820147,1.141735,20.19007,-6.582518,-22.7429,1002.618
10.318027973,-4.517277,1.75586,12.74553,-0.04042175,0.1453629,1.220511,20.19007,-6.582518,-22.7429,1002.62
10.337856293,-21.90758,20.45428,22.10338,-0.04083121,0.06279591,1.107143,20.19007,-6.582518,-22.7429,1002.62
10.360162258,-21.05031,5.084059,14.45807,-0.130573,-8.158735E-05,1.072075,20.19007,-6.582518,-22.7429,1002.616
10.379990578,-22.51992,21.30146,2.837208,-0.05181779,-0.003117478,1.057148,19.45393,-6.965599,-23.177,1002.616
10.399818421,0.1364664,13.31379,6.568118,-0.1465468,-0.01316667,0.9301883,19.45393,-6.965599,-23.177,1002.618
10.419646263,-10.08952,-4.718999,5.589519,-0.0506809,-0.05628213,1.017772,19.45393,-6.965599,-23.177,1002.618
10.439474583,5.892412,8.533283,1.980933,-0.1030556,0.03022659,1.061944,19.08256,-6.978001,-23.61897,1002.618
10.459302425,-0.7208021,-6.110791,-1.016027,-0.06585044,-0.008373579,0.9268751,19.08256,-6.978001,-23.61897,1002.618
10.479130268,2.034704,-4.476948,-4.135312,0.02725445,0.003649377,0.8660924,19.08914,-7.336277,-23.16913,1002.618
10.498958588,-1.945472,4.055343,-1.688814,0.07273367,0.02718334,0.835073,19.08914,-7.336277,-23.16913,1002.618
10.518786430,-0.7820356,6.354825,2.347908,0.06190476,0.01823561,0.7824743,19.08914,-7.336277,-23.16913,1002.618
10.538614273,2.647039,1.574322,5.406031,0.03858552,0.01666574,0.7874207,18.7186,-7.34026,-23.16774,1002.618
10.558442116,2.218405,2.4215,5.283706,0.01303167,-0.001886415,0.8222181,18.7186,-7.34026,-23.16774,1002.616
10.578270912,0.6875677,1.634835,3.815807,0.009184146,-0.005786712,0.828494,18.71777,-7.34868,-23.6111,1002.616
10.598098755,4.055408,-2.05644,0.6965217,0.00685127,-0.01550615,0.8414892,18.71777,-7.34868,-23.6111,1002.616
10.617926121,6.688447,-1.632851,-0.8325397,0.0123222,-0.01685838,0.8747571,18.71777,-7.34868,-23.6111,1002.616
10.640232563,8.158051,-1.027724,-1.016027,0.01147996,0.005717909,0.9501754,17.60616,-7.360628,-23.60693,1002.616
10.660061359,5.708712,-3.448232,-1.811139,-0.005987344,0.01250049,0.9734744,17.60616,-7.360628,-23.60693,1002.616
10.679889202,2.769506,-9.075913,-4.563449,-0.01998882,0.004189625,0.9899194,17.22987,-6.997916,-23.61202,1002.613
10.699717045,1.177435,-11.13335,-6.398323,0.02613137,-0.00931765,0.9432606,17.22987,-6.997916,-23.61202,1002.613
10.719545364,0.8712681,-12.40411,-4.07415,0.07764706,0.01047885,0.9648007,17.22987,-6.997916,-23.61202,1002.613
10.739373207,4.912677,1.574322,0.6353592,0.05960341,-0.007249017,0.9213674,16.50113,-7.730852,-23.15294,1002.613
10.759201050,12.50563,4.297394,1.858608,0.008973889,0.02946305,1.110078,16.50113,-7.730852,-23.15294,1002.615
10.779029369,14.95497,-6.53438,3.326507,-0.09346598,0.1116769,1.29834,15.37883,-7.000991,-22.71838,1002.615
10.798857212,-6.170581,2.300474,1.124659,-0.03360953,0.01653971,1.294627,15.37883,-7.000991,-22.71838,1002.615
10.818685055,-23.68335,-3.811309,-5.419724,-0.05487546,-0.02977533,1.11495,15.37883,-7.000991,-22.71838,1002.615
10.838512897,-20.92785,-3.690283,-7.31576,0.01018875,-0.02985739,0.9408289,15.37883,-7.000991,-22.71838,1002.617
10.858341217,-7.150316,13.13225,-7.927384,0.02562473,-0.05039994,0.8696852,15.37883,-7.000991,-22.71838,1002.617
10.878169060,16.6695,9.259436,-7.376923,-0.01119179,-0.03582178,0.9365712,15.00337,-6.629858,-22.28011,1002.618
10.897996902,29.58977,18.69942,-7.31576,-0.06033996,-0.001041659,1.128642,15.00337,-6.629858,-22.28011,1002.618
10.917825699,29.58977,20.63582,-5.113912,-0.1292088,0.054957,1.277489,15.00337,-6.629858,-22.28011,1002.615
10.940132141,21.99681,11.74046,-3.707175,-0.1503201,0.06971765,1.386283,14.99269,-5.888048,-21.84972,1002.615
10.959959984,11.77083,-10.04412,-5.970186,-0.1108054,0.05059768,1.24744,14.99269,-5.888048,-21.84972,1002.615
10.979787350,0.3814003,-23.71999,-7.132273,-0.02294743,0.02761135,1.016603,15.0001,-6.237905,-20.95653,1002.615
10.999616146,-2.190405,-11.49642,-6.031348,0.0001898573,0.03652807,0.8277951,15.0001,-6.237905,-20.95653,1002.616
11.019443989,3.443074,-14.94565,-0.5878899,0.03090736,0.009509897,0.6633776,15.0001,-6.237905,-20.95653,1002.616
11.039271832,4.79021,-5.263614,-0.465565,0.02502802,-0.008783394,0.7632303,15.35831,-5.508951,-21.41423,1002.616
11.059099674,-3.782475,1.937398,-2.789738,-0.01421042,-0.03625387,0.7637867,15.35831,-5.508951,-21.41423,1002.616
11.078927994,-3.721242,2.845089,-7.132273,-0.003572919,-0.03575375,0.7463546,14.30435,-5.136701,-20.53007,1002.616
11.098755837,1.483603,2.4215,-6.704135,0.04263543,-0.003244045,0.8012939,14.30435,-5.136701,-20.53007,1002.616
11.118583679,-0.4146348,2.179449,-2.606251,0.04183906,0.01643179,0.8853855,14.30435,-5.136701,-20.53007,1002.612
11.138411999,-3.476308,-1.935415,0.5130343,0.001466144,0.0211062,0.8914226,14.96174,-3.722531,-20.49412,1002.612
11.158239841,-2.98644,-6.53438,2.65372,0.008280365,0.03043401,0.9083269,14.96174,-3.722531,-20.49412,1002.612
11.178067684,-8.681153,-5.263614,5.039056,0.03171974,0.02524552,0.9274791,14.27667,-3.363138,-20.49806,1002.612
11.197896004,-12.47763,-3.569258,6.996255,0.02777412,0.004164598,0.8767111,14.27667,-3.363138,-20.49806,1002.612
11.220202446,-11.43666,-4.96105,8.892291,0.03276175,-0.01332077,0.8843169,14.27667,-3.363138,-20.49806,1002.614
11.240030289,-8.681153,2.542525,9.748566,0.02222268,-0.01081731,0.9355513,14.64311,-2.97562,-19.61922,1002.614
11.259858131,-5.925647,4.357906,8.831128,-0.004303239,-0.02595196,0.9761638,14.64311,-2.97562,-19.61922,1002.614
11.279686928,-4.333577,0.0615045,6.38463,-0.02938185,-0.01957706,1.048736,14.26764,-2.604488,-19.18096,1002.614
11.299514294,-4.823445,3.026627,4.243944,-0.03615417,-0.004920187,1.083601,14.26764,-2.604488,-19.18096,1002.612
11.319342136,-2.251639,5.628673,5.344869,-0.002019573,0.01243194,1.138528,14.26764,-2.604488,-19.18096,1002.612
11.339169979,4.728976,15.18968,10.666,-0.0381697,0.08350541,1.208597,13.88643,-1.866661,-18.74917,1002.612
11.358998776,2.340871,29.16811,20.63548,-0.1125742,0.1211113,1.415301,13.88643,-1.866661,-18.74917,1002.612
11.378826618,-3.904943,15.00814,23.51012,-0.1686557,0.07168102,1.432248,13.88726,-1.858241,-18.30582,1002.614
11.398654461,-19.76441,-23.59896,15.92597,-0.1166671,0.004451253,1.306604,13.88726,-1.858241,-18.30582,1002.614
11.418482781,-27.72476,-17.00308,7.730205,-0.04251686,-0.003026301,1.074957,13.88726,-1.858241,-18.30582,1002.61
11.438310623,-14.74327,6.536364,9.687403,0.01497756,7.955346E-05,0.8255963,13.50029,-0.7537184,-17.88052,1002.61
11.458138466,10.30122,6.838927,14.27459,0.001208659,0.04668858,1.000641,13.50029,-0.7537184,-17.88052,1002.61
11.477966309,12.13823,-1.693364,15.13086,-0.07078458,0.03589417,1.121649,14.91576,-0.3633356,-17.44897,1002.61
11.497794628,2.463338,-14.52206,9.075778,-0.09341919,-0.003030803,0.9806307,14.91576,-0.3633356,-17.44897,1002.61
11.520101071,-2.129172,-18.15282,2.776045,0.01741041,0.006937204,0.8372025,14.91576,-0.3633356,-17.44897,1002.61
11.539928913,-6.599215,0.5456061,3.38767,0.07779036,-0.007219361,0.6924785,14.53865,-0.00904274,-17.89741,1002.61
11.559756756,-1.700538,-0.241059,6.262305,0.07666253,-0.005379814,0.6500185,14.53865,-0.00904274,-17.89741,1002.61
11.579585076,4.97391,2.058424,6.506955,0.04610425,0.003318835,0.688362,14.5329,0.3576522,-17.90389,1002.608
11.599412918,6.38228,-3.38772,6.38463,0.02550753,0.009791389,0.7918011,14.5329,0.3576522,-17.90389,1002.608
11.619240761,-1.884238,0.0615045,3.876969,0.003810666,0.006390353,0.8416183,14.5329,0.3576522,-17.90389,1002.605
11.639069080,-5.925647,0.6061188,-0.1597527,-0.02238995,0.0038538,0.8557463,14.89276,1.103445,-17.47489,1002.605
11.658896923,-5.986881,1.997911,-2.116951,0.003441347,0.009893565,0.8817006,14.89276,1.103445,-17.47489,1002.605
11.678724766,-6.231814,6.354825,-2.483926,0.004077478,0.01342525,0.9314311,14.51812,1.482997,-16.59327,1002.605
11.698552608,-4.333577,1.937398,-3.034388,-0.01481499,0.01680235,0.9590645,14.51812,1.482997,-16.59327,1002.605
11.718381405,-1.088203,-2.782593,-5.725536,-0.01385709,0.01679684,0.9547151,14.51812,1.482997,-16.59327,1002.605
11.738209248,-4.272344,-6.957969,-8.294359,-0.003549716,0.01056186,0.972003,14.51894,1.491416,-16.14992,1002.607
11.758036613,-6.721682,-8.168223,-11.29132,0.02743693,-0.0001311835,0.9133745,14.51894,1.491416,-16.14992,1002.607
11.777865410,-4.456044,-6.655406,-12.63689,0.06577485,-0.007324102,0.8769269,14.87881,2.23721,-15.72091,1002.607
11.800171852,3.810475,-0.241059,-10.12923,0.08921117,0.002151391,0.9193229,14.87881,2.23721,-15.72091,1002.607
11.819999695,11.64836,0.2430426,-9.272959,0.02658171,0.03123553,0.999457,14.87881,2.23721,-15.72091,1002.605
11.839827537,11.64836,-1.814389,-5.970186,-0.01138829,0.08122327,1.214231,14.19539,2.613442,-14.83814,1002.605
11.859655380,-5.986881,5.386622,-5.725536,-0.03822529,0.01830187,1.227569,14.19539,2.613442,-14.83814,1002.605
11.879483700,-16.33534,3.450216,-10.74086,-0.03836666,-0.00526502,1.147325,14.48526,3.700008,-15.74544,1002.605
11.899311542,-18.84591,6.2338,-11.71946,-0.008377478,-0.02918037,1.059673,14.48526,3.700008,-15.74544,1002.607
11.919139385,-12.04899,9.319948,-13.30968,-0.01959417,-0.06250379,0.9958496,14.48526,3.700008,-15.74544,1002.607
11.938967705,-0.7208021,4.781495,-16.79594,-0.02049018,-0.08885314,0.974964,14.47459,4.441818,-15.31505,1002.608
11.958795547,8.402985,8.351745,-19.3036,-0.03090086,-0.04798207,0.9844018,14.47459,4.441818,-15.31505,1002.608
11.978623390,24.62985,18.69942,-15.02223,-0.01779433,0.00144454,1.058434,14.84103,4.829335,-14.43621,1002.61
11.998451233,32.40651,18.33634,-5.970186,-0.0602252,0.06846019,1.276698,14.84103,4.829335,-14.43621,1002.61
12.018279552,21.87435,18.75993,0.5130343,-0.1136315,0.05050443,1.416875,14.84103,4.829335,-14.43621,1002.612
12.038107395,4.484043,-1.209262,-0.2820776,-0.0397629,0.01809431,1.346798,15.94375,5.530398,-13.56555,1002.612
12.057935238,-5.129612,-13.61437,-2.850901,-0.08824167,-0.004736551,1.069889,15.94375,5.530398,-13.56555,1002.608
12.080241680,-16.33534,-27.5928,-3.156713,0.07796811,0.0007296222,0.7576799,15.57321,5.526415,-13.56416,1002.608
12.100070477,-8.864854,-12.22257,0.6965217,0.09837539,0.0078101,0.6210065,15.57321,5.526415,-13.56416,1002.608
12.119897842,3.626774,-8.5313,6.690443,0.08175202,-0.005049175,0.5742117,15.57321,5.526415,-13.56416,1002.608
12.139725685,8.709152,-6.594893,7.60788,0.04947859,-0.02601729,0.6312367,15.56829,5.90153,-13.12729,1002.61
12.159554482,7.729416,6.475851,5.711843,0.001136276,-0.0343721,0.7033775,15.56829,5.90153,-13.12729,1002.61
12.179382324,6.014879,13.07174,2.042096,-0.04080386,-0.03579288,0.8102717,15.19117,6.255824,-13.57573,1002.608
12.199210167,4.545276,11.43789,0.02373465,-0.0346866,-0.01014028,0.934901,15.19117,6.255824,-13.57573,1002.608
12.219038010,0.4426338,9.561998,-0.2820776,-0.0267079,-0.002136961,1.005852,15.19117,6.255824,-13.57573,1002.61
12.238866329,-2.557806,2.058424,-0.7713773,-0.03545001,-0.01488449,0.988458,15.938,5.897093,-13.57203,1002.61
12.258694172,-4.517277,-11.19386,-1.872301,-0.004913645,-0.0270209,0.9380301,15.938,5.897093,-13.57203,1002.608
12.278522015,-10.33446,-6.050279,-2.973226,0.04473408,-0.05899962,0.8970491,16.30854,5.901077,-13.57342,1002.608
12.298349857,-10.76309,-5.082076,-3.340201,0.06936839,-0.06876911,0.8312198,16.30854,5.901077,-13.57342,1002.608
12.318178177,-3.966176,7.625592,-0.6490523,0.07762359,-0.05798001,0.8452277,16.30854,5.901077,-13.57342,1002.608
12.338006020,4.912677,13.55584,3.14302,0.04450613,-0.03192952,1.017376,16.68482,5.538364,-13.56832,1002.609
12.357833862,4.177875,10.46969,4.305107,-0.02409831,-0.0216959,1.1684,16.68482,5.538364,-13.56832,1002.609
12.380140305,-4.884678,3.813292,1.430471,-0.0749929,-0.01939431,1.22275,16.67414,6.280174,-13.13793,1002.605
12.399968624,-9.722122,-5.021563,-3.095551,-0.07117177,-0.02577919,1.191805,16.67414,6.280174,-13.13793,1002.605
12.419796467,-5.986881,-20.51282,-5.970186,-0.01258446,0.006606122,1.168482,16.67414,6.280174,-13.13793,1002.605
12.439624310,-8.926087,-16.09539,-2.728576,0.03778766,0.03605288,1.155808,16.68647,5.555203,-12.68162,1002.605
12.459452629,-13.3349,-10.77027,7.057417,0.05460573,0.06190579,1.138472,16.68647,5.555203,-12.68162,1002.607
12.479280472,-14.37587,-2.116953,15.559,-0.02039381,0.06877636,1.120094,16.6914,5.180088,-13.11849,1002.607
12.499108315,-16.39657,6.052262,20.452,-0.07091805,0.02797683,1.06948,16.6914,5.180088,-13.11849,1002.609
12.523893356,-9.109787,13.31379,19.53456,-0.1378885,0.01502102,1.091018,16.6914,5.180088,-13.11849,1002.609
12.538764954,-5.252079,16.33942,18.43363,-0.1469441,0.01168308,1.1398,16.69537,4.866089,-13.55644,1002.609
12.558592796,-4.945911,1.695347,14.0911,-0.1365677,-0.01747954,1.139594,16.69537,4.866089,-13.55644,1002.611
12.578420162,-9.109787,-9.560016,6.38463,-0.0858206,-0.05166323,0.9895103,16.6914,5.180088,-13.11849,1002.611
12.598248005,-4.088643,-13.25129,1.797446,-0.009320152,-0.02398762,0.7918182,16.6914,5.180088,-13.11849,1002.612
12.618076801,5.402544,-7.86566,-1.016027,0.06382482,-0.02430424,0.7050169,16.6914,5.180088,-13.11849,1002.612
12.637904644,8.647919,-3.38772,1.063496,0.07503103,0.00265636,0.7552925,17.44219,4.50736,-13.55274,1002.61
12.660211086,10.11752,-4.537461,1.063496,0.06162585,0.001759684,0.8161787,17.44219,4.50736,-13.55274,1002.61
12.680038929,4.300342,-0.9066988,1.063496,0.04568693,0.007621665,0.8582891,15.58951,4.487445,-13.5458,1002.612
12.699867248,-1.149436,-2.782593,0.9411715,0.03318077,-0.01923282,0.8548408,15.58951,4.487445,-13.5458,1002.612
12.719695091,-2.129172,-7.139507,0.08489711,0.02824801,-0.02272974,0.8287852,15.58951,4.487445,-13.5458,1002.612
12.739522934,2.279638,-2.540542,0.3295469,0.01896632,-0.01596296,0.8279055,14.85993,3.746089,-13.53006,1002.612
12.759351253,4.177875,1.513809,1.797446,0.008952076,-0.03298435,0.8582817,14.85993,3.746089,-13.53006,1002.612
12.779179096,10.66862,-1.330288,0.7576842,-0.04045666,-0.02576729,0.9285775,14.54867,3.717511,-14.85897,1002.612
12.799006939,4.79021,-4.29541,-3.217876,-0.05903975,-0.01972472,1.051311,14.54867,3.717511,-14.85897,1002.609
12.818834782,-2.680273,-10.46771,-9.701096,-0.07512864,-0.02765834,1.026741,14.54867,3.717511,-14.85897,1002.609
12.838663101,-4.333577,-14.21949,-13.37084,-0.03056828,-0.02462359,0.9777625,13.80677,3.701125,-15.29954,1002.609
12.858490944,-0.3534013,-9.015401,-13.00387,0.0145092,-0.008853633,0.9587722,13.80677,3.701125,-15.29954,1002.609
12.878318787,1.78977,-4.29541,-10.31272,0.01940924,-0.0009802538,0.982437,13.43131,4.072258,-14.86128,1002.609
12.898146629,6.19858,-3.024643,-9.578771,-0.01540645,-0.001018511,1.041514,13.43131,4.072258,-14.86128,1002.609
12.917974949,1.299902,-0.5436226,-10.49621,0.005794405,-0.0280808,1.081321,13.43131,4.072258,-14.86128,1002.609
12.937802792,-6.782916,9.985588,-11.96411,0.008700791,-0.03540707,1.065822,13.06487,3.68474,-15.74012,1002.609
12.960109234,-12.29393,11.49841,-7.438085,0.04616111,-0.04547032,1.052533,13.06487,3.68474,-15.74012,1002.609
12.979937077,-11.06926,9.440973,-3.707175,0.0241911,-0.07595452,0.9776817,12.3197,4.06031,-14.85712,1002.609
12.999764919,5.769945,11.74046,-7.438085,-0.0006037143,-0.1254533,0.8988867,12.3197,4.06031,-14.85712,1002.607
13.019593716,25.97699,18.75993,-14.34944,-0.05197546,-0.09625968,1.000198,12.3197,4.06031,-14.85712,1002.607
13.039421558,30.0184,28.56299,-13.73782,-0.05998287,-0.0227857,1.197551,11.93286,5.095295,-14.87409,1002.607
13.059248924,23.09902,20.15172,-14.71642,-0.08799621,0.03098273,1.343267,11.93286,5.095295,-14.87409,1002.607
13.079077721,13.3629,1.453297,-15.69502,-0.06767968,0.03604286,1.176658,12.3034,5.099279,-14.87548,1002.607
13.098905563,4.300342,-5.747715,-16.12315,-0.03415441,0.0216717,1.000706,12.3034,5.099279,-14.87548,1002.607
13.118733406,3.38184,-1.632851,-13.61549,0.006103448,0.03856925,0.853838,12.3034,5.099279,-14.87548,1002.605
13.138561249,5.218844,3.389703,-10.1904,0.02106263,0.03367491,0.8112552,11.19096,5.07891,-15.31467,1002.605
13.158389568,8.402985,-1.3908,-8.783659,0.02592306,0.02538721,0.7967057,11.19096,5.07891,-15.31467,1002.605
13.178217411,5.525012,-3.508745,-8.967146,0.02264371,0.01274822,0.8125871,11.19096,5.07891,-15.31467,1002.605
13.198045254,2.157171,4.055343,-7.682735,0.01529332,0.03173685,0.8276879,11.17946,5.812301,-15.32763,1002.607
13.217873097,8.035583,1.695347,-7.743897,0.01994627,0.030979,0.9073005,11.17946,5.812301,-15.32763,1002.607
13.240180016,6.014879,2.179449,1.369309,0.02486155,0.0002423828,0.8718802,10.81385,5.433202,-15.76311,1002.607
13.260007858,5.035144,-2.540542,1.980933,0.02160072,0.01841557,0.9439104,10.81385,5.433202,-15.76311,1002.607
13.279835701,4.361576,-10.40719,3.081857,0.01178056,0.01096528,0.9043463,10.80809,5.799898,-15.76959,1002.605
13.299663544,-4.823445,-7.86566,4.610919,0.05026978,-0.03767364,0.8440337,10.80809,5.799898,-15.76959,1002.605
13.319491863,-0.6595686,-8.289248,3.693482,0.08254258,-0.02613836,0.9139046,10.80809,5.799898,-15.76959,1002.606
13.339319706,0.4426338,3.813292,6.323468,0.04367312,0.02648484,1.011889,10.43015,6.145772,-16.66139,1002.606
13.359152794,-7.150316,17.00506,11.88925,-0.006638377,-0.04056174,0.9804456,10.43015,6.145772,-16.66139,1002.608
13.378975391,-0.3534013,-0.6041352,8.464154,-0.07861958,-0.05085868,1.105801,10.43015,6.145772,-16.66139,1002.608
13.398803711,4.851443,-12.52514,12.50088,-0.05583999,-0.0341744,1.110106,10.05469,6.516904,-16.22313,1002.61
13.418631554,-7.946352,2.058424,3.020695,-0.04029025,-0.01357038,1.140052,10.05469,6.516904,-16.22313,1002.61
13.438459396,-7.334017,-1.330288,3.14302,-0.0234836,-0.01950232,1.067045,9.678403,6.879616,-16.22822,1002.609
13.458287239,-4.21111,3.99483,3.326507,-0.01218552,0.01045716,1.149193,9.678403,6.879616,-16.22822,1002.609
13.478116036,-6.109347,4.781495,7.179742,-0.009858935,-0.03311495,1.046628,9.678403,6.879616,-16.22822,1002.609
13.497943401,-9.048554,6.052262,8.708804,-0.03167947,0.05970343,1.218575,10.03744,7.61699,-16.24257,1002.609
13.520250321,-19.51948,-0.4831098,7.179742,-0.04572026,-0.01658875,1.111588,10.03744,7.61699,-16.24257,1002.611
13.540077686,-14.9882,-12.8277,3.204182,-0.03935017,-0.06526525,0.9027867,9.666076,7.604586,-16.68453,1002.611
13.559906483,-11.00803,5.931237,-1.138352,0.01393305,-0.02163102,0.9114073,9.666076,7.604586,-16.68453,1002.613
13.579734326,-0.965736,15.37122,-1.016027,-0.01136105,0.01001123,0.9623895,9.660325,7.971282,-16.69101,1002.613
13.599562168,5.218844,9.017385,-0.2820776,-0.05550916,0.02256996,1.015308,9.660325,7.971282,-16.69101,1002.61
13.619390011,6.749681,-2.298491,-0.9548646,-0.06330339,0.03278674,1.028435,9.660325,7.971282,-16.69101,1002.61
13.639218330,6.810915,-8.773351,-2.178114,-0.0348671,0.05035086,0.9815499,10.01771,8.691816,-17.59207,1002.61
13.659046173,3.443074,-8.107711,-1.383002,0.02475076,0.04562831,0.9141069,10.01771,8.691816,-17.59207,1002.61
13.678874016,4.239109,-9.43899,0.3907094,0.03766405,0.04016315,0.8411237,10.01771,8.691816,-17.59207,1002.61
13.698701858,6.321046,-4.718999,3.204182,0.04644195,0.03533687,0.8400855,9.647996,8.696253,-17.14733,1002.61
13.718530178,2.279638,3.208165,5.344869,0.008656774,0.02595812,0.8687222,9.647996,8.696253,-17.14733,1002.61
13.738358021,0.2589334,-0.1805463,3.938132,-0.02134445,0.01319946,0.8924721,9.648822,8.704672,-16.70397,1002.61
13.758185863,-2.435339,0.0009917939,0.207222,-0.02668382,0.004868274,0.8818397,9.648822,8.704672,-16.70397,1002.61
13.778014183,-1.516837,-3.690283,-2.239276,0.00191802,0.01961747,0.8788628,9.648822,8.704672,-16.70397,1002.61
13.797842026,-1.516837,-1.995928,-2.422764,0.02092911,0.01828064,0.8893708,8.900346,9.046564,-17.59439,1002.61
13.820148468,-1.761771,-2.177466,-1.627652,0.01996901,0.01779571,0.8922696,8.900346,9.046564,-17.59439,1002.61
13.839976311,-2.741507,-4.355923,-2.055789,0.01233741,0.01248481,0.9275196,9.634845,9.412804,-18.047,1002.612
13.859804153,-3.476308,-6.050279,-3.217876,0.01437155,-0.004552165,0.9254903,9.634845,9.412804,-18.047,1002.612
13.879632473,-2.741507,-5.747715,-4.012987,0.03060768,-0.01704595,0.9596074,9.634845,9.412804,-18.047,1002.608
13.899460316,1.116202,-0.846186,-3.523688,0.02829845,-0.01745992,0.9948534,8.500226,10.86764,-18.06875,1002.608
13.919288158,5.647479,-2.601054,-3.8295,-0.001629699,-0.004745004,1.081965,8.500226,10.86764,-18.06875,1002.61
13.939116001,3.320607,-4.96105,-5.175074,-0.008712623,-0.007075594,1.140396,8.865014,11.23832,-18.07662,1002.61
13.958944798,1.728537,-3.145669,-5.847861,0.02607914,0.0007675171,1.087151,8.865014,11.23832,-18.07662,1002.61
13.978772640,3.871708,17.30762,-0.6490523,0.002214671,0.04266266,1.146383,8.865014,11.23832,-18.07662,1002.61
13.998600006,8.096817,23.60095,2.714883,-0.09134933,0.02430131,1.204722,8.860089,11.61343,-17.63975,1002.61
14.018427849,5.647479,-2.601054,-1.749977,-0.1168095,-0.01716091,1.229265,8.860089,11.61343,-17.63975,1002.608
14.038256645,0.6263342,-13.61437,-9.395284,-0.1047634,0.02012,1.114996,8.477221,12.33442,-18.09467,1002.608
14.058084488,-7.02785,-11.3754,-9.884583,0.05999454,-0.04935754,0.8241307,8.477221,12.33442,-18.09467,1002.611
14.077912331,0.6875677,9.925075,-7.132273,0.06898578,-0.001578225,0.8296363,8.477221,12.33442,-18.09467,1002.611
14.100218773,15.32237,23.29838,-0.3432401,0.006138402,-0.003103712,0.9380924,8.846934,12.32998,-18.53941,1002.613
14.120046616,18.01664,14.28199,0.6353592,-0.07550433,-0.01242675,1.08426,8.846934,12.32998,-18.53941,1002.613
14.139874935,11.46466,1.816373,-5.542049,-0.1021431,-0.01297594,1.115777,9.577334,13.07976,-18.1118,1002.613
14.159702778,2.830739,-6.292329,-11.16899,-0.04720727,0.01383756,1.010873,9.577334,13.07976,-18.1118,1002.613
14.179530621,2.279638,-9.075913,-9.211796,0.03879949,0.06961684,0.9373218,9.577334,13.07976,-18.1118,1002.615
14.199358463,1.483603,-4.416436,-3.951825,0.06003114,0.0598309,0.8719937,10.31924,13.09614,-17.67122,1002.615
14.219186783,1.361136,-9.681041,-0.9548646,0.04546971,0.02702131,0.8265332,10.31924,13.09614,-17.67122,1002.617
14.239014626,-1.516837,-6.171304,-0.7713773,0.05074117,0.02601538,0.8018825,9.947871,13.08374,-18.11318,1002.617
14.258842468,-2.925207,-1.814389,0.3907094,0.06625881,0.02117512,0.7805349,9.947871,13.08374,-18.11318,1002.615
14.278670788,0.5038673,-1.572338,2.65372,0.06779983,0.02417452,0.8095026,9.947871,13.08374,-18.11318,1002.615
14.298498631,1.667303,-5.324126,5.344869,0.05388412,0.0134806,0.8471727,9.571584,13.44645,-18.11828,1002.611
14.318326473,-0.1697009,-5.445152,6.38463,0.04179075,0.00270885,0.8486316,9.571584,13.44645,-18.11828,1002.611
14.338154316,-0.965736,-4.900537,6.445793,0.02195828,-0.002695438,0.8713983,10.30608,13.81269,-18.57089,1002.611
14.357982636,-2.312872,-2.903618,4.427432,0.01816265,-0.008514138,0.889731,10.30608,13.81269,-18.57089,1002.611
14.377810478,-1.578071,-5.021563,1.430471,0.02266467,-0.01524632,0.9152537,10.30608,13.81269,-18.57089,1002.613
14.400116921,1.177435,5.447135,-1.872301,0.009683827,0.004347842,0.9916886,9.935544,13.80871,-18.5695,1002.613
14.419944763,0.6875677,13.13225,-4.930424,0.01406174,0.02524885,1.168915,9.935544,13.80871,-18.5695,1002.608
14.439772606,-1.945472,6.294313,2.65372,-0.01453272,0.0285932,1.203841,9.926652,14.49782,-17.69467,1002.608
14.459601402,-9.660889,13.97943,1.430471,0.01588068,0.01182524,1.252339,9.926652,14.49782,-17.69467,1002.608
14.479428768,-4.149877,18.69942,15.559,-0.05598092,0.04101118,1.192548,9.926652,14.49782,-17.69467,1002.608
14.499256611,-4.02741,15.06866,16.5376,-0.07016436,-0.005216697,1.235829,10.28979,14.85166,-18.58925,1002.608
14.519084454,-8.374986,-4.113872,14.02994,-0.1412775,0.01095955,1.231475,10.28979,14.85166,-18.58925,1002.608
14.538913250,-26.68379,-0.1805463,3.938132,-0.05992126,-0.02748657,1.065273,11.02511,15.22632,-18.5985,1002.608
14.558741093,-27.96969,11.19584,0.3295469,-0.01292169,-0.02477888,0.8753372,11.02511,15.22632,-18.5985,1002.608
14.578568936,-2.98644,-0.4225971,3.204182,-0.02752162,0.07207892,0.8894296,11.02511,15.22632,-18.5985,1002.608
14.598396301,4.422809,5.023546,10.60484,0.0005143899,0.1003134,1.02795,11.39073,15.60542,-18.16302,1002.608
14.618225098,0.993735,2.179449,12.1339,-0.06017233,0.06927448,1.008333,11.39073,15.60542,-18.16302,1002.607
14.638052940,-5.558246,6.778414,0.6965217,-0.05583549,0.01940351,0.9144133,11.38415,15.9637,-18.61285,1002.607
14.657880783,-4.02741,1.75586,-1.383002,-0.05530505,0.08460135,0.8920594,11.38415,15.9637,-18.61285,1002.608
14.680187225,4.116642,-4.29541,1.124659,0.02487991,0.06150833,0.8355112,11.38415,15.9637,-18.61285,1002.608
14.700015068,0.07523298,-5.62669,4.794406,0.05323696,0.03927336,0.842482,11.74728,16.31754,-19.50743,1002.608
14.719843388,-4.39481,-3.992847,7.60788,0.02740597,0.0175899,0.7908654,11.74728,16.31754,-19.50743,1002.608
14.739671230,-1.02697,-1.330288,6.62928,0.02837441,-0.007829424,0.7477711,12.48343,16.70062,-19.07333,1002.604
14.759499073,2.708272,2.603038,5.467194,0.02901493,-0.003316861,0.8004028,12.48343,16.70062,-19.07333,1002.604
14.779326916,6.872148,4.902521,4.977894,0.0102973,-0.003236908,0.8738727,12.48343,16.70062,-19.07333,1002.604
14.799155235,6.076113,3.026627,3.754644,-0.02100728,0.01148494,0.9885144,11.73661,17.05935,-19.07703,1002.604
14.818983078,0.3201669,-1.753877,1.858608,-0.02765724,0.02134053,1.05135,11.73661,17.05935,-19.07703,1002.604
14.838810921,-5.741947,-7.260533,0.207222,-0.0218458,0.02721968,1.053761,12.84657,17.05445,-19.96791,1002.604
14.858638763,-6.782916,-14.46154,-1.933464,-0.00691606,0.02670415,1.009753,12.84657,17.05445,-19.96791,1002.604
14.878467083,-7.089083,-19.12102,-2.545089,0.01782201,0.01163122,0.9656168,12.84657,17.05445,-19.96791,1002.604
14.898294926,-3.108907,-11.49642,-1.016027,0.03814023,0.01508212,0.9394587,12.83507,17.78785,-19.98087,1002.603
14.918122768,4.484043,-7.078995,1.858608,0.03868133,0.02294574,0.9684567,12.83507,17.78785,-19.98087,1002.603
14.937951088,7.606949,-1.753877,4.672081,0.004555427,0.0318551,1.101909,12.82932,18.15454,-19.98734,1002.604
14.957778931,3.871708,3.99483,5.039056,-0.01810218,0.02161334,1.143973,12.82932,18.15454,-19.98734,1002.604
14.980085373,5.096377,18.94147,5.89533,-0.06969398,0.06336033,1.201426,12.82932,18.15454,-19.98734,1002.602
14.999913216,9.137786,14.88712,10.54368,-0.09961704,0.05163527,1.249797,12.81864,18.89635,-19.55695,1002.602
15.019741058,5.402544,-4.416436,4.794406,-0.1003633,0.02441519,1.271382,12.81864,18.89635,-19.55695,1002.604
15.039569855,-2.374106,-21.84409,-3.340201,-0.06987053,-0.008630048,1.031154,13.93435,18.52477,-20.44134,1002.604
15.059397697,-2.312872,-23.90153,-5.725536,0.04618555,-0.0104553,0.8321289,13.93435,18.52477,-20.44134,1002.606
15.079225063,-0.04723396,1.332271,-4.012987,0.1042159,-0.02163259,0.7163937,13.93435,18.52477,-20.44134,1002.606
15.099052906,7.79065,21.66454,0.8800091,0.0498454,-0.02037755,0.7480718,13.92601,18.865,-21.84122,1002.606
15.118880749,20.95585,29.1076,1.980933,-0.03340811,-0.02052805,0.8648523,13.92601,18.865,-21.84122,1002.606
15.138709545,28.30386,13.55584,-1.627652,-0.07436456,-0.0150917,0.9862567,14.23562,18.87674,-21.39902,1002.604
15.158537388,24.62985,2.663551,-4.869262,-0.07456861,0.001240292,1.09591,14.23562,18.87674,-21.39902,1002.604
15.178365231,13.97523,-1.753877,-7.499248,-0.06152984,0.01835295,1.096891,14.23562,18.87674,-21.39902,1002.605
15.198193550,1.60607,-6.776431,-11.04667,-0.04383232,0.02410051,1.019113,14.97587,18.87628,-21.84516,1002.605
15.218021393,-7.334017,-5.082076,-12.69806,0.008199448,0.02842069,0.881287,14.97587,18.87628,-21.84516,1002.605
15.237849236,-4.272344,-6.413355,-9.701096,0.0622241,0.03425156,0.759869,16.08583,18.87139,-22.73603,1002.604
15.260155678,2.647039,0.1825299,-2.483926,0.07737314,0.0436702,0.796518,16.08583,18.87139,-22.73603,1002.605
15.279983521,4.545276,2.845089,1.736283,0.04750458,0.02220666,0.8448391,16.08583,18.87139,-22.73603,1002.605
15.299811840,-0.4146348,-0.3620844,1.980933,0.004088751,0.0002337587,0.9130215,15.70871,19.22569,-23.18447,1002.601
15.319639683,-6.476748,-3.024643,-0.2820776,0.007466755,-0.004167269,0.8980173,15.70871,19.22569,-23.18447,1002.601
15.339467526,-7.02785,-5.082076,-0.7713773,0.0321821,-0.004590281,0.8713326,16.07843,19.22125,-23.62921,1002.601
15.359295368,-2.863973,-3.085156,1.552796,0.04534847,-0.007919079,0.8760702,16.07843,19.22125,-23.62921,1002.601
15.379123688,3.19814,3.147652,4.060457,0.008131731,-0.008436924,0.9433636,16.07843,19.22125,-23.62921,1002.601
15.398951531,6.504747,3.268678,3.876969,-0.04451238,0.001816471,1.068235,16.80717,19.95418,-24.0883,1002.603
15.418779373,0.993735,1.029708,1.980933,-0.05837633,0.01658089,1.162992,16.80717,19.95418,-24.0883,1002.603
15.438607216,-8.987321,-3.206182,-0.2209152,-0.05160861,0.02245336,1.160572,17.17688,19.94975,-24.53305,1002.603
15.458435059,-11.31419,-8.712837,-1.566489,-0.02259765,-0.007826336,1.060826,17.17688,19.94975,-24.53305,1002.603
15.478263378,-3.047674,-8.107711,-1.933464,0.006924359,0.005423768,1.039977,17.17688,19.94975,-24.53305,1002.605
15.498091221,2.647039,4.055343,0.02373465,0.002643987,0.03138037,1.111088,17.55153,19.57019,-25.41466,1002.605
15.517919064,2.340871,5.326109,3.509995,-0.02688771,0.06309957,1.203121,17.55153,19.57019,-25.41466,1002.607
15.540225506,-9.905823,2.966114,3.632319,-0.08125471,0.04284674,1.200418,17.91056,20.30757,-25.42901,1002.607
15.560053349,-13.57983,-12.52514,-0.2209152,-0.06160466,0.02172158,1.080498,17.91056,20.30757,-25.42901,1002.608
15.579881668,-12.04899,-9.257452,-2.728576,0.01965773,0.02769573,0.9598972,17.91056,20.30757,-25.42901,1002.608
15.599709511,-5.007145,1.271759,0.6965217,0.06176697,0.04390353,0.9269277,19.02052,20.30268,-26.31988,1002.61
15.619537353,2.647039,7.262516,4.733244,0.01911632,0.03547581,0.9565613,19.02052,20.30268,-26.31988,1002.61
15.639365196,8.280518,6.294313,4.060457,-0.05615116,0.02832265,0.9791398,19.7616,20.31065,-26.32266,1002.612
15.659193993,9.933822,7.383542,1.980933,-0.07891589,0.053692,1.048418,19.7616,20.31065,-26.32266,1002.612
15.679021358,5.525012,1.09022,0.3295469,-0.0637602,0.06898186,1.096681,19.7616,20.31065,-26.32266,1002.61
15.698849201,-3.292608,-7.926172,-2.912063,-0.04642306,0.05575091,1.024599,19.75502,20.66892,-26.77249,1002.61
15.718677044,-7.39525,-11.92001,-5.236237,0.004218795,0.03860254,0.8717075,19.75502,20.66892,-26.77249,1002.611
15.738505840,-6.048114,-12.10155,-4.624612,0.053501,0.04840558,0.7923289,20.49445,20.66005,-27.66198,1002.611
15.758333683,-0.9045025,-6.836944,-2.912063,0.05583771,0.05861662,0.7812669,20.49445,20.66005,-27.66198,1002.613
15.778161526,1.054968,-4.174385,-0.7713773,0.04530496,0.04645845,0.8102228,20.49445,20.66005,-27.66198,1002.613
15.797988892,1.728537,-5.505664,-0.8325397,0.02167922,0.04599233,0.8697192,21.59291,21.38855,-28.56581,1002.613
15.817817688,1.054968,-12.16206,-2.789738,0.01201507,0.05478631,0.9026394,21.59291,21.38855,-28.56581,1002.613
15.840124130,-5.43578,-9.378477,-3.279038,0.0160665,0.06225445,0.962025,21.20922,22.10111,-29.46409,1002.615
15.859951973,-10.64062,-10.52822,-3.58485,0.02874594,0.0555006,0.9609555,21.20922,22.10111,-29.46409,1002.615
15.879779816,-14.4371,-17.72923,-4.135312,0.04141646,0.03798519,0.9395583,21.20922,22.10111,-29.46409,1002.612
15.899607658,-16.51904,-12.3436,-4.563449,0.040426,0.01792368,0.9013292,21.21497,21.73442,-29.45761,1002.612
15.919435978,-8.130052,-7.381558,-3.58485,0.04673062,0.006699722,0.8775858,21.21497,21.73442,-29.45761,1002.614
15.939263821,1.177435,0.6061188,-1.688814,0.01549278,0.02538025,1.018312,20.8247,22.80526,-30.80572,1002.614
15.959091663,3.749241,-1.511826,-0.2820776,-0.04443781,0.05320133,1.174688,20.8247,22.80526,-30.80572,1002.614
15.978919506,-7.823884,-7.86566,-0.8325397,-0.01980085,0.03253473,1.234299,20.8247,22.80526,-30.80572,1002.614
15.998747826,-19.27454,-7.805147,-5.970186,-0.02839687,-8.328818E-06,1.084549,20.80265,24.21093,-30.83056,1002.61
16.018575668,-11.86529,-0.1805463,-6.765298,0.02699808,-0.004499616,0.9201119,20.80265,24.21093,-30.83056,1002.61
16.038403511,2.463338,12.52712,-3.401363,0.0582779,0.0006607779,0.9735445,21.91427,24.22288,-30.83473,1002.612
16.058231354,11.70959,2.542525,-3.951825,0.03719306,-0.03784669,1.002423,21.91427,24.22288,-30.83473,1002.612
16.078059673,12.99549,1.09022,-7.009948,0.01832222,-0.05009805,1.010669,21.91427,24.22288,-30.83473,1002.612
16.097887516,19.30254,7.56508,-8.355522,0.02322053,-0.007372162,0.9485959,22.27248,24.95183,-31.29243,1002.612
16.120193958,18.07787,20.63582,-1.872301,-0.01068274,0.05512719,1.092941,22.27248,24.95183,-31.29243,1002.612
16.140021801,13.85276,14.16096,1.308146,-0.06241986,0.0247623,1.131682,22.27083,24.93499,-32.17914,1002.612
16.159849644,7.913117,-8.712837,-1.138352,-0.04646528,0.006689711,1.074063,22.27083,24.93499,-32.17914,1002.612
16.179677486,-0.4758682,-8.833863,-3.523688,0.03473122,-0.006449228,0.9026832,22.27083,24.93499,-32.17914,1002.612
16.199505806,-4.823445,2.905602,-1.199515,0.08123532,0.0009943144,0.8604739,22.63971,24.92214,-33.06723,1002.614
16.219333649,-2.435339,8.593796,2.40907,0.07431587,0.007235194,0.8383406,22.63971,24.92214,-33.06723,1002.614
16.239161491,0.0139995,4.236881,3.204182,0.03694757,-0.004146151,0.8433135,22.25685,25.64312,-33.52216,1002.608
16.258989334,-1.761771,3.510728,2.286746,0.009326904,0.001648395,0.8825913,22.25685,25.64312,-33.52216,1002.608
16.278817654,-1.823005,6.294313,-0.03742781,-0.02470347,0.008325483,0.8977749,22.25685,25.64312,-33.52216,1002.61
16.298645496,-1.271903,-2.661567,-2.667413,0.009405096,0.004148638,0.9096338,22.24042,26.75163,-33.09824,1002.61
16.318473339,-2.80274,-6.413355,-3.951825,0.03840805,0.02177269,0.8863969,22.24042,26.75163,-33.09824,1002.61
16.338301182,-3.843709,-3.690283,-2.239276,0.06508068,0.01745732,0.8567854,22.60931,26.73877,-33.98634,1002.61
16.358129978,-3.231374,-3.569258,-0.3432401,0.09569377,0.01955303,0.8522845,22.60931,26.73877,-33.98634,1002.61
16.377957821,-5.374546,0.364068,1.919771,0.1020881,0.01377078,0.8638041,22.60931,26.73877,-33.98634,1002.61
16.397785187,-3.782475,3.08714,4.121619,0.06527439,-0.002447999,0.880816,22.23783,26.72517,-34.49164,1002.61
16.420092106,0.8712681,3.692266,4.488594,0.04946769,0.001552998,0.9586343,22.23783,26.72517,-34.49164,1002.61
16.439919472,2.953206,7.504567,6.13998,0.03854521,0.01537156,1.058679,22.23219,27.09307,-34.43478,1002.608
16.459748268,1.177435,6.778414,7.852529,-0.004085948,0.02993475,1.131872,22.23219,27.09307,-34.43478,1002.608
16.479576111,-0.965736,-3.085156,8.341829,-0.02925115,0.02060386,1.1532,22.23219,27.09307,-34.43478,1002.609
16.499403954,-2.741507,-20.27076,5.711843,-0.0201175,0.01910888,1.119355,21.85425,27.43894,-35.32658,1002.609
16.519231796,-3.966176,-18.75795,4.916731,0.03556458,0.02802235,1.061174,21.85425,27.43894,-35.32658,1002.609
16.539059639,-2.374106,-5.082076,5.773006,0.036413,0.05140445,1.06322,21.4903,27.07668,-34.87536,1002.609
16.558887959,-4.823445,5.144571,12.86785,0.03642264,0.1090982,1.161018,21.4903,27.07668,-34.87536,1002.609
16.578715801,-16.88644,22.14864,20.51316,-0.05337734,0.1019106,1.200569,21.4903,27.07668,-34.87536,1002.609
16.598543644,-15.23313,4.539444,19.53456,-0.1185463,0.04584129,1.108929,21.87056,26.32923,-35.81384,1002.605
16.618371487,-14.0697,-8.107711,15.00854,-0.05572985,0.0242239,1.095924,21.87056,26.32923,-35.81384,1002.605
16.638199806,-14.2534,8.775333,13.41831,-0.01484729,0.01286829,0.9431161,22.2478,25.97614,-35.30205,1002.605
16.658027649,-1.333137,10.0461,13.90761,-0.01888507,0.004432166,0.8861389,22.2478,25.97614,-35.30205,1002.607
16.677855492,8.586685,4.176368,11.6446,-0.05187684,-8.263346E-05,0.9022246,22.2478,25.97614,-35.30205,1002.607
16.700161934,7.545716,1.332271,5.283706,-0.04991854,-0.008862986,0.8915499,21.50672,25.96817,-35.29928,1002.607
16.719989777,3.688008,-5.324126,-1.321839,0.00978398,-0.01694713,0.8433964,21.50672,25.96817,-35.29928,1002.607
16.739818096,0.2589334,-6.776431,-4.257637,0.07329922,-0.009911799,0.7972304,22.63382,24.862,-36.23405,1002.607
16.759645939,2.157171,-3.750796,-3.523688,0.1002196,0.0007598582,0.7223227,22.63382,24.862,-36.23405,1002.607
16.779473782,6.321046,3.389703,0.7576842,0.1072288,0.004360585,0.7869818,22.63382,24.862,-36.23405,1002.605
16.799301624,8.096817,10.0461,4.366269,0.06618583,-0.002975589,0.8619839,22.26903,24.49132,-36.22618,1002.605
16.819129944,7.729416,8.533283,4.549757,0.006751815,-0.01963202,0.9481404,22.26903,24.49132,-36.22618,1002.603
16.838957787,3.136906,10.0461,2.164421,-0.02023523,-0.03132909,1.001805,21.9215,23.02055,-36.19887,1002.603
16.858785629,-0.04723396,4.963033,-2.361601,-0.02843669,-0.03083573,1.022125,21.9215,23.02055,-36.19887,1002.605
16.878613472,-1.639304,-3.871821,-7.927384,-0.01826449,-0.01321259,1.039054,21.9215,23.02055,-36.19887,1002.605
16.898441315,-6.048114,-3.38772,-11.90294,0.003979345,-0.01123231,1.004672,22.66748,22.72414,-36.13291,1002.606
16.918269634,-7.089083,-9.499503,-14.34944,0.02469219,-0.0005113434,0.963586,22.66748,22.72414,-36.13291,1002.606
16.938097477,-5.741947,-13.25129,-14.53293,0.05369296,0.01662227,0.9388988,22.68379,21.61443,-36.62016,1002.606
16.957925320,-2.98644,-7.986685,-12.75922,0.06634515,0.01473766,0.9378545,22.68379,21.61443,-36.62016,1002.606
16.980231762,3.749241,-10.22566,-10.98551,0.04654293,0.0215768,0.9896446,22.68379,21.61443,-36.62016,1002.608
17.000059605,6.38228,-8.228736,-8.844821,0.05744589,0.01346694,1.03588,22.32476,20.87706,-36.60581,1002.608
17.019888401,5.525012,-6.413355,-8.049709,0.02884945,0.02952054,1.091145,22.32476,20.87706,-36.60581,1002.604
17.039715767,5.096377,-1.209262,-7.438085,0.02058801,0.0392596,1.109099,22.32968,20.50195,-37.04269,1002.604
17.059543610,4.239109,13.73738,-4.257637,-0.02356322,0.0620824,1.177998,22.32968,20.50195,-37.04269,1002.606
17.079371452,3.626774,13.91891,-0.1597527,-0.05727519,0.05480977,1.263579,22.32968,20.50195,-37.04269,1002.606
17.099199295,4.055408,-6.53438,-3.951825,-0.04646691,0.002144877,1.208707,22.35269,19.03516,-37.01677,1002.608
17.119028091,-2.925207,-18.69743,-8.172034,0.01921037,-0.001755073,1.065455,22.35269,19.03516,-37.01677,1002.608
17.138855934,-6.844149,-6.171304,-10.06807,0.08437208,-0.02278895,0.8854339,21.99448,18.30621,-36.55906,1002.608
17.158683300,-5.313313,13.13225,-8.967146,0.09738599,-0.02476009,0.8477035,21.99448,18.30621,-36.55906,1002.608
17.178511143,6.443513,20.81736,-5.052749,0.05744668,-0.001543715,0.8687966,21.99448,18.30621,-36.55906,1002.604
17.198339939,15.81223,14.46353,-3.646013,-0.005935038,0.00227156,0.9719735,22.00598,17.57282,-36.5461,1002.604
17.218167782,13.48536,2.845089,-5.786699,-0.05400214,0.01870086,1.023002,22.00598,17.57282,-36.5461,1002.604
17.237995625,5.402544,-1.874902,-9.701096,-0.0142555,0.01196843,0.9725516,22.00598,17.57282,-36.5461,1002.604
17.257823467,4.300342,-11.61745,-10.25156,0.04705575,0.04374131,0.8912892,23.12909,16.85138,-36.53731,1002.606
17.280129910,3.932941,-5.505664,-6.398323,0.06859475,0.05240712,0.8038511,23.12909,16.85138,-36.53731,1002.606
17.299958229,12.07699,-4.174385,-2.667413,0.05825271,0.04248453,0.7497967,23.46745,15.02964,-36.06271,1002.602
17.319786072,15.87347,-5.566177,0.3295469,0.06340069,0.03929106,0.8279461,23.46745,15.02964,-36.06271,1002.602
17.339613915,7.851883,5.205084,-0.1597527,0.01179665,0.02662068,0.9348354,23.09609,15.01724,-36.50468,1002.603
17.359441757,-0.1697009,4.236881,-4.012987,-0.009112418,0.01478174,0.9165472,23.09609,15.01724,-36.50468,1002.603
17.379269600,-1.823005,-1.572338,-5.603211,0.02529773,0.04420755,0.9295424,23.09609,15.01724,-36.50468,1002.603
17.399097920,-0.3534013,-3.085156,-2.361601,0.05727543,0.05699854,0.9149526,23.85524,13.93354,-36.04466,1002.603
17.418925762,0.8100346,-8.712837,0.6965217,0.06605431,0.044351,0.9013246,23.85524,13.93354,-36.04466,1002.605
17.438753605,-2.680273,-7.442071,2.347908,0.07630082,0.02633961,0.8813862,23.85524,13.93354,-36.04466,1002.605
17.458581448,-3.292608,0.4245807,4.977894,0.08306898,0.02536818,0.8678291,23.86003,13.62796,-36.03926,1002.605
17.478409767,-1.945472,9.864562,7.730205,0.05954443,0.03035198,0.9659672,23.86003,13.62796,-36.03926,1002.605
17.498237610,-2.80274,10.77225,9.503916,0.02448537,0.01484094,1.070821,23.49115,13.64081,-35.15117,1002.607
17.518065453,-3.108907,2.542525,9.381591,-0.002611876,0.01577578,1.112967,23.49115,13.64081,-35.15117,1002.607
17.537893295,-5.313313,5.749699,9.503916,-0.003020932,-0.005681875,1.100309,23.49115,13.64081,-35.15117,1002.609
17.560199738,-0.9045025,2.300474,7.913692,-0.003400969,0.01150209,1.159769,24.61522,12.929,-34.63568,1002.609
17.580027580,0.8100346,1.453297,7.669042,0.0004289933,0.04618879,1.199023,24.61522,12.929,-34.63568,1002.606
17.599855900,-4.02741,-0.4225971,9.320428,0.02851365,0.07997943,1.21835,25.34643,13.68719,-33.76471,1002.606
17.619683742,-9.844589,2.118936,12.43971,-0.002910783,0.08889297,1.145683,25.34643,13.68719,-33.76471,1002.608
17.639511585,-8.681153,-8.107711,15.559,0.001341595,0.0902932,1.111397,24.98905,12.96666,-32.86365,1002.608
17.659339428,-10.45692,-4.476948,16.78225,0.01582558,0.06340506,1.035882,24.98905,12.96666,-32.86365,1002.61
17.679167747,-8.926087,-2.843105,17.14922,0.01953951,0.05205485,0.9653323,24.98905,12.96666,-32.86365,1002.61
17.698995590,-3.415075,-0.1805463,18.25015,0.01119337,0.06222224,0.9591554,24.62017,12.97951,-31.97555,1002.61
17.718823433,-1.455604,1.574322,18.9841,-0.01066032,0.06066461,0.9660246,24.62017,12.97951,-31.97555,1002.61
17.738651276,-1.884238,-0.1805463,17.39387,-0.02171692,0.02550012,0.9461146,24.62017,12.97951,-31.97555,1002.612
17.758479118,-1.761771,-3.750796,12.86785,-0.00771354,0.0152352,0.8996482,24.62099,12.98793,-31.5322,1002.612
17.778307438,-2.435339,-4.29541,9.687403,0.03150477,0.01335896,0.8448812,24.62099,12.98793,-31.5322,1002.611
17.798135281,-1.21067,-1.209262,8.402991,0.05624679,0.006110803,0.8147825,24.99893,12.64206,-30.6404,1002.611
17.817963123,0.2589334,1.75586,8.036016,0.05386754,0.001735819,0.8229786,24.99893,12.64206,-30.6404,1002.611
17.837790966,1.238669,2.058424,6.690443,0.03935472,0.001715386,0.8457438,24.99893,12.64206,-30.6404,1002.611
17.860097408,-0.9045025,-1.874902,3.326507,0.03897868,-0.005052515,0.8669489,24.63004,12.65492,-29.7523,1002.613
17.879926205,-3.476308,-1.995928,-0.03742781,0.04669164,-0.004572192,0.8476021,24.63004,12.65492,-29.7523,1002.613
17.899754047,-2.435339,0.7876569,-2.606251,0.06799562,-0.002573513,0.8228791,24.25375,13.01763,-29.7574,1002.611
17.919581413,0.993735,2.845089,-3.707175,0.0738574,0.007252597,0.8465487,24.25375,13.01763,-29.7574,1002.611
17.939409256,2.095937,4.902521,-4.135312,0.05794702,0.02095693,0.909937,24.25375,13.01763,-29.7574,1002.613
17.959237099,0.3814003,5.810211,-5.725536,0.02841762,0.02432319,0.9559704,24.27841,11.56769,-28.84477,1002.613
17.979065895,0.1364664,-1.874902,-8.172034,0.0387092,0.02296566,0.9766622,24.27841,11.56769,-28.84477,1002.613
17.998893738,0.0139995,-0.9066988,-9.150634,0.06884913,0.0280015,0.9808673,23.1627,11.93927,-27.96038,1002.613
18.018721581,4.79021,-0.6646479,-7.80506,0.08738001,0.03351073,1.004445,23.1627,11.93927,-27.96038,1002.613
18.038548946,10.17875,-0.4831098,-5.970186,0.08116426,0.06533082,1.088146,23.1627,11.93927,-27.96038,1002.613
18.058376789,6.19858,8.412257,-3.095551,0.0233573,0.1076105,1.177975,23.1627,11.93927,-27.96038,1002.613
18.078205585,-0.5371017,5.144571,0.6965217,-0.005571465,0.1164386,1.266509,23.1627,11.93927,-27.96038,1002.614
18.098033428,-7.150316,-2.843105,0.3295469,-0.001171562,0.08030111,1.213687,22.86624,11.21098,-27.50291,1002.614
18.117861271,-13.08996,1.997911,-0.3432401,0.01959926,0.02359916,1.078615,22.86624,11.21098,-27.50291,1002.614
18.140167713,-6.660449,3.450216,-0.03742781,0.05162948,0.004651006,1.027179,22.86624,11.21098,-27.50291,1002.614
18.159995556,-2.496573,4.902521,-0.2820776,0.03459138,-0.007181862,1.003077,23.24828,10.48158,-27.49133,1002.616
18.179823875,1.361136,5.507648,-2.239276,0.01078547,-0.03075374,0.9717124,23.24828,10.48158,-27.49133,1002.616
18.199651718,4.116642,2.300474,-5.113912,0.004374252,-0.02107257,0.961661,23.1816,10.85603,-27.05423,1002.617
18.219479561,4.97391,12.22456,-5.297399,-0.01216681,-0.01187377,0.9753138,23.1816,10.85603,-27.05423,1002.617
18.239307404,7.362016,14.70558,-5.970186,-0.03744375,-0.001240747,0.9967446,23.1816,10.85603,-27.05423,1002.617
18.259135246,6.259813,4.539444,-7.31576,-0.03979065,0.001251599,1.025731,23.92268,10.86399,-27.057,1002.617
18.278963566,4.055408,-1.693364,-9.639934,-0.02343964,0.0007166642,0.9706134,23.92268,10.86399,-27.057,1002.613
18.298791409,6.076113,-5.808228,-10.06807,0.01172419,0.006036269,0.8797047,23.55706,10.4849,-27.49249,1002.613
18.318619251,7.300782,-4.05336,-7.927384,0.03748782,0.01887188,0.897006,23.55706,10.4849,-27.49249,1002.615
18.338447094,5.953646,0.7876569,-5.847861,0.01611609,0.01780253,0.9033923,23.55706,10.4849,-27.49249,1002.615
18.358275414,5.341311,-7.86566,-5.358562,0.01121396,0.01530524,0.8879606,22.89007,9.752623,-27.03363,1002.617
18.378103256,1.851004,-9.862579,-5.052749,0.04324616,0.01835775,0.8733206,22.89007,9.752623,-27.03363,1002.617
18.397931099,0.3814003,-11.07283,-3.156713,0.07803833,0.01789033,0.8065182,22.89334,9.360668,-28.35721,1002.617
18.417758942,-0.04723396,-6.53438,0.207222,0.08580758,0.01743313,0.8021291,22.89334,9.360668,-28.35721,1002.617
18.440065384,1.116202,-0.4831098,3.876969,0.06694988,0.008124419,0.8190783,22.89334,9.360668,-28.35721,1002.617
18.459893227,2.953206,-5.324126,4.305107,0.03990388,0.0007850667,0.8626298,22.53431,8.623295,-28.34286,1002.617
18.479721546,0.6875677,-3.024643,4.549757,0.02505338,0.0003794818,0.9283532,22.53431,8.623295,-28.34286,1002.615
18.499549389,1.116202,-4.779512,4.794406,0.01541662,0.01310402,0.9757738,21.80391,7.873518,-28.77048,1002.615
18.519377232,0.07523298,-3.38772,5.650681,0.02091454,0.02545949,1.039521,21.80391,7.873518,-28.77048,1002.615
18.539205551,-6.109347,-0.3015717,7.424392,0.004573371,0.02600146,1.097534,21.80391,7.873518,-28.77048,1002.615
18.559032917,-7.21155,-2.782593,7.974854,-0.02755898,0.01407767,1.068205,21.81376,7.12329,-29.64423,1002.615
18.578861237,-6.048114,-6.897457,7.485555,-0.02804073,-0.007920814,1.033342,21.81376,7.12329,-29.64423,1002.615
18.598689079,-0.1697009,-16.82154,4.855569,0.004050584,0.001040408,1.045762,22.20155,6.027186,-29.62618,1002.617
18.618516922,-1.149436,-20.63384,2.042096,0.05086893,0.008219666,1.095259,22.20155,6.027186,-29.62618,1002.617
18.638344765,-8.926087,-14.34052,1.369309,0.0730699,0.03021306,1.081253,22.20155,6.027186,-29.62618,1002.613
18.658172607,-14.6208,11.43789,6.017655,0.09373435,0.09076438,1.107998,21.83677,5.656508,-29.61831,1002.613
18.678000927,-15.11067,26.86863,17.0269,0.04801032,0.1056764,1.130528,21.83677,5.656508,-29.61831,1002.614
18.697828770,-6.721682,33.70657,23.38779,-0.07321108,0.08526134,1.204454,21.09486,5.640122,-30.05889,1002.614
18.720135212,0.7488011,13.61635,20.57432,-0.1325171,0.04131956,1.283229,21.09486,5.640122,-30.05889,1002.616
18.739963055,-9.722122,-2.05644,11.6446,-0.1130907,0.006202306,1.217298,21.09486,5.640122,-30.05889,1002.616
18.759790897,-15.29437,-5.021563,2.837208,-0.06473957,-0.01218074,0.9611197,22.58934,4.931082,-29.60813,1002.616
18.779619694,-4.700978,-10.28617,-1.505327,0.02896466,-0.002863919,0.7864076,22.58934,4.931082,-29.60813,1002.616
18.799447060,3.259373,-7.20002,-0.4044026,0.09928016,0.03011091,0.7804,22.97535,3.887677,-30.03451,1002.618
18.819274902,0.6875677,1.997911,2.164421,0.09308056,0.01109985,0.7851631,22.97535,3.887677,-30.03451,1002.618
18.839102745,-1.333137,-2.419516,1.858608,0.08684326,-0.006471525,0.7812456,22.97535,3.887677,-30.03451,1002.62
18.858930588,-3.904943,2.905602,1.124659,0.07999321,0.000307839,0.7803525,22.60316,3.866854,-30.91983,1002.62
18.878759384,-3.843709,8.593796,1.124659,0.05963077,-0.000241438,0.7983203,22.60316,3.866854,-30.91983,1002.62
18.898587227,0.8100346,4.236881,1.063496,0.02567313,0.00990974,0.8405513,21.87276,3.117079,-31.34745,1002.62
18.918414593,1.483603,1.271759,-0.5878899,0.002054918,0.001627047,0.8893886,21.87276,3.117079,-31.34745,1002.617
18.938242435,0.3201669,-2.359004,-4.502287,-0.009091885,-0.0003586183,0.8976449,21.87276,3.117079,-31.34745,1002.617
18.958070278,0.6875677,-5.324126,-8.661334,0.02586661,0.01004801,0.897507,22.9852,3.137447,-30.90826,1002.617
18.977899075,-0.2921678,-6.715919,-9.945745,0.06225212,0.03852761,0.9177266,22.9852,3.137447,-30.90826,1002.617
19.000205517,-0.5983351,-6.473867,-9.639934,0.07677905,0.0322028,0.8886539,22.61466,3.133464,-30.90687,1002.617
19.020033360,1.60607,-8.228736,-9.578771,0.1002025,0.02309196,0.8966844,22.61466,3.133464,-30.90687,1002.617
19.039861202,6.504747,-5.263614,-8.416684,0.1177456,0.03689613,0.9294814,22.61466,3.133464,-30.90687,1002.617
19.059688568,10.91356,-2.419516,-4.563449,0.127608,0.05562069,0.9999946,22.61959,2.758349,-31.34374,1002.617
19.079516411,14.22016,1.211246,0.02373465,0.0800365,0.1077468,1.112504,22.61959,2.758349,-31.34374,1002.617
19.099345207,6.749681,9.319948,6.078818,0.004596234,0.1257477,1.268432,23.30548,2.407375,-30.89645,1002.617
19.119173050,-5.068378,-6.897457,5.834168,0.001646156,0.05956811,1.292725,23.30548,2.407375,-30.89645,1002.613
19.139000893,-18.90714,-13.06975,-0.1597527,0.005850007,-0.002130842,1.140341,23.30548,2.407375,-30.89645,1002.613
19.158828735,-20.31551,-4.900537,-1.07719,0.08899677,-0.04849948,0.9156852,22.24988,2.762785,-30.899,1002.613
19.178656101,-2.80274,17.54967,1.797446,0.06850047,-0.04718894,0.8974623,22.24988,2.762785,-30.899,1002.613
19.198484898,20.15981,22.93531,3.204182,-0.04716727,-0.05520863,1.051546,22.62041,2.766768,-30.90039,1002.615
19.218312740,21.62942,16.46045,0.3295469,-0.1423759,-0.03523317,1.261169,22.62041,2.766768,-30.90039,1002.615
19.238140583,21.32325,6.596876,-6.214836,-0.1735965,-0.02568506,1.249322,22.62041,2.766768,-30.90039,1002.617
19.257972241,14.52633,-6.110791,-13.30968,-0.1077046,-0.006454654,1.207067,23.30056,2.78249,-30.45958,1002.617
19.277796745,2.524572,-11.01232,-15.75618,-0.00999824,0.005895253,1.069998,23.30056,2.78249,-30.45958,1002.617
19.300103188,-2.98644,-6.836944,-13.98247,0.05198848,0.009595053,0.8553687,23.0041,2.054201,-30.00211,1002.617
19.319931030,0.6263342,-4.476948,-8.416684,0.06920139,0.0212078,0.7877591,23.0041,2.054201,-30.00211,1002.613
19.339758873,5.402544,4.842008,-3.768338,0.03332441,0.0152347,0.8110934,23.0041,2.054201,-30.00211,1002.613
19.359586716,11.21972,-7.986685,-4.012987,-0.01128127,0.01412304,0.8499461,22.25728,2.41293,-30.00581,1002.613
19.379414558,5.341311,-13.25129,-6.459486,-0.001914767,0.01426109,0.8870618,22.25728,2.41293,-30.00581,1002.613
19.399242878,-5.741947,-5.868741,-8.967146,0.005759049,0.02791298,0.877919,23.01068,1.695925,-29.55227,1002.615
19.419070721,-4.333577,-8.833863,-9.211796,0.0408756,0.0507982,0.8020638,23.01068,1.695925,-29.55227,1002.615
19.438898563,0.1364664,-11.01232,-5.542049,0.08022641,0.06466056,0.8120559,23.01068,1.695925,-29.55227,1002.615
19.458726406,2.830739,-6.473867,-0.8937021,0.08374801,0.05107358,0.8240338,23.01151,1.704344,-29.10892,1002.615
19.478554249,3.259373,-4.718999,0.8188466,0.05967661,0.03010139,0.8617067,23.01151,1.704344,-29.10892,1002.615
19.498382568,-0.1697009,-6.110791,1.002334,0.06217548,0.03016201,0.8814832,23.01726,1.337649,-29.10244,1002.613
19.518210411,-2.251639,-5.324126,0.9411715,0.07244233,0.01998711,0.8804094,23.01726,1.337649,-29.10244,1002.613
19.538038254,-1.39437,0.0009917939,3.38767,0.06422295,0.02780074,0.9075245,23.01726,1.337649,-29.10244,1002.615
19.557866097,1.60607,1.937398,5.100219,0.04018247,0.02689439,0.9872933,22.6533,0.9753909,-28.65122,1002.615
19.580172539,0.1976999,0.0009917939,6.62928,0.03371777,0.03688238,1.104671,22.6533,0.9753909,-28.65122,1002.615
19.600000382,-6.293048,0.7876569,7.36323,0.04598659,0.0130696,1.097724,22.65905,0.6086955,-28.64474,1002.615
19.619828701,-9.109787,8.412257,8.892291,0.04856924,-0.01125349,1.101929,22.65905,0.6086955,-28.64474,1002.611
19.639656544,-8.374986,13.01122,10.1767,0.03568004,-0.003326766,1.186026,22.65905,0.6086955,-28.64474,1002.611
19.659484386,-12.29393,15.85532,10.60484,-0.01229017,0.0234381,1.282479,23.34412,0.2493019,-28.6408,1002.611
19.679312229,-17.31507,7.202003,8.892291,-0.05368627,0.01242745,1.247896,23.34412,0.2493019,-28.6408,1002.611
19.699140072,-20.92785,-2.298491,4.305107,-0.04226746,0.008884871,1.167691,23.73356,-0.8299615,-27.73605,1002.612
19.718968391,-24.72432,-6.776431,0.7576842,0.04188241,-0.01203562,0.9938416,23.73356,-0.8299615,-27.73605,1002.612
19.738796234,-18.11111,-2.116953,-0.2209152,0.08817597,-0.01403113,0.8743564,23.73356,-0.8299615,-27.73605,1002.614
19.758624077,-5.497013,12.04302,2.470233,0.08804059,-0.00337269,0.8522087,25.21571,-0.8140299,-27.7416,1002.614
19.778451920,6.19858,12.04302,4.243944,0.03278525,0.02189482,0.9491765,25.21571,-0.8140299,-27.7416,1002.614
19.798279762,6.321046,4.599957,1.124659,-0.02346626,0.01047507,0.9788692,24.846,-0.8095932,-27.29686,1002.614
19.818108082,3.932941,0.3035553,-4.563449,-0.01252917,0.02257718,0.9257768,24.846,-0.8095932,-27.29686,1002.616
19.837935924,5.280077,2.239962,-4.930424,0.06984083,0.062385,0.9004312,24.846,-0.8095932,-27.29686,1002.616
19.857763767,6.19858,6.657389,0.8188466,0.1013504,0.0854528,0.9081,25.60515,-1.893294,-26.83684,1002.616
19.880070209,4.851443,6.294313,6.38463,0.05677536,0.05209749,0.9028633,25.60515,-1.893294,-26.83684,1002.616
19.899898052,2.953206,3.510728,5.89533,0.01618486,0.01198521,0.913981,25.99377,-2.980977,-26.37543,1002.616
19.919725895,-0.1697009,4.842008,2.531395,0.01427978,-0.00168452,0.9033023,25.99377,-2.980977,-26.37543,1002.616
19.939554214,-2.006705,4.055343,-0.465565,0.02839532,-0.004047325,0.9027302,25.99377,-2.980977,-26.37543,1002.616
19.959382057,0.3201669,0.4245807,-2.422764,0.02835109,-0.001145699,0.8945399,26.7521,-4.073097,-26.35877,1002.616
19.979209900,2.524572,-1.814389,-5.297399,0.02113377,-0.0006391096,0.9182331,26.7521,-4.073097,-26.35877,1002.614
19.999037743,1.422369,-7.502584,-8.722497,0.0327708,0.006240582,0.9191702,27.50372,-4.737406,-26.34967,1002.614
20.018865585,0.1976999,-8.410274,-10.43505,0.0603465,0.02583525,0.908501,27.50372,-4.737406,-26.34967,1002.614
20.038694382,-0.5983351,-10.40719,-10.06807,0.07330277,0.04240005,0.8843812,27.50372,-4.737406,-26.34967,1002.614
20.058521748,0.6875677,-12.22257,-8.477847,0.09769124,0.03377765,0.8909609,28.26205,-5.829526,-26.333,1002.615
20.078349590,1.238669,-9.983604,-6.520648,0.0972779,0.01867227,0.8875068,28.26205,-5.829526,-26.333,1002.615
20.098177433,4.545276,-7.321045,-5.113912,0.08914745,0.01677202,0.9247078,28.62683,-5.458848,-26.34087,1002.614
20.118005276,9.199019,-3.206182,-3.034388,0.07143123,0.03789905,1.041239,28.62683,-5.458848,-26.34087,1002.614
20.137834072,3.443074,5.507648,-1.383002,0.02947595,0.04624488,1.159768,28.62683,-5.458848,-26.34087,1002.615
20.160140514,-2.863973,4.418419,-1.383002,-0.009283414,0.04419309,1.200031,29.37284,-5.825997,-26.78052,1002.615
20.179968357,-8.497453,6.838927,-2.850901,-0.02728762,0.03235988,1.177866,29.37284,-5.825997,-26.78052,1002.617
20.199796200,-8.742387,9.077897,-3.095551,-0.008857211,0.008464978,1.123582,29.75652,-6.538565,-25.88224,1002.617
20.219623566,-3.108907,9.561998,-4.012987,-0.02689093,-0.003389329,1.092729,29.75652,-6.538565,-25.88224,1002.611
20.239451408,-1.21067,1.574322,-6.82646,-0.01629714,-0.0371415,1.006098,29.75652,-6.538565,-25.88224,1002.611
20.259279251,0.07523298,2.058424,-9.517609,-0.007683269,-0.04648486,0.9495296,30.50253,-6.905714,-26.32189,1002.611
20.279108048,4.422809,11.61943,-10.6797,-0.008898777,-0.02368647,0.9158658,30.50253,-6.905714,-26.32189,1002.611
20.298935890,12.01576,19.48608,-8.294359,-0.01374577,0.005143463,0.9681697,30.87881,-7.268427,-26.3168,1002.613
20.318763733,15.0162,21.9671,-6.58181,-0.06549641,0.01925628,1.076163,30.87881,-7.268427,-26.3168,1002.613
20.338591099,9.872588,11.61943,-8.477847,-0.09109276,0.009473448,1.112936,30.87881,-7.268427,-26.3168,1002.613
20.358419895,5.218844,1.513809,-13.61549,-0.06117924,0.005547784,1.036006,31.62237,-7.235202,-24.98952,1002.613
20.378247738,1.361136,-0.9066988,-14.59409,0.007508018,0.01346162,0.9391354,31.62237,-7.235202,-24.98952,1002.611
20.398075581,3.075673,0.7271442,-11.71946,0.03246751,0.04366698,0.8918514,32.67715,-7.599031,-25.43032,1002.611
20.417903423,6.259813,-7.139507,-9.272959,0.03200077,0.03781199,0.8879625,32.67715,-7.599031,-25.43032,1002.611
20.437731266,5.218844,-10.52822,-7.009948,0.03975211,0.0461417,0.8927895,32.67715,-7.599031,-25.43032,1002.611
20.460037708,0.8712681,-8.712837,-6.398323,0.04210328,0.03729707,0.8545997,33.04852,-7.586629,-24.98836,1002.611
20.479865074,0.5651007,-8.228736,-4.808099,0.07992829,0.0427933,0.8312523,33.04852,-7.586629,-24.98836,1002.611
20.499693871,0.5651007,-9.560016,-0.7713773,0.09650351,0.05072944,0.855819,32.6714,-7.232337,-25.4368,1002.613
20.519521713,1.78977,-7.139507,3.509995,0.0877512,0.04921867,0.8539284,32.6714,-7.232337,-25.4368,1002.613
20.539349556,0.4426338,-7.86566,7.057417,0.07137814,0.03751605,0.8824359,32.6714,-7.232337,-25.4368,1002.611
20.559177399,-5.007145,-5.021563,8.831128,0.0627818,0.01460638,0.8910536,33.05836,-8.336859,-25.8621,1002.611
20.579005242,-9.048554,-3.750796,9.320428,0.04390962,-0.01328983,0.8731545,33.05836,-8.336859,-25.8621,1002.607
20.598833561,-4.456044,-3.206182,9.442753,0.04984863,-0.02785213,0.8793219,33.05836,-8.336859,-25.8621,1002.607
20.618661404,-1.823005,-0.6646479,10.78833,0.05060907,-0.008587701,0.9913982,33.05836,-8.336859,-25.8621,1002.607
20.638489246,-0.7820356,4.963033,11.58344,-0.001567303,0.001166054,1.10999,33.05836,-8.336859,-25.8621,1002.607
20.658317089,-5.190845,2.058424,11.58344,-0.03578743,-0.003680343,1.193173,32.38479,-8.710856,-25.85308,1002.607
20.678144932,-8.61992,-4.96105,9.870891,-0.02786224,-0.02700307,1.196871,32.38479,-8.710856,-25.85308,1002.607
20.697973251,-7.701417,-10.64924,7.240905,-0.001312727,-0.005496213,1.173668,32.40697,-10.18606,-26.27051,1002.607
20.717801094,-6.231814,-1.693364,8.219504,0.02907569,0.02821561,1.155333,32.40697,-10.18606,-26.27051,1002.607
20.740107536,-6.354281,2.118936,11.58344,0.004198154,0.07203232,1.205893,32.40697,-10.18606,-26.27051,1002.605
20.759935379,-17.68247,-0.7251607,11.88925,-0.005054939,0.05486481,1.173998,31.66673,-10.1856,-25.82438,1002.605
20.779763222,-20.25428,-7.744634,9.442753,0.02336014,0.008860396,1.016253,31.66673,-10.1856,-25.82438,1002.605
20.799591064,-12.11023,-3.206182,8.464154,0.06539144,0.003990996,0.9257376,31.30029,-10.57312,-26.70322,1002.605
20.819419384,0.07523298,3.99483,9.687403,0.07016823,0.02888681,0.941285,31.30029,-10.57312,-26.70322,1002.605
20.839247227,5.218844,5.507648,11.39995,0.01290456,0.04334402,1.002007,31.30029,-10.57312,-26.70322,1002.607
20.859075069,3.871708,2.542525,9.503916,-0.04197635,0.04213499,1.022574,31.67658,-10.93583,-26.69813,1002.607
20.878902912,0.9325016,-4.718999,5.100219,-0.01339951,0.03046723,0.9687805,31.67658,-10.93583,-26.69813,1002.607
20.898730755,-4.21111,-8.349761,2.347908,0.04675315,0.01502666,0.8979009,30.56989,-11.3229,-27.13084,1002.607
20.918559074,-5.252079,-7.018482,2.042096,0.08724737,0.01351599,0.7900342,30.56989,-11.3229,-27.13084,1002.608
20.938386917,-3.292608,-0.05952091,2.959532,0.08368666,0.007031254,0.733547,30.56989,-11.3229,-27.13084,1002.608
20.958214760,0.8100346,1.332271,3.754644,0.07506644,-0.005140291,0.7528389,29.83539,-11.68914,-26.67823,1002.608
20.978042603,2.953206,-1.874902,2.164421,0.06311742,-0.01140902,0.804036,29.83539,-11.68914,-26.67823,1002.608
20.997870445,-0.9045025,0.4850934,0.3295469,0.0618006,-0.007403999,0.8523316,29.47552,-12.43493,-27.10723,1002.604
21.020176888,0.1976999,2.845089,-1.566489,0.04483003,0.001344031,0.8819127,29.47552,-12.43493,-27.10723,1002.604
21.040004730,2.157171,0.2430426,-2.055789,0.03963132,0.005824048,0.9336108,29.47552,-12.43493,-27.10723,1002.61
21.059833050,1.238669,-2.116953,-4.257637,0.01255795,-0.003979222,0.9650827,29.46978,-12.06824,-27.11371,1002.61
21.079660893,-3.047674,-9.983604,-8.049709,0.0004718816,-0.002523953,0.9888076,29.46978,-12.06824,-27.11371,1002.606
21.099488735,-6.293048,-11.43591,-10.49621,0.02082763,-0.01077916,0.9543836,28.36474,-12.43846,-26.65972,1002.606
21.119316578,-7.39525,-11.31488,-12.20876,0.06258409,-0.01696655,0.9237146,28.36474,-12.43846,-26.65972,1002.608
21.139144421,1.116202,-11.07283,-12.51457,0.06931721,-0.02138511,0.8942116,28.36474,-12.43846,-26.65972,1002.608
21.158972740,10.23999,-6.292329,-11.35248,0.07918628,0.003210657,0.9763392,27.98845,-12.07575,-26.66481,1002.61
21.178800583,12.99549,-1.269775,-9.701096,0.06194484,0.0199321,1.082226,27.98845,-12.07575,-26.66481,1002.61
21.198628426,4.851443,2.845089,-9.823421,0.02171731,0.02568816,1.132674,26.48905,-10.99159,-26.6787,1002.61
21.218456268,-2.925207,5.568161,-11.04667,0.026164,0.01060561,1.128229,26.48905,-10.99159,-26.6787,1002.61
21.238284111,-4.02741,11.31687,-9.762259,0.009371241,0.03624618,1.095147,26.48905,-10.99159,-26.6787,1002.61
21.258112431,-2.312872,6.89944,-7.499248,0.05537735,-0.008774261,1.105766,26.4833,-10.6249,-26.68517,1002.61
21.277940273,0.6875677,3.692266,-8.049709,0.03642246,-0.01277485,1.102953,26.4833,-10.6249,-26.68517,1002.61
21.297768116,-0.4146348,3.510728,-5.664374,0.08198633,-0.02877902,1.031668,26.4833,-10.6249,-26.68517,1002.61
21.320074558,10.30122,18.57839,-3.279038,0.05610374,0.005232062,1.056601,25.36841,-10.24489,-25.35743,1002.606
21.339902401,20.46598,30.37837,-5.175074,-0.0603266,-0.02107587,1.099579,25.36841,-10.24489,-25.35743,1002.606
21.359730244,15.99594,17.79173,-7.132273,-0.05655314,-0.000117982,1.099666,25.72334,-9.123984,-24.49155,1002.608
21.379558086,-6.170581,-31.22356,-4.318799,0.04504067,-0.02407059,1.044444,25.72334,-9.123984,-24.49155,1002.608
21.399386406,-0.1084674,-7.563096,-4.624612,0.08218446,0.03520359,0.9098775,26.09554,-9.103162,-23.60623,1002.609
21.419214249,-1.333137,4.357906,-1.749977,0.04838522,0.008946381,0.7960156,26.09554,-9.103162,-23.60623,1002.609
21.439042091,9.505187,3.026627,-3.095551,0.05759678,-0.009114577,0.7577409,26.09554,-9.103162,-23.60623,1002.609
21.458869934,7.851883,-6.957969,-4.379962,0.06319248,-0.0001113282,0.8446386,25.3446,-8.360897,-22.72971,1002.609
21.478697777,3.38184,0.1825299,-6.642973,0.05196994,-0.02268375,0.7967989,25.3446,-8.360897,-22.72971,1002.604
21.498525620,2.953206,-3.811309,-6.275998,0.06992354,0.003779463,0.8282107,25.3446,-8.360897,-22.72971,1002.604
21.518353939,5.769945,0.0615045,-3.890663,0.09904631,0.02882222,0.8523138,24.97242,-8.38172,-23.61503,1002.605
21.538181782,5.280077,4.902521,0.9411715,0.08222798,0.02154627,0.9001536,24.97242,-8.38172,-23.61503,1002.605
21.558009625,6.933381,2.482013,3.938132,0.04748219,0.01813586,0.974176,24.95681,-7.264795,-22.74776,1002.605
21.577837467,0.5651007,-1.995928,3.938132,0.03363955,-0.003261033,1.015652,24.95681,-7.264795,-22.74776,1002.605
