Time (s),Gyroscope X (deg/s),Gyroscope Y (deg/s),Gyroscope Z (deg/s),Accelerometer X (g),Accelerometer Y (g),Accelerometer Z (g),Magnetometer X (uT),Magnetometer Y (uT),Magnetometer Z (uT),Barometer (hPa)
0.000000000,0.07523298,0.1220172,-0.2209152,-0.001466855,-0.001062701,0.9931698,-3.347225,29.10307,-23.48188,1005.812
0.009908676,0.07523298,0.1220172,-0.1597527,-0.001960297,-0.001559173,0.990274,-2.982438,29.47375,-23.48975,1005.813
0.029725075,-0.04723396,0.0615045,-0.1597527,0.008270079,-0.003449329,0.9921389,-2.982438,29.47375,-23.48975,1005.813
0.049541950,0.1976999,0.1825299,-0.1597527,0.003881106,-0.002502819,0.9902372,-2.982438,29.47375,-23.48975,1005.811
0.069359303,0.07523298,0.1825299,-0.2209152,0.004382723,-0.00346712,0.9931254,-2.616944,29.85165,-23.1176,1005.811
0.089176178,0.1364664,0.1220172,-0.1597527,-6.78096E-06,-0.001543246,0.9926767,-2.616944,29.85165,-23.1176,1005.814
0.108993530,0.0139995,0.0009917939,-0.1597527,0.006810514,-0.00541278,0.9887581,-3.352976,29.46976,-23.48836,1005.814
0.128809929,0.1976999,0.1825299,-0.2209152,0.006818227,-0.001496292,0.9974664,-3.352976,29.46976,-23.48836,1005.813
0.148627281,0.07523298,0.1825299,-0.2820776,0.0009767781,-0.00348591,0.9926614,-3.352976,29.46976,-23.48836,1005.813
0.168444157,0.07523298,0.2430426,-0.1597527,-0.000968562,-0.00496261,0.9902511,-3.722806,29.473,-23.10695,1005.816
0.188261509,0.07523298,0.3035553,-0.2209152,0.003894245,-0.001026812,0.9965194,-3.722806,29.473,-23.10695,1005.816
0.208077908,0.07523298,0.1825299,-0.09859026,0.008258602,-0.003457531,0.9887602,-3.729265,29.83248,-23.49345,1005.813
0.227895260,0.1364664,0.1825299,-0.2209152,0.005831897,-0.001999968,0.9926424,-3.729265,29.83248,-23.49345,1005.813
0.250189781,0.1364664,0.1220172,-0.2820776,0.0005122493,-0.007383822,0.9926439,-3.729265,29.83248,-23.49345,1005.812
0.270006180,0.07523298,0.0615045,-0.03742781,0.004409465,-0.005892368,0.9969743,-3.352268,29.47698,-23.10834,1005.812
0.289823055,0.1364664,0.1220172,-0.2209152,0.004410528,-0.007847097,0.9940683,-3.352268,29.47698,-23.10834,1005.817
0.309640408,0.07523298,0.4245807,-0.2209152,0.001484931,-0.005912157,0.9950595,-3.723514,29.46578,-23.48697,1005.817
0.329457283,0.1976999,0.1220172,-0.1597527,0.004860878,-0.00200383,0.9931303,-3.723514,29.46578,-23.48697,1005.816
0.349274635,0.1364664,0.2430426,-0.2820776,0.003394223,-0.002994603,0.9892719,-3.723514,29.46578,-23.48697,1005.816
0.369091034,0.1364664,0.0615045,-0.1597527,0.006308965,-4.858128E-05,0.9931324,-3.722806,29.473,-23.10695,1005.815
0.388908386,0.1364664,0.1220172,-0.1597527,0.004883787,-0.004920689,0.995046,-3.722806,29.473,-23.10695,1005.815
0.408725262,0.07523298,0.2430426,-0.2209152,0.006340049,-0.004426214,0.9950406,-3.347225,29.10307,-23.48188,1005.82
0.428542614,0.0139995,0.2430426,-0.2209152,0.003393668,-0.003483872,0.988304,-3.347225,29.10307,-23.48188,1005.82
0.448359490,0.1976999,0.0615045,-0.1597527,0.001947774,-0.004948681,0.9897524,-3.347225,29.10307,-23.48188,1005.821
0.468176365,0.1976999,0.1825299,-0.2820776,0.004388151,-0.005907602,0.9906995,-3.723514,29.46578,-23.48697,1005.821
0.487993240,0.0139995,0.2430426,-0.2209152,0.002916645,-0.002501994,0.9926558,-3.723514,29.46578,-23.48697,1005.821
0.507810593,0.1976999,0.3035553,-0.3432401,0.001964147,-0.006403596,0.9921583,-3.723514,29.46578,-23.48697,1005.821
0.530104160,0.1364664,0.1825299,-0.1597527,0.002939023,-0.004441489,0.9960245,-3.347225,29.10307,-23.48188,1005.822
0.549921513,0.07523298,0.0009917939,-0.2209152,0.003424775,-0.006394873,0.992633,-3.347225,29.10307,-23.48188,1005.822
0.569738388,0.1364664,0.0615045,-0.2209152,-0.001449442,-0.005938975,0.9902487,-3.717763,29.09909,-23.48049,1005.821
0.589555740,0.1976999,0.0615045,-0.2209152,2.208631E-05,-0.007877951,0.9907132,-3.717763,29.09909,-23.48049,1005.821
0.609372616,0.1976999,0.1825299,0.02373465,0.001933064,-0.002025962,0.9902503,-3.717763,29.09909,-23.48049,1005.822
0.629189491,0.07523298,0.364068,-0.1597527,0.003414452,-0.002491274,0.9960319,-3.353801,29.46135,-23.93172,1005.822
0.649006367,0.1976999,0.1825299,-0.2820776,0.00294064,-0.005906949,0.9940863,-3.353801,29.46135,-23.93172,1005.826
0.668823719,0.1364664,0.1825299,-0.1597527,0.001488741,-0.006887178,0.9945717,-4.088301,29.0951,-23.4791,1005.826
0.688640595,0.1364664,0.0615045,-0.1597527,0.002416714,0.001396744,0.995092,-4.088301,29.0951,-23.4791,1005.827
0.708457947,0.0139995,0.2430426,-0.09859026,0.001950568,-0.001035708,0.9970127,-4.088301,29.0951,-23.4791,1005.827
0.728274822,0.0139995,0.1220172,-0.1597527,1.176307E-05,-0.003974353,0.9941123,-3.717763,29.09909,-23.48049,1005.828
0.748091698,0.1364664,0.2430426,-0.1597527,0.001470751,-0.003966802,0.9941043,-3.717763,29.09909,-23.48049,1005.828
0.767908573,0.1976999,0.0615045,0.02373465,0.00293736,-0.005909293,0.9931208,-4.100628,29.82008,-23.93542,1005.823
0.790203095,0.1364664,0.2430426,-0.3432401,7.952331E-06,-0.002999332,0.9945998,-4.100628,29.82008,-23.93542,1005.823
0.810019493,0.1976999,0.2430426,-0.09859026,-0.001450504,-0.003984247,0.9931547,-4.100628,29.82008,-23.93542,1005.824
0.829836846,0.1976999,0.1825299,-0.09859026,0.001451076,-0.003980864,0.988312,-3.352976,29.46976,-23.48836,1005.824
0.849653721,0.1364664,0.1220172,-0.2820776,0.002417245,0.0004193799,0.9936389,-3.352976,29.46976,-23.48836,1005.824
0.869471073,0.07523298,0.1825299,-0.2209152,0.003914338,-0.009323278,0.9887539,-2.981023,29.48818,-22.72971,1005.824
0.889287949,0.07523298,0.0009917939,-0.2209152,0.001468003,-0.00494651,0.9916859,-2.981023,29.48818,-22.72971,1005.823
0.909105301,0.1364664,0.3035553,0.02373465,-0.0004636885,-0.0073912,0.9916839,-2.981023,29.48818,-22.72971,1005.823
0.928921700,0.1364664,0.1220172,-0.09859026,0.001930361,-7.240474E-05,0.9926736,-3.358727,29.83646,-23.49484,1005.822
0.948739052,0.1364664,0.1825299,-0.2820776,0.00244722,-0.00493679,0.9936112,-3.358727,29.83646,-23.49484,1005.822
0.968555928,0.1976999,0.1220172,-0.2820776,5.594105E-05,-0.009809244,0.9974607,-3.717763,29.09909,-23.48049,1005.821
0.988373280,0.07523298,0.1220172,-0.2209152,0.001984354,-0.007366898,0.9964973,-3.717763,29.09909,-23.48049,1005.821
1.008190155,0.1364664,0.0009917939,-0.1597527,0.009250936,-0.003438436,0.9945469,-3.717763,29.09909,-23.48049,1005.822
1.028007507,0.07523298,0.1220172,-0.2820776,0.003366927,-0.001058624,0.9844552,-3.358727,29.83646,-23.49484,1005.822
1.047823906,0.1364664,0.1220172,-0.09859026,0.001926528,-0.0005640166,0.9907404,-3.358727,29.83646,-23.49484,1005.823
1.070118427,-0.04723396,0.1220172,-0.09859026,0.005341225,-5.009957E-05,0.9945858,-3.352976,29.46976,-23.48836,1005.823
1.089935780,0.07523298,0.3035553,-0.2209152,3.467174E-05,-0.006891213,0.9960278,-3.352976,29.46976,-23.48836,1005.819
1.109752655,0.0139995,0.1220172,-0.2820776,0.003907294,-0.005417335,0.993118,-3.352976,29.46976,-23.48836,1005.819
1.129570007,0.1976999,0.2430426,-0.2209152,0.005350486,-0.001998969,0.9940932,-3.723514,29.46578,-23.48697,1005.818
1.149386406,0.1364664,0.2430426,-0.03742781,0.003408402,-0.004939958,0.9902272,-3.723514,29.46578,-23.48697,1005.818
1.169203281,0.07523298,0.0009917939,-0.1597527,0.003435676,-0.008342571,0.992623,-3.359552,29.82804,-23.93819,1005.819
1.189020634,0.0139995,0.2430426,0.08489711,0.0004839357,-0.0005598494,0.9955751,-3.359552,29.82804,-23.93819,1005.819
1.208837986,0.1364664,0.0615045,-0.1597527,0.001442924,-0.001053458,0.9907405,-3.359552,29.82804,-23.93819,1005.818
1.228654862,0.07523298,0.1825299,-0.1597527,0.004398565,-0.00394467,0.9969844,-2.98173,29.48096,-23.10973,1005.818
1.248472214,0.3201669,0.0615045,-0.09859026,0.001960868,-0.006405939,0.9911929,-2.98173,29.48096,-23.10973,1005.813
1.268288612,0.1364664,0.0009917939,-0.2820776,0.003437361,-0.005408134,0.9979475,-3.352976,29.46976,-23.48836,1005.813
1.288105488,-0.04723396,0.0615045,-0.3432401,0.004881547,-0.008344394,0.9887536,-3.352976,29.46976,-23.48836,1005.814
1.307922840,0.0139995,0.1825299,-0.2209152,-0.0009707103,-0.002519785,0.9936423,-3.352976,29.46976,-23.48836,1005.814
1.330217362,0.1364664,0.0615045,-0.1597527,0.003895862,-0.002492273,0.9945812,-3.346518,29.11029,-23.10186,1005.813
1.350034237,0.1364664,0.1220172,-0.03742781,0.00488434,-0.004431421,0.9960139,-3.346518,29.11029,-23.10186,1005.813
1.369851112,0.0139995,0.3035553,-0.1597527,0.003904546,-0.006397043,0.9906996,-4.082549,28.72841,-23.47262,1005.813
1.389667988,0.1976999,0.0615045,-0.2820776,0.001953801,-0.00396663,0.9931362,-4.082549,28.72841,-23.47262,1005.813
1.409485340,0.1976999,0.3035553,-0.09859026,0.004389282,-0.003462433,0.9950562,-4.082549,28.72841,-23.47262,1005.816
1.429302216,0.0139995,0.1825299,-0.03742781,-0.001943901,-0.001547455,0.9951007,-2.98819,29.84044,-23.49623,1005.816
1.449119568,0.3814003,0.1825299,-0.2820776,0.005377205,-0.00589085,0.9955209,-2.98819,29.84044,-23.49623,1005.813
1.468936443,0.0139995,0.1825299,-0.2820776,-0.001442883,-0.005934288,0.9921793,-3.723514,29.46578,-23.48697,1005.813
1.488753796,0.0139995,-0.05952091,-0.2209152,0.0005073985,-0.002987441,0.9984587,-3.723514,29.46578,-23.48697,1005.815
1.508571148,0.1976999,0.1220172,-0.09859026,0.005845522,-0.00443459,0.9926298,-3.723514,29.46578,-23.48697,1005.815
1.528387547,0.1364664,0.0615045,-0.2209152,-0.00047572,-0.007888671,0.9873372,-3.722806,29.473,-23.10695,1005.817
1.548204422,0.1364664,0.2430426,-0.2209152,0.002944981,-0.007859334,0.9921454,-3.722806,29.473,-23.10695,1005.817
1.568021774,0.2589334,0.3035553,-0.1597527,0.002922141,-0.0005425776,0.9974926,-3.712837,28.72397,-23.91737,1005.818
1.587838650,0.0139995,0.1825299,-0.03742781,-0.000952166,-0.004950892,0.9950778,-3.712837,28.72397,-23.91737,1005.818
1.610133171,0.1364664,0.1220172,-0.2820776,0.004403461,-0.005407788,0.9960115,-3.712837,28.72397,-23.91737,1005.818
1.629950524,-0.04723396,0.0615045,-0.03742781,-0.0004936871,-0.003501663,0.9892906,-3.718588,29.09067,-23.92385,1005.818
1.649766922,0.1976999,0.1825299,-0.1597527,0.00144782,-0.002516575,0.9897677,-3.718588,29.09067,-23.92385,1005.818
1.669584274,0.1976999,0.1220172,-0.3432401,0.003911659,-0.005903088,0.9935982,-3.352268,29.47698,-23.10834,1005.818
1.689401150,0.07523298,0.0615045,-0.2209152,-0.002891457,-0.003978909,0.9984722,-3.352268,29.47698,-23.10834,1005.821
1.709218502,0.2589334,0.0615045,-0.1597527,-0.0009576618,-0.006910308,0.990241,-3.352268,29.47698,-23.10834,1005.821
1.729035378,0.1364664,0.1220172,-0.1597527,0.003902398,-0.003954218,0.994091,-3.352268,29.47698,-23.10834,1005.822
1.748852730,0.07523298,0.0009917939,-0.2209152,0.003927478,-0.00784727,0.9950362,-3.352268,29.47698,-23.10834,1005.822
1.768669605,0.1364664,0.0009917939,-0.1597527,0.001946712,-0.002993952,0.9926586,-3.352268,29.47698,-23.10834,1005.818
1.788486958,0.07523298,0.1220172,-0.2820776,0.001000795,-0.005424234,0.9965127,-3.358727,29.83646,-23.49484,1005.818
1.808303356,0.1364664,0.1825299,-0.1597527,0.004392515,-0.006393355,0.9911797,-3.358727,29.83646,-23.49484,1005.819
1.828120709,0.1364664,0.1220172,-0.1597527,0.003914361,-0.007856645,0.9911748,-3.358727,29.83646,-23.49484,1005.819
1.847937584,0.1976999,0.1220172,-0.1597527,0.008262967,-0.003943284,0.9892404,-3.358727,29.83646,-23.49484,1005.821
1.870232105,0.1364664,0.1220172,-0.1597527,0.002935721,-0.005910465,0.9926382,-3.725046,29.45015,-24.31034,1005.821
1.890049458,0.0139995,0.1825299,-0.09859026,0.003925861,-0.00638181,0.9969744,-3.725046,29.45015,-24.31034,1005.82
1.909866333,0.07523298,-0.05952091,-0.1597527,0.001960891,-0.004939307,0.9936138,-3.725046,29.45015,-24.31034,1005.82
1.929683686,0.1364664,0.1220172,0.08489711,1.832121E-05,-0.003969666,0.9960429,-3.358727,29.83646,-23.49484,1005.817
1.949500084,0.0139995,0.1220172,-0.09859026,-0.001925888,-0.003001197,0.9979892,-3.358727,29.83646,-23.49484,1005.817
1.969317436,-0.04723396,0.1825299,-0.1597527,0.004867944,-0.004443139,0.9911871,-3.358727,29.83646,-23.49484,1005.818
1.989134312,0.3201669,0.1825299,-0.1597527,0.001484931,-0.005912157,0.9950595,-3.724339,29.45736,-23.93033,1005.818
2.008951664,0.07523298,0.0615045,-0.2209152,-0.0004576843,-0.007875781,0.9926466,-3.724339,29.45736,-23.93033,1005.818
2.028768539,0.1364664,0.1825299,-0.1597527,0.0009942364,-0.005428921,0.9945819,-2.982438,29.47375,-23.48975,1005.818
2.048585892,0.0139995,0.0615045,-0.2820776,0.001967981,-0.005911983,0.9940916,-2.982438,29.47375,-23.48975,1005.819
2.068402767,0.1364664,0.1220172,-0.09859026,0.0009947906,-0.004939653,0.9955498,-2.982438,29.47375,-23.48975,1005.819
2.088220119,0.0139995,0.1825299,-0.1597527,0.005363003,-0.005412128,0.9921448,-4.093344,29.46902,-23.10557,1005.816
2.108036995,0.1976999,0.1825299,-0.1597527,0.002921564,-0.002498478,0.9941039,-4.093344,29.46902,-23.10557,1005.816
2.127854347,0.0139995,0.0615045,-0.1597527,-0.0004652829,-0.004459107,0.996043,-3.71788,29.09789,-23.54383,1005.816
2.150148392,0.2589334,-0.1200336,-0.1597527,0.002450477,-0.006401079,0.9921556,-3.71788,29.09789,-23.54383,1005.816
2.169965267,0.07523298,0.3035553,-0.1597527,0.004402375,-0.004919691,0.9964966,-3.71788,29.09789,-23.54383,1005.815
2.189782620,-0.04723396,0.1220172,-0.2209152,0.002423226,-0.001531833,0.9921808,-3.717763,29.09909,-23.48049,1005.815
2.209599495,0.1976999,0.1220172,-0.09859026,0.0019614,-0.007383303,0.9897398,-3.717763,29.09909,-23.48049,1005.812
2.229416847,0.1364664,0.2430426,-0.09859026,0.003896348,-0.006402902,0.9882862,-2.976687,29.10705,-23.48327,1005.812
2.249233723,0.07523298,0.2430426,-0.2209152,0.004397434,-0.00638984,0.9926277,-2.976687,29.10705,-23.48327,1005.811
2.269051075,0.07523298,0.0615045,-0.2209152,0.003428054,-0.00639253,0.9935983,-2.976687,29.10705,-23.48327,1005.811
2.288867951,0.1364664,0.0615045,-0.2209152,0.002949346,-0.008345087,0.9926256,-2.617652,29.84443,-23.49762,1005.812
2.308685303,0.0139995,0.1825299,-0.1597527,0.001938514,-0.002999811,0.9902452,-2.617652,29.84443,-23.49762,1005.812
2.328501701,0.07523298,0.1220172,-0.09859026,0.002416623,-0.004469785,0.9854082,-3.712012,28.73239,-23.47401,1005.808
2.348319054,-0.04723396,0.2430426,-0.09859026,0.0009723904,-0.00446679,0.9897603,-3.712012,28.73239,-23.47401,1005.808
2.368135929,0.0139995,0.2430426,-0.2209152,0.004360923,0.0004282754,0.9931455,-3.712012,28.73239,-23.47401,1005.811
2.387953281,0.1976999,0.1825299,-0.2820776,0.004420897,-0.008817432,0.9955112,-2.982555,29.47255,-23.55309,1005.811
2.407770157,0.1364664,0.1220172,-0.2820776,0.002465211,-0.007857164,0.9940789,-2.982555,29.47255,-23.55309,1005.813
2.430064678,0.07523298,0.2430426,-0.2209152,0.002453225,-0.005421371,0.994574,-3.718588,29.09067,-23.92385,1005.813
2.449882031,-0.04723396,0.1220172,-0.09859026,0.001958166,-0.004452382,0.9936164,-3.718588,29.09067,-23.92385,1005.81
2.469698906,0.07523298,0.3035553,-0.03742781,2.924423E-05,-0.004450731,0.9984537,-3.718588,29.09067,-23.92385,1005.81
2.489516258,0.07523298,0.0615045,-0.2209152,0.001954887,-0.004454725,0.992651,-3.71788,29.09789,-23.54383,1005.812
2.509333611,0.1364664,0.1220172,-0.09859026,0.002441239,-0.002985576,0.9950693,-3.71788,29.09789,-23.54383,1005.812
2.529150009,0.2589334,0.1220172,-0.09859026,-0.000472418,-0.006419695,0.9907234,-3.723631,29.46458,-23.55031,1005.813
2.548966885,0.1976999,0.1825299,-0.09859026,0.001484908,-0.00737879,0.9926386,-3.723631,29.46458,-23.55031,1005.813
2.568784237,0.1364664,0.1220172,-0.1597527,0.002422096,-0.003977002,0.9878241,-3.723631,29.46458,-23.55031,1005.809
2.588601113,0.3201669,0.2430426,-0.1597527,0.004875079,-0.002482552,0.9965066,-3.346518,29.11029,-23.10186,1005.809
2.608418465,0.1976999,0.1220172,-0.2209152,7.352792E-06,-0.006421866,0.9887902,-3.346518,29.11029,-23.10186,1005.812
2.628235817,0.1364664,0.0615045,-0.1597527,-0.0009821416,0.0004052771,0.9951054,-3.358845,29.83526,-23.55818,1005.812
2.648052693,0.07523298,0.1825299,-0.09859026,0.005370093,-0.006384806,0.9926224,-3.358845,29.83526,-23.55818,1005.813
2.667870045,0.1364664,0.1825299,-0.1597527,0.00585476,-0.007850092,0.9897162,-3.358845,29.83526,-23.55818,1005.813
2.690164566,0.07523298,0.0009917939,-0.2209152,0.001495831,-0.007859855,0.9950495,-3.353093,29.46856,-23.5517,1005.813
2.709981442,0.07523298,0.2430426,-0.2209152,0.003896971,-0.001513737,0.9965169,-3.353093,29.46856,-23.5517,1005.813
2.729798794,-0.04723396,0.1825299,-0.2209152,0.0004866151,-0.003980039,0.9907307,-3.352268,29.47698,-23.10834,1005.814
2.749615669,-0.04723396,0.2430426,-0.3432401,0.006324184,-0.005415297,0.9887607,-3.352268,29.47698,-23.10834,1005.814
2.769433022,0.0139995,0.0615045,-0.1597527,-0.0009478244,-0.006903278,0.9931369,-3.352268,29.47698,-23.10834,1005.814
2.789249420,0.0139995,0.1220172,-0.2820776,0.002461423,-0.005415512,0.9969874,-2.976805,29.10585,-23.5466,1005.814
2.809066773,0.1364664,0.3035553,-0.4044026,0.002941725,-0.006395047,0.993601,-2.976805,29.10585,-23.5466,1005.817
2.828883648,0.07523298,0.2430426,-0.1597527,0.001005182,-0.004443354,0.9994138,-3.729383,29.83128,-23.55679,1005.817
2.848701000,0.07523298,0.3035553,-0.09859026,0.003412812,-0.002492446,0.9955491,-3.729383,29.83128,-23.55679,1005.815
2.868517876,0.07523298,0.1220172,-0.09859026,0.0009685573,-0.004958401,0.9878271,-3.729383,29.83128,-23.55679,1005.815
2.888335228,0.1364664,0.1825299,-0.2209152,0.002418285,-0.003001981,0.9883118,-2.987482,29.84766,-23.11621,1005.816
2.908152104,0.07523298,0.3035553,-0.1597527,-0.001930275,-0.003982077,0.9950881,-2.987482,29.84766,-23.11621,1005.816
2.927969456,0.0139995,0.1220172,-0.09859026,0.003424821,-0.003461607,0.9974749,-2.987482,29.84766,-23.11621,1005.818
2.947786808,0.07523298,0.0615045,-0.1597527,0.004870138,-0.0039527,0.9926376,-4.086885,29.10954,-22.71907,1005.818
2.970080853,0.07523298,0.2430426,-0.2209152,0.001943455,-0.001529663,0.9941142,-4.086885,29.10954,-22.71907,1005.819
2.989898205,0.1976999,0.1825299,-0.2820776,0.003881084,-0.003969451,0.9878162,-3.723631,29.46458,-23.55031,1005.819
3.009715557,0.07523298,0.2430426,-0.2209152,0.006319288,-0.00395218,0.9897336,-3.723631,29.46458,-23.55031,1005.82
3.029532433,0.1364664,0.2430426,-0.2820776,-0.002419375,-0.006430934,0.9902515,-3.717055,29.1063,-23.10047,1005.82
3.049349785,0.07523298,0.0615045,-0.03742781,0.0009620443,-0.002029824,0.9907382,-3.717055,29.1063,-23.10047,1005.815
3.069166660,0.0139995,0.1825299,-0.09859026,-0.003427482,-0.001572582,0.9878685,-3.717055,29.1063,-23.10047,1005.815
3.088984013,0.0139995,0.1825299,-0.09859026,0.002919902,-0.003966283,0.9912002,-3.722806,29.473,-23.10695,1005.817
3.108800411,-0.04723396,0.0615045,-0.3432401,0.004886488,-0.006874247,0.9926226,-3.722806,29.473,-23.10695,1005.817
3.128617764,0.07523298,0.0009917939,-0.09859026,0.005367391,-0.004431248,0.9950458,-3.722806,29.473,-23.10695,1005.82
3.148434639,0.0139995,0.3035553,-0.2820776,0.006832891,-0.007352275,0.9921268,-2.982555,29.47255,-23.55309,1005.82
3.168251991,0.0139995,0.1825299,-0.1597527,0.004408357,-0.006870905,0.9950386,-2.982555,29.47255,-23.55309,1005.82
3.188068867,0.2589334,0.0615045,-0.2820776,0.002947175,-0.007368895,0.993596,-3.359552,29.82804,-23.93819,1005.82
3.207886219,-0.04723396,0.1825299,-0.2209152,0.005849333,-0.005409611,0.9921421,-3.359552,29.82804,-23.93819,1005.822
3.230180740,0.0139995,0.1825299,-0.03742781,0.0009702423,-0.002023965,0.9931515,-3.359552,29.82804,-23.93819,1005.822
3.249997616,0.0139995,0.3035553,-0.2820776,0.001974516,-0.007373929,0.9936013,-3.352268,29.47698,-23.10834,1005.821
3.269814968,0.0139995,0.1220172,-0.2209152,0.005373926,-0.005893194,0.9945556,-3.352268,29.47698,-23.10834,1005.821
3.289631844,0.013905,0.06116122,-0.2206569,0.003901844,-0.004443486,0.9931231,-3.722806,29.473,-23.10695,1005.822
3.309449196,0.07489214,0.2422609,-0.2811886,0.004863603,-0.002490754,0.9931278,-3.722806,29.473,-23.10695,1005.822
3.329266071,-0.0478782,0.1207032,-0.219493,0.001931378,-0.004960399,0.9849256,-3.722806,29.473,-23.10695,1005.823
3.349083424,0.3192584,0.3019384,-0.1579522,0.0005259202,-0.00688518,0.9974732,-2.982555,29.47255,-23.55309,1005.823
3.368900776,0.1351601,0.05947143,-0.03528835,0.003423135,-0.006396045,0.9921503,-2.982555,29.47255,-23.55309,1005.824
3.388717651,0.07366411,-0.001304537,-0.09599747,0.004383832,-0.002488584,0.9950612,-3.717055,29.1063,-23.10047,1005.824
3.408535004,0.1958501,0.05883161,-0.217947,0.004382723,-0.00346712,0.9931254,-3.717055,29.1063,-23.10047,1005.82
3.428351879,0.01186945,0.3005448,-0.217323,0.002464656,-0.008346433,0.9931108,-3.717055,29.1063,-23.10047,1005.82
3.448169232,0.1340759,0.4212336,-0.277959,0.00294064,-0.005906949,0.9940863,-2.976805,29.10585,-23.5466,1005.821
3.467986107,0.3174396,0.1786002,-0.3998549,0.005384826,-0.007840892,0.9945455,-2.976805,29.10585,-23.5466,1005.821
3.487803459,0.07215086,0.05716449,-0.09348023,4.673144E-06,-0.003001676,0.9936345,-4.094169,29.4606,-23.54892,1005.822
3.510097981,-0.05069275,0.1776868,-0.0930052,0.001462553,-0.003972661,0.9916909,-4.094169,29.4606,-23.54892,1005.822
3.529914856,0.07157469,0.2983231,-0.1537614,0.003889282,-0.003963592,0.9902296,-4.094169,29.4606,-23.54892,1005.82
3.549732208,0.193593,0.05573227,-0.09228965,0.00438875,-0.002485069,0.9965092,-3.729383,29.83128,-23.55679,1005.82
3.569549561,0.1932223,0.2974533,-0.1529324,0.001442901,-0.002520091,0.9883196,-3.729383,29.83128,-23.55679,1005.819
3.589366436,0.1317537,0.1154912,-0.2136917,0.0009915342,-0.003475364,0.9970054,-2.982555,29.47255,-23.55309,1005.819
3.609182835,0.07018945,0.05453666,-0.09102237,0.003437914,-0.004918866,0.9989153,-2.982555,29.47255,-23.55309,1005.82
3.629000187,0.008818123,0.1145516,-0.2743387,0.0029614,-0.006380985,0.9993931,-2.982555,29.47255,-23.55309,1005.82
3.648817063,0.1922851,-0.006932374,-0.2127179,0.002928631,-0.004937788,0.9921606,-2.994058,30.20593,-23.56604,1005.82
3.668634415,0.06948922,0.1743952,-0.2123182,0.001968535,-0.005422715,0.9950594,-2.994058,30.20593,-23.56604,1005.82
3.688451767,0.1917626,0.1136156,-0.02837464,0.003400758,-0.004456549,0.9887816,-3.71788,29.09789,-23.54383,1005.823
3.708268643,0.1303936,-0.007618968,-0.150398,0.001964147,-0.006403596,0.9921583,-3.71788,29.09789,-23.54383,1005.823
3.728085995,-0.05351879,0.2341851,-0.2722877,0.002912258,-0.003482873,0.9897547,-3.71788,29.09789,-23.54383,1005.823
3.747902870,0.007445434,0.1126666,-0.2106337,-0.0009379641,-0.005429614,0.998454,-3.35802,29.84368,-23.11482,1005.823
3.770197392,0.06838884,0.233374,-0.1489725,0.004890853,-0.007359999,0.9931027,-3.35802,29.84368,-23.11482,1005.826
3.790014744,-0.05424975,0.1119905,-0.08747444,-0.0004713098,-0.005441158,0.9926592,-2.982555,29.47255,-23.55309,1005.826
3.809831619,0.06794959,0.1118423,-0.2705119,0.004874503,-0.004438452,0.9931177,-2.982555,29.47255,-23.55309,1005.825
3.829648972,-0.05486095,0.05114385,-0.08642218,0.003916578,-0.005899572,0.9950463,-2.982555,29.47255,-23.55309,1005.825
3.849465847,0.189807,0.171699,-0.2694814,0.003427523,-0.005415165,0.9950514,-3.353093,29.46856,-23.5517,1005.823
3.869283200,0.1282893,0.1713441,-0.2078152,0.002470683,-0.007364382,0.9964947,-3.353093,29.46856,-23.5517,1005.823
3.889100075,0.1280633,0.2315027,-0.2073127,0.0009680488,-0.002514405,0.9917011,-3.711305,28.73961,-23.09399,1005.826
3.908917427,0.1890137,-0.01084433,-0.02340092,0.001971791,-0.006887005,0.9936038,-3.711305,28.73961,-23.09399,1005.826
3.928734780,0.3113521,0.2309489,-0.20658,0.002924821,-0.003962767,0.9926482,-3.711305,28.73961,-23.09399,1005.826
3.948551655,0.1886994,0.1094956,-0.2673007,0.003426437,-0.004927069,0.9955366,-3.353093,29.46856,-23.5517,1005.826
3.968369007,0.1271843,0.2301322,-0.2054671,0.0009849307,-0.006413316,0.9902329,-3.353093,29.46856,-23.5517,1005.829
3.988185883,0.06582365,0.1086999,-0.2049513,0.005395218,-0.007344593,0.9984095,-4.094169,29.4606,-23.54892,1005.829
4.008003235,0.06548548,0.04802834,-0.1434086,0.003422627,-0.003952048,0.9960243,-4.094169,29.4606,-23.54892,1005.831
4.027820110,0.06528269,-0.01266181,-0.2653927,0.001958675,-0.006896379,0.9897424,-4.094169,29.4606,-23.54892,1005.831
4.050114632,-0.05746461,0.2288551,-0.08136699,0.001919947,-0.002035337,0.9863888,-3.724339,29.45736,-23.93033,1005.826
4.069931984,0.06489688,0.04683741,-0.1421715,-0.0004429054,-0.006398603,0.9994116,-3.724339,29.45736,-23.93033,1005.826
4.089748859,0.1871048,0.228011,-0.2640818,0.003424221,-0.006884141,0.9916652,-3.71788,29.09789,-23.54383,1005.826
4.109566212,0.003049998,0.1065652,-0.141401,3.522588E-05,-0.006401945,0.9969956,-3.71788,29.09789,-23.54383,1005.826
4.129383564,-0.05834484,0.1061647,-0.1409309,0.0063564,-0.007347762,0.9950255,-3.71788,29.09789,-23.54383,1005.827
4.149200439,0.1252138,0.1663919,-0.2016435,0.001488741,-0.006887178,0.9945717,-3.723631,29.46458,-23.55031,1005.827
4.169017792,0.06376199,0.2265438,-0.1400899,0.006318249,-0.0005308185,0.9950607,-3.723631,29.46458,-23.55031,1005.828
4.188834667,0.1247585,0.2262031,-0.2619481,0.00825971,-0.002478996,0.9906959,-3.722806,29.473,-23.10695,1005.828
4.208652020,0.06332714,0.1651415,-0.2003392,0.008750935,-0.003939596,0.9897204,-3.722806,29.473,-23.10695,1005.83
4.228468895,0.1244015,0.1043093,-0.1387697,0.001452716,-0.003979692,0.9887947,-3.722806,29.473,-23.10695,1005.83
4.248286247,0.1241277,0.4063831,-0.2606695,0.001944518,-0.003484392,0.991208,-3.728558,29.83969,-23.11343,1005.833
4.268103600,0.001502893,0.2849262,-0.3213503,0.0005133573,-0.006405287,0.9945796,-3.728558,29.83969,-23.11343,1005.833
4.287920475,-0.05988806,-0.01812466,-0.07618168,0.002422672,-0.002021102,0.9912129,-3.728558,29.83969,-23.11343,1005.833
4.307737827,0.00122664,0.1026803,-0.1981618,0.005841734,-0.001992937,0.9955384,-3.723631,29.46458,-23.55031,1005.835
4.330032349,0.1847505,0.1021435,-0.2588222,0.0009876783,-0.005433608,0.9926513,-3.723631,29.46458,-23.55031,1005.83
4.349849224,0.06218505,0.2228365,-0.1361738,0.004411659,-0.005401929,0.9984249,-4.093344,29.46902,-23.10557,1005.83
4.369666576,0.06193288,-0.01952684,-0.07463126,0.003401866,-0.003478013,0.9907174,-4.093344,29.46902,-23.10557,1005.831
4.389483452,0.0004478358,0.04071198,-0.1355103,0.002443942,-0.004939133,0.9926459,-3.353093,29.46856,-23.5517,1005.831
4.409300804,0.1227023,0.1612743,0.04839406,0.000974607,-0.002509718,0.9936317,-3.353093,29.46856,-23.5517,1005.833
4.429117680,0.1224903,0.1003949,-0.1960509,0.00245759,-0.005907123,0.9950542,-3.353093,29.46856,-23.5517,1005.833
4.448935032,0.06096852,0.1606177,-0.2568171,0.0005111636,-0.006895727,0.993129,-3.723631,29.46458,-23.55031,1005.834
4.468751907,0.06071933,-0.02128569,-0.07304972,0.004399605,-0.007366032,0.9916574,-3.723631,29.46458,-23.55031,1005.834
4.488569737,0.1217234,0.1600969,-0.07267438,0.003899628,-0.006400559,0.9892517,-3.723631,29.46458,-23.55031,1005.836
4.508387089,0.1216292,0.09927721,-0.255768,0.00487448,-0.005905084,0.9906968,-2.971054,28.73915,-23.54012,1005.836
4.528204441,0.06014811,0.1595027,-0.07192654,0.003405677,-0.004453033,0.9902297,-2.971054,28.73915,-23.54012,1005.836
4.548021317,0.1210384,0.09860854,-0.1939557,0.002438491,-0.003965284,0.9926509,-3.353801,29.46135,-23.93172,1005.835
4.567838669,-0.001636229,0.2193104,-0.01005826,5.781418E-06,-0.00202314,0.9955702,-3.353801,29.46135,-23.93172,1005.835
4.590133190,0.05935214,-0.08362554,-0.3766974,-0.002436834,-0.004487923,0.9883307,-3.353801,29.46135,-23.93172,1005.836
4.609950066,0.3041946,0.03707805,-0.1927251,0.00244886,-0.004935618,0.994094,-3.722806,29.473,-23.10695,1005.834
4.629767418,-0.1247037,-0.08432543,-0.06993551,0.002443433,-0.002495137,0.9965198,-3.722806,29.473,-23.10695,1005.834
4.649584294,0.05879092,0.2181268,-0.3142562,0.002936298,-0.003954565,0.996027,-3.71788,29.09789,-23.54383,1005.833
4.669401646,0.05864336,0.2178261,-0.2528039,0.002465211,-0.007857164,0.9940789,-3.71788,29.09789,-23.54383,1005.833
4.689218521,-0.06402847,0.1571843,-0.2524187,0.00635044,-0.003929916,0.9989044,-3.71788,29.09789,-23.54383,1005.836
4.709035874,0.05825329,0.09635296,-0.1297672,0.003903484,-0.004442314,0.9936058,-3.723631,29.46458,-23.55031,1005.836
4.728853226,0.1192637,0.1565667,-0.1294223,0.00488538,-0.007852782,0.9906867,-3.723631,29.46458,-23.55031,1005.836
4.748670101,0.2414504,0.03520529,-0.1902022,0.004373994,-0.002495615,0.9921651,-3.346518,29.11029,-23.10186,1005.836
4.768487454,0.1187424,0.2164842,-0.1286966,0.002928077,-0.005427056,0.9911926,-3.346518,29.11029,-23.10186,1005.836
4.788304329,-0.003888063,0.155485,-0.2506216,0.001499087,-0.009324145,0.9935939,-3.346518,29.11029,-23.10186,1005.837
4.808121681,0.3021545,0.09460093,-0.005572956,0.001965256,-0.005425059,0.9940941,-3.352268,29.47698,-23.10834,1005.837
4.827938557,0.05688488,0.1547621,-0.2499401,-0.002415542,-0.005939322,0.9921846,-3.352268,29.47698,-23.10834,1005.836
4.850233078,-0.00450936,0.154458,-0.1271012,0.00146149,-0.002017933,0.9945969,-3.353093,29.46856,-23.5517,1005.835
4.870050431,-0.00459417,0.1540322,-0.1266094,0.0009849307,-0.006413316,0.9902329,-3.353093,29.46856,-23.5517,1005.835
4.889867306,0.1177498,0.2142721,-0.187358,0.004885958,-0.005896882,0.9940757,-3.353093,29.46856,-23.5517,1005.837
4.909684658,-0.1885979,0.09274668,-0.06458192,0.003890412,-0.001518424,0.9945862,-3.352268,29.47698,-23.10834,1005.837
4.929501534,0.1174471,0.2739949,-0.2476385,-0.002449374,-0.002541397,0.9878582,-3.352268,29.47698,-23.10834,1005.835
4.949318886,-0.005353129,0.03165513,-0.06352951,0.003884894,-0.004944472,0.9873285,-2.97598,29.11427,-23.10325,1005.835
4.969136238,0.2393444,0.1524682,-0.1243597,0.004912145,-0.008811399,0.9969565,-2.97598,29.11427,-23.10325,1005.835
4.988953114,0.1166033,0.09170562,-0.1239131,0.002446712,-0.002492793,0.9974852,-2.97598,29.11427,-23.10325,1005.837
5.008770466,0.05509628,0.03096274,-0.06230516,0.0004920652,-0.004953888,0.9907257,-3.71788,29.09789,-23.54383,1005.837
5.028587341,0.05491956,0.1517206,-0.06197602,0.004865773,-0.003466947,0.9921575,-3.71788,29.09789,-23.54383,1005.838
5.048405170,0.1770756,0.09092194,-0.2451158,0.003417131,-0.005911464,0.9911875,-3.71788,29.09789,-23.54383,1005.838
5.068222523,0.1767464,0.03016198,-0.2446348,0.006340072,-0.002959582,0.9974615,-3.71788,29.09789,-23.54383,1005.84
5.088039398,0.05414313,0.27189,-0.121907,0.004911037,-0.009789934,0.9950209,-3.71788,29.09789,-23.54383,1005.84
5.107856751,0.1152984,0.08985941,-0.243945,0.002458121,-0.006884488,0.9936011,-3.352268,29.47698,-23.10834,1005.84
5.130151272,0.05391227,0.08951077,-0.1824584,-0.0009363247,-0.005428443,0.9989366,-3.352268,29.47698,-23.10834,1005.842
5.149968147,0.05371917,0.1497227,-0.1820195,0.0009969617,-0.005915845,0.9945794,-3.729383,29.83128,-23.55679,1005.842
5.169785500,0.05364195,0.2704482,-0.1203616,0.003901867,-0.002976854,0.995544,-3.729383,29.83128,-23.55679,1005.841
5.189602852,0.1759358,0.1490856,-0.05883929,-0.00193792,-0.003498668,0.9936426,-3.729383,29.83128,-23.55679,1005.841
5.209419727,-0.008033374,0.02766698,-0.1195661,0.002416645,-0.003003153,0.9878292,-3.723631,29.46458,-23.55031,1005.841
5.229237080,0.1142616,0.148338,-0.1192275,0.002413943,-0.001049596,0.9902527,-3.723631,29.46458,-23.55031,1005.843
5.249053955,0.0527413,0.1480606,-0.05780415,0.004846698,-5.847542E-05,0.9921751,-3.724339,29.45736,-23.93033,1005.843
5.268871307,0.113727,0.2082965,-0.2411656,0.0005063128,-0.002499345,0.9989437,-3.724339,29.45736,-23.93033,1005.844
5.288688183,0.05220808,0.1474129,-0.179609,0.001459342,0.0004248922,0.9979882,-3.724339,29.45736,-23.93033,1005.844
5.308505535,0.05215391,0.1470427,-0.3015598,0.003900159,-0.007377923,0.9877986,-4.093344,29.46902,-23.10557,1005.845
5.328322411,0.05196531,0.3888763,-0.1175648,-0.0009805707,-0.003993449,0.9883252,-4.093344,29.46902,-23.10557,1005.845
5.348140240,0.1742056,0.02543151,-0.1172313,0.004890876,-0.005893366,0.9955236,-2.976805,29.10585,-23.5466,1005.841
5.367957592,0.05153205,0.02510176,-0.2391468,0.001973962,-0.007863197,0.9926334,-2.976805,29.10585,-23.5466,1005.841
5.387774944,0.05128735,0.02475386,-0.1165095,-0.001458125,-0.002034206,0.9941303,-2.976805,29.10585,-23.5466,1005.842
5.410068989,0.05108495,0.1451775,-0.1773428,0.003429694,-0.006391358,0.9940811,-3.723631,29.46458,-23.55031,1005.841
5.429886341,0.05089908,0.2055157,-0.3604809,0.005829149,-0.002979676,0.9902241,-3.723631,29.46458,-23.55031,1005.841
5.449703693,0.1118318,-0.03691815,-0.0541667,0.001461468,-0.003484565,0.992176,-3.346518,29.11029,-23.10186,1005.841
5.469520569,0.05045222,0.08372504,-0.1761637,0.003413852,-0.005913807,0.9902222,-3.346518,29.11029,-23.10186,1005.842
5.489337921,0.1114245,-0.03749155,-0.1757214,0.0004909572,-0.005932423,0.98879,-3.346518,29.11029,-23.10186,1005.842
5.509154797,0.1113178,0.1438938,-0.1141178,0.004402353,-0.006386324,0.9940758,-3.35802,29.84368,-23.11482,1005.842
5.528972149,-0.01133254,0.1436654,-0.1749362,0.001954333,-0.004943993,0.9916832,-3.35802,29.84368,-23.11482,1005.842
5.548789024,0.1107592,0.1432289,-0.1746698,-0.0004679852,-0.002505551,0.9984665,-3.353093,29.46856,-23.5517,1005.839
5.568606377,-0.01194745,0.1429073,0.009217732,0.002453779,-0.004932103,0.9955419,-3.353093,29.46856,-23.5517,1005.839
5.588423729,-0.1345958,0.1425105,-0.112804,3.565103E-06,-0.003980212,0.9916989,-3.353093,29.46856,-23.5517,1005.84
5.608240605,0.1713136,0.2026844,-0.05116639,0.001954333,-0.004943993,0.9916832,-3.723631,29.46458,-23.55031,1005.84
5.628058434,0.1099768,0.08135895,-0.112066,0.006312199,-0.002979502,0.989256,-3.723631,29.46458,-23.55031,1005.841
5.647875786,0.109816,-0.04002268,-0.1727935,0.003423735,-0.002973512,0.99796,-3.723631,29.46458,-23.55031,1005.841
5.670169354,0.1709315,0.2018183,0.01104746,0.0005111408,-0.008362358,0.9907081,-3.722806,29.473,-23.10695,1005.841
5.689987183,-0.07422009,0.08047615,-0.1722758,0.00344549,-0.009802173,0.993098,-3.722806,29.473,-23.10695,1005.841
5.709804535,0.04818337,0.2012995,0.01158654,0.003417131,-0.005911464,0.9911875,-2.994058,30.20593,-23.56604,1005.842
5.729621411,0.2316668,0.2008131,-0.2326892,-0.00389961,-0.002053821,0.9912474,-2.994058,30.20593,-23.56604,1005.842
5.749438763,0.1088104,0.0190937,-0.1100296,0.006825293,-0.003935602,0.995523,-2.994058,30.20593,-23.56604,1005.842
5.769255638,0.1699052,0.1396724,-0.1097343,0.005838432,-0.003461913,0.9921522,-3.346518,29.11029,-23.10186,1005.842
5.789072991,0.04728089,0.1394166,-0.04814275,0.0009849533,-0.004946684,0.9926538,-3.346518,29.11029,-23.10186,1005.843
5.808889866,-0.0141482,0.01811721,-0.1702316,0.00391279,-0.003457919,0.9979548,-3.35802,29.84368,-23.11482,1005.843
5.828707218,-0.07548069,0.07826147,-0.2310243,0.002460846,-0.007371413,0.9935986,-3.35802,29.84368,-23.11482,1005.846
5.848524571,0.1080056,0.07795095,-0.2307898,0.001935257,-0.001535522,0.9917008,-3.35802,29.84368,-23.11482,1005.846
5.868342400,-0.07581218,0.3196352,-0.1693167,0.002460891,-0.004438147,0.9984405,-3.718588,29.09067,-23.92385,1005.848
5.888159275,0.04644147,0.1983391,-0.04650912,0.003905655,-0.005418506,0.9926354,-3.718588,29.09067,-23.92385,1005.848
5.907976628,0.1074623,0.07708162,-0.1686213,0.002441216,-0.004452208,0.9926484,-3.729383,29.83128,-23.55679,1005.85
5.927793503,0.1072502,0.1372298,-0.04606501,0.002439045,-0.003476016,0.9936188,-3.729383,29.83128,-23.55679,1005.85
5.950088024,-0.01544291,0.07646236,-0.1067903,0.001967958,-0.007378616,0.9916706,-3.729383,29.83128,-23.55679,1005.851
5.969905377,0.2293952,0.2576945,-0.1676655,-0.00341224,-0.005472665,0.9859177,-2.981023,29.48818,-22.72971,1005.851
5.989722252,-0.0157878,0.07592732,-0.1671871,0.007292502,-0.003457878,0.9906961,-2.981023,29.48818,-22.72971,1005.853
6.009539604,0.04538922,0.01524305,-0.1057968,0.003446113,-0.004913007,1.001329,-3.34805,29.09465,-23.92523,1005.853
6.029356480,0.1064318,0.1965339,-0.1667322,0.002470661,-0.008831015,0.9940738,-3.34805,29.09465,-23.92523,1005.848
6.049173832,0.1060877,0.07526205,-0.2275528,-0.0009620038,-0.004957923,0.9921817,-3.34805,29.09465,-23.92523,1005.848
6.068990707,0.1058983,0.01448444,-0.2270775,0.0009903808,-0.007387165,0.9902279,-4.094876,29.45338,-23.92894,1005.851
6.088808537,0.1055748,0.01437214,-0.1044321,0.001986525,-0.00834309,0.9955269,-4.094876,29.45338,-23.92894,1005.851
6.108625889,0.1666969,0.07473481,-0.2264372,0.003435653,-0.009809203,0.9902021,-3.71788,29.09789,-23.54383,1005.853
6.128443241,-0.01717209,0.1349839,-0.1038317,-0.00144069,-0.005443849,0.9936299,-3.71788,29.09789,-23.54383,1005.853
6.148260117,0.04381618,0.0740754,-0.1645799,0.001459783,-0.006419003,0.9868515,-3.71788,29.09789,-23.54383,1005.854
6.168077469,0.2273681,0.1344402,-0.2864916,0.005865706,-0.006864526,0.9945479,-3.353093,29.46856,-23.5517,1005.854
6.187894344,0.1658713,0.01309622,-0.225013,0.004379421,-0.004936096,0.9897392,-3.353093,29.46856,-23.5517,1005.856
6.210188866,-0.01814371,0.1338948,-0.1634454,0.003408956,-0.00445069,0.991195,-3.353093,29.46856,-23.5517,1005.856
6.230006218,0.1040613,0.1942423,-0.1020454,0.002427014,-0.003973486,0.9892722,-3.353093,29.46856,-23.5517,1005.857
6.249823093,0.0426435,0.1334129,-0.1018275,0.002453779,-0.004932103,0.9955419,-3.353093,29.46856,-23.5517,1005.857
6.269640446,-0.01881227,0.1332489,-0.1624848,0.005363557,-0.00492286,0.9931126,-3.717055,29.1063,-23.10047,1005.858
6.289458275,0.1035097,0.1329333,-0.1621536,0.002437451,-0.0005439229,0.9979779,-3.717055,29.1063,-23.10047,1005.858
6.309275150,0.04211244,0.1327326,-0.1006033,0.003895862,-0.002492273,0.9945812,-3.723631,29.46458,-23.55031,1005.86
6.329092503,0.1031057,0.1324943,-0.2837613,0.0004953446,-0.004951544,0.9916912,-3.723631,29.46458,-23.55031,1005.86
6.348909378,0.1029238,0.1927124,-0.09998386,0.0004767778,-0.003987069,0.9878348,-3.723631,29.46458,-23.55031,1005.861
6.368726730,0.1027807,0.07145011,-0.2832585,0.003882214,-0.001524283,0.9921728,-3.353093,29.46856,-23.5517,1005.861
6.388544083,0.04123157,0.01081502,-0.09927127,0.0005307933,-0.009814929,0.9940794,-3.353093,29.46856,-23.5517,1005.861
6.408360958,0.04114735,0.1316043,-0.09904128,0.004384894,-0.004443313,0.9921551,-2.982555,29.47255,-23.55309,1005.861
6.428178787,-0.08157665,0.1918436,-0.09892695,-0.00194233,-0.00594618,0.9883205,-2.982555,29.47255,-23.55309,1005.858
6.447996140,0.04074922,0.1310582,-0.03738173,0.003415514,-0.004446003,0.9931257,-2.982555,29.47255,-23.55309,1005.858
6.467813015,-0.08189696,0.07023542,-0.2204297,0.003914961,-0.004434112,0.9969845,-3.352268,29.47698,-23.10834,1005.859
6.490107536,0.101612,0.009505279,-0.21998,-0.0004582156,-0.006898417,0.9940998,-3.352268,29.47698,-23.10834,1005.859
6.509924889,-0.02105231,0.311855,-0.09727545,0.003888727,-0.00445286,0.9892617,-3.729383,29.83128,-23.55679,1005.859
6.529741764,0.223819,0.008926541,-0.03584951,0.006337855,-0.004916654,0.99359,-3.729383,29.83128,-23.55679,1005.859
6.549559116,0.1011169,0.1298535,-0.09686439,0.002929208,-0.002981887,0.9955493,-3.729383,29.83128,-23.55679,1005.86
6.569375992,0.2232147,0.1297364,-0.280051,0.001484354,-0.007868057,0.9916708,-3.358845,29.83526,-23.55818,1005.86
6.589193344,-0.02195279,-0.05201346,-0.09618692,0.006830189,-0.005398718,0.9945502,-3.358845,29.83526,-23.55818,1005.859
6.609011173,0.1002619,0.18975,-0.2181936,0.004384894,-0.004443313,0.9921551,-3.71788,29.09789,-23.54383,1005.859
6.628828049,0.03881522,0.1289508,-0.2176842,0.002915537,-0.00348053,0.99072,-3.71788,29.09789,-23.54383,1005.854
6.648645401,0.09985518,0.1286651,-0.2785306,-0.001448842,-0.002516443,0.9960584,-3.71788,29.09789,-23.54383,1005.854
6.668462753,0.03837107,0.5519691,0.02771224,0.001458211,-0.002020277,0.9936316,-3.723631,29.46458,-23.55031,1005.853
6.688279629,-0.02311251,0.007089604,0.02789231,0.005355382,-0.003462086,0.9931201,-3.723631,29.46458,-23.55031,1005.853
6.708096981,0.0378908,0.1279642,-0.2166164,0.001943455,-0.001529663,0.9941142,-3.352386,29.47578,-23.17168,1005.852
6.727913857,0.1601474,0.1276619,-0.09388206,0.00340406,-0.002987573,0.9921679,-3.352386,29.47578,-23.17168,1005.852
6.750208378,0.09882674,0.006484859,0.028708,-0.001438473,-0.003486776,0.9975014,-3.352386,29.47578,-23.17168,1005.853
6.770026207,-0.08498719,0.1273041,-0.09338178,0.004375634,-0.002494443,0.9926478,-2.987599,29.84646,-23.17955,1005.853
6.789843559,0.09859985,0.06677571,-0.1544057,1.12087E-05,-0.004463621,0.9931442,-2.987599,29.84646,-23.17955,1005.848
6.809660435,0.09840995,0.06649419,-0.03169307,0.008277746,-0.002466106,0.9960054,-3.723631,29.46458,-23.55031,1005.848
6.829477787,0.09818213,0.126783,-0.09271843,0.000469665,-0.004481025,0.9849361,-3.723631,29.46458,-23.55031,1005.849
6.849294663,-0.0244543,0.06597099,-0.2758579,7.398194E-06,-0.0034886,0.993632,-3.723631,29.46458,-23.55031,1005.849
6.869112015,0.09788182,0.1866788,-0.2144254,0.0009904262,-0.0044539,0.9950697,-3.34805,29.09465,-23.92523,1005.847
6.888929367,0.09773225,0.1259634,-0.09179258,-0.001443946,-0.00397956,0.9950855,-3.34805,29.09465,-23.92523,1005.847
6.908747196,0.2200307,0.004678722,-0.09154291,0.004385448,-0.003954045,0.9931229,-3.34805,29.09465,-23.92523,1005.846
6.928564072,0.2197474,0.06506574,-0.1523604,0.005352634,-0.004441794,0.9907017,-2.982555,29.47255,-23.55309,1005.846
6.948381424,0.097017,0.1254341,-0.1519203,-0.0009554229,-0.003486603,0.9965333,-2.982555,29.47255,-23.55309,1005.847
6.968198300,0.03555918,0.06481545,-0.2739214,0.001970152,-0.006888176,0.9931211,-3.352386,29.47578,-23.17168,1005.847
6.988015652,0.03550835,0.06459564,-0.2123976,0.003900227,-0.002978025,0.9950613,-3.352386,29.47578,-23.17168,1005.848
7.007832527,-0.08710538,0.003882766,-0.2121907,0.0009674944,-0.003003673,0.9907331,-3.352386,29.47578,-23.17168,1005.848
7.030127048,-0.1484004,0.1247074,-0.08943935,0.005834622,-0.002486892,0.9926399,-3.729383,29.83128,-23.55679,1005.847
7.049944878,0.1578128,0.1243372,-0.02801395,-0.001442306,-0.003978388,0.9955681,-3.729383,29.83128,-23.55679,1005.847
7.069762230,0.03521881,0.06360723,0.03331479,0.002939,-0.005908121,0.9936035,-4.094169,29.4606,-23.54892,1005.846
7.089579105,-0.0262953,0.06323857,-0.2112459,0.0004980699,-0.005438468,0.9916887,-4.094169,29.4606,-23.54892,1005.846
7.109396458,0.03477343,0.06279492,-0.1497066,0.003889282,-0.003963592,0.9902296,-4.094169,29.4606,-23.54892,1005.841
7.129213333,-0.08780009,0.1836627,-0.1495227,0.002437937,-0.004454552,0.9916831,-3.717055,29.1063,-23.10047,1005.841
7.149030685,0.09581318,0.06240406,0.03407127,-0.0004691386,-0.006417351,0.9916889,-3.717055,29.1063,-23.10047,1005.841
7.168848515,-0.0268558,0.1831398,-0.08801278,0.002433041,-0.002991435,0.9926559,-3.353093,29.46856,-23.5517,1005.841
7.188665867,0.0955632,0.06188254,-0.0876575,0.005819379,0.001413191,0.9945907,-3.353093,29.46856,-23.5517,1005.84
7.208482742,0.09534253,0.3037969,-0.08743742,0.001506199,-0.00883019,0.9964924,-3.353093,29.46856,-23.5517,1005.84
7.228300095,0.03415796,0.1825027,-0.02617066,0.003898011,-0.004935098,0.9911899,-3.353093,29.46856,-23.5517,1005.834
7.248116970,0.09536336,0.06120912,-0.02581709,0.006800168,-0.002975814,0.989736,-3.353093,29.46856,-23.5517,1005.834
7.267934322,0.1565304,0.1820619,-0.1480196,2.922164E-05,-0.005917364,0.9960328,-4.094169,29.4606,-23.54892,1005.832
7.287752152,0.1563103,-0.1207878,-0.02538063,1.012324E-05,-0.003975525,0.9936295,-4.094169,29.4606,-23.54892,1005.832
7.310046673,0.0947892,0.1209775,-0.2086427,0.001953824,-0.002499997,0.9955571,-4.094169,29.4606,-23.54892,1005.833
7.329863548,0.09455127,0.1813384,-0.147225,0.001470729,-0.005433435,0.9916834,-3.724339,29.45736,-23.93033,1005.833
7.349680901,0.03323415,0.1206933,0.0364015,0.001958166,-0.004452382,0.9936164,-3.724339,29.45736,-23.93033,1005.828
7.369497776,-0.0893355,0.1204092,-0.1467741,0.006330234,-0.002966613,0.9945654,-3.71788,29.09789,-23.54383,1005.828
7.389315128,0.03304819,0.1201639,-0.08530085,0.001472945,-0.003476362,0.9955547,-3.71788,29.09789,-23.54383,1005.829
7.409132004,0.09414107,0.1805079,-0.02382825,0.003904569,-0.004930411,0.9931206,-3.71788,29.09789,-23.54383,1005.829
7.428949833,0.03269051,0.1802826,-0.1459013,0.001969066,-0.00640008,0.9936063,-3.723631,29.46458,-23.55031,1005.83
7.448767185,-0.089993,-0.06195489,-0.0844302,0.0009822282,-0.004459759,0.9926564,-3.723631,29.46458,-23.55031,1005.83
7.468584538,0.1549169,0.1194159,-0.1453615,0.0005068218,-0.004943342,0.9950699,-3.347342,29.10187,-23.54522,1005.83
7.488401413,0.03234928,0.3006164,0.09953801,-0.0009647289,-0.004470998,0.9921842,-3.347342,29.10187,-23.54522,1005.83
7.508218765,0.03222967,0.1187984,-0.2060636,0.001966341,-0.005913155,0.9936088,-3.347342,29.10187,-23.54522,1005.831
7.528036595,0.03209116,-0.002430305,-0.08345167,-0.0009466931,-0.004458109,0.9974937,-3.723631,29.46458,-23.55031,1005.831
7.547853470,0.1544968,-0.06316479,-0.144443,0.001964702,-0.005914327,0.9931261,-3.723631,29.46458,-23.55031,1005.826
7.570147991,-0.02935177,0.1787416,-0.0831221,0.002917731,-0.00299009,0.9921706,-3.346635,29.10909,-23.1652,1005.826
7.589965344,0.03199379,0.1784448,-0.08277898,0.0009854389,-0.008857314,0.9863589,-3.346635,29.10909,-23.1652,1005.828
7.609782219,0.09307003,0.2385095,-0.08243684,1.970911E-06,-0.001048119,0.996058,-3.346635,29.10909,-23.1652,1005.828
7.629599571,0.09291327,0.1172463,-0.2046125,0.00196962,-0.005910811,0.9945741,-3.363888,30.20917,-23.18464,1005.829
7.649417401,0.03158111,0.05636329,-0.2042908,0.003418748,-0.007376925,0.9892493,-3.363888,30.20917,-23.18464,1005.829
7.669234276,0.09271605,0.1166016,-0.1429227,0.004881592,-0.005411129,0.9935955,-2.982555,29.47255,-23.55309,1005.831
7.689051628,0.2150078,-0.06515322,-0.2037839,0.003424798,-0.004928241,0.9950539,-2.982555,29.47255,-23.55309,1005.831
7.708868504,0.0923662,0.0556749,-0.1423402,0.001941262,-0.002020103,0.9926636,-2.982555,29.47255,-23.55309,1005.83
7.728685856,0.03097773,-0.00526242,-0.1420021,0.004369584,-0.004943127,0.9868432,-3.722923,29.4718,-23.17029,1005.83
7.748503208,-0.03041034,0.05507357,-0.1416456,-0.000498052,-0.003015911,0.9888104,-3.722923,29.4718,-23.17029,1005.83
7.768320561,-0.0304686,0.05484034,-0.2024908,-0.0004664136,-0.006904276,0.9916864,-3.346518,29.11029,-23.10186,1005.83
7.788137913,0.09201723,0.1150634,-0.2021169,0.0009942364,-0.005428921,0.9945819,-3.346518,29.11029,-23.10186,1005.829
7.807955265,0.1530389,0.1149075,-0.2017439,-0.004880489,-0.003531346,0.9864183,-3.346518,29.11029,-23.10186,1005.829
7.827772141,0.1527893,0.1146379,-0.2013718,0.001936874,-0.003000983,0.9897625,-3.353093,29.46856,-23.5517,1005.83
7.850066662,0.09147027,0.1144853,-0.01766124,0.001924357,0.0004121761,0.9917109,-3.353093,29.46856,-23.5517,1005.83
7.869884014,-0.03111096,0.1140839,-0.139673,0.003392029,-0.003485043,0.9878214,-4.099095,29.83571,-23.11205,1005.831
7.889701843,0.03008528,0.1743861,-0.1394567,0.0005084386,-0.006408802,0.9931315,-4.099095,29.83571,-23.11205,1005.831
7.909518719,0.02999047,0.1136065,-0.2004994,0.0004571255,-0.002534499,0.9844636,-4.099095,29.83571,-23.11205,1005.826
7.929336071,0.09107174,0.1739101,-0.07805506,-1.116865E-05,-0.002524126,0.9897756,-3.353093,29.46856,-23.5517,1005.826
7.949152947,0.1522112,0.234233,0.1057434,0.00683781,-0.00734876,0.9935748,-3.353093,29.46856,-23.5517,1005.825
7.968970299,0.1520982,-0.00821586,-0.07756787,0.001962531,-0.004938134,0.9940966,-3.728558,29.83969,-23.11343,1005.825
7.988788128,0.09073274,0.05208957,-0.1996596,0.005349355,-0.004444138,0.9897364,-3.728558,29.83969,-23.11343,1005.825
8.008605003,0.0906011,0.1728703,-0.07708311,0.0009833134,-0.004947856,0.9921711,-3.728558,29.83969,-23.11343,1005.825
8.028422356,0.09033521,0.1120755,-0.0156696,0.0009598508,-0.002520264,0.9892877,-2.981848,29.47976,-23.17307,1005.828
8.048239231,0.09024285,0.2328765,-0.1377441,0.003901313,-0.003466121,0.9945761,-2.981848,29.47976,-23.17307,1005.828
8.068057060,0.09013167,-0.009265102,-0.1375519,0.004395817,-0.004924378,0.9945659,-3.347342,29.10187,-23.54522,1005.828
8.087874413,0.02876805,0.05102395,0.04618487,0.0005029885,-0.005434953,0.9931366,-3.347342,29.10187,-23.54522,1005.828
8.110168934,0.08990107,0.1113166,-0.01468582,-0.0004527883,-0.009338899,0.9916738,-3.347342,29.10187,-23.54522,1005.831
8.129985809,-0.03277238,-0.009798385,-0.1366284,0.002939531,-0.006885486,0.9921505,-3.352386,29.47578,-23.17168,1005.831
8.149803162,0.02833199,-0.07049541,0.04716357,0.001462576,-0.002506029,0.9941118,-3.352386,29.47578,-23.17168,1005.832
8.169620514,0.02816475,0.1713904,-0.0749342,0.002921542,-0.003965111,0.9916829,-3.346635,29.10909,-23.1652,1005.832
8.189438343,-0.03319707,0.05001066,-0.1358701,0.004863026,-0.004446655,0.9897391,-3.346635,29.10909,-23.1652,1005.834
8.209255219,-0.03336342,0.1102649,-0.1356442,0.002908448,-0.002507853,0.9902425,-3.346635,29.10909,-23.1652,1005.834
8.229072571,0.08907196,0.2311085,-0.07427547,0.00196962,-0.005910811,0.9945741,-3.722923,29.4718,-23.17029,1005.835
8.248889446,0.1501202,0.1097689,-0.0740889,0.0004997319,-0.003970664,0.9945921,-3.722923,29.4718,-23.17029,1005.835
8.268707275,-0.03376482,0.1094743,-0.01275959,0.001012227,-0.008349296,0.9950496,-3.722923,29.4718,-23.17029,1005.835
8.288524628,0.1498089,0.1091616,-0.1960806,-0.0009462077,-0.008368738,0.9911988,-3.341591,28.73517,-23.53874,1005.835
8.308341503,0.02706203,0.04850786,-0.07358975,0.00440129,-0.004431595,0.9969818,-3.341591,28.73517,-23.53874,1005.836
8.328158856,0.08809301,0.1693356,-0.318074,0.0005057361,-0.004455245,0.995555,-3.722923,29.4718,-23.17029,1005.836
8.347975731,0.0268113,-0.07293133,-0.01194316,-0.001431983,-0.007881986,0.9921693,-3.722923,29.4718,-23.17029,1005.835
8.367793560,-0.03452787,0.2295494,-0.07294121,0.002413457,0.002861033,0.9965475,-3.722923,29.4718,-23.17029,1005.835
8.390088081,-0.0345647,0.04774284,-0.1340129,0.004394732,-0.004436282,0.9950511,-2.983263,29.46533,-23.9331,1005.833
8.409905434,0.1490303,0.1081546,-0.07262916,0.002451031,-0.00591181,0.9931235,-2.983263,29.46533,-23.9331,1005.833
8.429722309,0.08759572,0.04744642,-0.0113611,0.004874503,-0.004438452,0.9931177,-3.340883,28.74239,-23.15872,1005.836
8.449539662,0.08739508,0.107688,-0.1336191,0.001452716,-0.003979692,0.9887947,-3.340883,28.74239,-23.15872,1005.836
8.469357491,0.209681,0.1679874,-0.01113147,0.00146036,-0.004463101,0.9902403,-3.340883,28.74239,-23.15872,1005.836
8.489174843,0.2093852,0.1073189,-0.1332173,0.001452716,-0.003979692,0.9887947,-4.094169,29.4606,-23.54892,1005.836
8.508991718,-0.03576678,-0.1350583,-0.07195077,0.005831365,-0.001022603,0.9940956,-4.094169,29.4606,-23.54892,1005.837
8.528809071,0.1478504,0.1674834,-0.01049247,4.995917E-05,-0.007858031,0.9989187,-3.718588,29.09067,-23.92385,1005.837
8.548626900,0.0251276,0.04645539,-0.07135987,0.001922695,-0.001055628,0.9888072,-3.718588,29.09067,-23.92385,1005.834
8.568443775,0.08643253,0.2278959,-0.00996048,0.0005111864,-0.005429094,0.99555,-3.718588,29.09067,-23.92385,1005.834
8.588261128,0.1474875,0.2276467,-0.1932886,0.003438424,-0.007362863,0.9950414,-3.358845,29.83526,-23.55818,1005.833
8.608078003,0.02490013,-0.01459588,-0.07061283,-0.0009680081,-0.004473342,0.9912189,-3.358845,29.83526,-23.55818,1005.833
8.627895355,0.02474149,-0.01473016,0.0520045,0.001501281,-0.008833705,0.9950444,-3.71788,29.09789,-23.54383,1005.834
8.650189877,0.2083337,0.1062989,-0.07012172,0.001475647,-0.00542992,0.9931313,-3.71788,29.09789,-23.54383,1005.834
8.670007706,0.02449466,0.04548127,-0.07000326,0.001460914,-0.003973833,0.9912081,-3.71788,29.09789,-23.54383,1005.832
8.689824581,0.02449079,0.1663545,-0.06980828,0.00634222,-0.005402407,0.9940702,-3.347342,29.10187,-23.54522,1005.832
8.709641934,0.02437156,0.1057469,-0.06947943,0.005382678,-0.005398067,0.9979368,-3.347342,29.10187,-23.54522,1005.833
8.729458809,0.1467197,0.1056334,-0.008085042,0.002428122,-0.00299495,0.9912079,-3.723631,29.46458,-23.55031,1005.833
8.749276638,0.08540623,0.165957,0.1144521,0.0004833587,-0.00251575,0.9921864,-3.723631,29.46458,-23.55031,1005.832
8.769093991,0.02391997,0.1053505,-0.1911676,2.975296E-05,-0.006894729,0.9945797,-3.723631,29.46458,-23.55031,1005.832
8.788910866,0.08501653,-0.01580646,0.05373183,0.003916046,-0.004922208,0.9964993,-3.364595,30.20195,-23.56466,1005.83
8.808728218,-0.03749084,0.1050686,-0.06855521,0.001456017,-0.002510716,0.9921811,-3.364595,30.20195,-23.56466,1005.83
8.828546047,0.2073064,0.1652417,-0.1906504,0.0009876783,-0.005433608,0.9926513,-3.723631,29.46458,-23.55031,1005.831
8.848363400,-0.0377827,-0.07703398,-0.06817333,0.001946135,-0.004949852,0.9892698,-3.723631,29.46458,-23.55031,1005.831
8.868180275,0.02329583,0.04384296,-0.129203,0.005833513,-0.003465428,0.9907041,-3.723631,29.46458,-23.55031,1005.834
8.887997627,-0.03793842,0.1041505,-0.3124236,-0.001920438,-0.003975047,0.9979841,-3.352386,29.47578,-23.17168,1005.834
8.907815457,0.08435474,0.04341435,-0.1897176,0.00147507,-0.007385821,0.9897425,-3.352386,29.47578,-23.17168,1005.834
8.930109978,0.02284461,-0.1384172,-0.005886443,0.0009647694,-0.002516749,0.9907356,-3.352386,29.47578,-23.17168,1005.834
8.949926853,0.08407845,0.1035064,-0.2503295,0.004876674,-0.005414645,0.9921474,-3.352386,29.47578,-23.17168,1005.835
8.969744206,0.08400188,-0.01770288,0.1168322,-0.001448311,-0.003493807,0.9946052,-3.352386,29.47578,-23.17168,1005.835
8.989561081,0.08390635,0.04270239,0.05591391,0.003433527,-0.005899746,0.9960143,-3.353093,29.46856,-23.5517,1005.837
9.009378910,0.2062395,0.1032029,-0.1274258,0.004404523,-0.007362517,0.9931053,-3.353093,29.46856,-23.5517,1005.837
9.029196262,-0.03882779,0.04258301,-0.1884219,0.001959206,-0.007873743,0.9882892,-4.082666,28.72721,-23.53596,1005.836
9.049013138,0.08367904,0.2846029,-0.1881792,0.001473476,-0.004453727,0.9941018,-4.082666,28.72721,-23.53596,1005.836
9.068830967,0.08354583,0.04240746,-0.187918,0.003894754,-0.003470809,0.9926454,-4.082666,28.72721,-23.53596,1005.837
9.088648319,0.144608,0.2238201,-0.1877726,-0.001447779,-0.004471172,0.9931522,-3.364595,30.20195,-23.56466,1005.837
9.108465195,0.08312695,0.2236381,-0.004063472,0.0005258974,-0.008351812,0.9950522,-3.364595,30.20195,-23.56466,1005.838
9.128282547,0.2054429,-0.2001134,-0.003765337,0.002436852,-0.003966456,0.9921682,-3.729383,29.83128,-23.55679,1005.838
9.148100376,0.02161111,0.04192698,0.1187801,0.003910042,-0.004437627,0.9955364,-3.729383,29.83128,-23.55679,1005.834
9.167917728,0.02161454,0.04187878,-0.003382236,0.000989872,-0.004943168,0.9941019,-3.729383,29.83128,-23.55679,1005.834
9.190211773,0.08274846,0.1021402,0.0580969,8.48365E-06,-0.003976697,0.9931468,-3.352386,29.47578,-23.17168,1005.835
9.210029125,0.08255988,0.1625294,-0.06402833,0.001944541,-0.00201776,0.993629,-3.352386,29.47578,-23.17168,1005.835
9.229846954,-0.101367,0.1622924,-0.002781928,-0.002445009,-0.00302715,0.9883382,-3.71213,28.73119,-23.53735,1005.834
9.249663830,0.02116223,-0.01952023,-0.06372623,0.001469112,-0.003967974,0.9936215,-3.71213,28.73119,-23.53735,1005.834
9.269481182,0.1434031,0.2829593,-0.2470728,-0.002441707,-0.001558174,0.9917247,-3.71213,28.73119,-23.53735,1005.835
9.289298534,-0.04036896,-0.08040943,0.05901423,0.003887088,-0.004454032,0.988779,-3.71788,29.09789,-23.54383,1005.835
9.309115410,0.08208399,0.1614824,-0.06319012,0.0009571258,-0.002033339,0.9892902,-3.71788,29.09789,-23.54383,1005.828
9.328933239,0.1430729,-0.02021427,-0.1241556,-0.002452099,-0.002054473,0.9878607,-4.105671,30.19398,-23.56188,1005.828
9.348750591,0.02053503,0.04008321,-0.06283504,0.002909001,-0.002018585,0.9912103,-4.105671,30.19398,-23.56188,1005.829
9.368567467,-0.04067308,0.1004383,-0.06265808,-0.0004952813,-0.0005695703,0.9936498,-4.105671,30.19398,-23.56188,1005.829
9.388385296,0.0817614,0.1003,-0.001415066,6.867107E-06,-0.002511236,0.9950851,-3.352386,29.47578,-23.17168,1005.829
9.408202648,-0.04060326,0.1001432,-0.1845726,0.004405632,-0.006383981,0.9950411,-3.352386,29.47578,-23.17168,1005.829
9.428019524,0.08175422,-0.08147534,-0.1842244,0.004880484,-0.006389666,0.9916598,-3.352386,29.47578,-23.17168,1005.832
9.447836876,0.08164504,-0.08146068,-0.06164806,0.002937429,-0.001509396,1.000383,-3.71788,29.09789,-23.54383,1005.832
9.470131397,0.08149134,-0.08168633,-0.1837028,0.0009800342,-0.004950199,0.9912058,-3.71788,29.09789,-23.54383,1005.828
9.489949226,-0.1023753,0.09971499,-0.1834336,2.975296E-05,-0.006894729,0.9945797,-2.982555,29.47255,-23.55309,1005.828
9.509766102,0.02000269,0.4019331,0.0002070591,-0.0009680081,-0.004473342,0.9912189,-2.982555,29.47255,-23.55309,1005.829
9.529583454,-0.1025912,0.09915825,0.0003217906,-0.0004860663,-0.005451704,0.988315,-3.353801,29.46135,-23.93172,1005.829
9.549401283,-0.1025835,0.09911817,-0.06072628,-0.0005024392,-0.00399679,0.9859094,-3.353801,29.46135,-23.93172,1005.83
9.569218159,-0.04145763,-0.02200405,-0.06049704,0.003407294,-0.005918494,0.9882914,-3.353801,29.46135,-23.93172,1005.83
9.589035511,-0.04144968,0.03839292,0.0008749664,0.005343351,-0.003959557,0.9887736,-2.970346,28.74637,-23.16011,1005.831
9.608852863,0.01975332,0.1593029,-0.1823267,3.411784E-05,-0.007380481,0.9950599,-2.970346,28.74637,-23.16011,1005.831
9.628670216,0.01962676,0.1591498,-0.1209753,0.001441261,-0.002521262,0.987837,-2.970346,28.74637,-23.16011,1005.83
9.648487568,-0.1029087,-0.02254094,0.001442105,0.001492552,-0.007862199,0.9940842,-2.981848,29.47976,-23.17307,1005.83
9.668304920,0.1419759,0.2799082,-0.120752,0.002435189,-0.00543426,0.9892647,-2.981848,29.47976,-23.17307,1005.828
9.688122749,0.01940238,0.09816122,-0.05938235,0.003425352,-0.004438972,0.9960218,-4.088418,29.0939,-23.54244,1005.828
9.707939625,0.01935371,0.1584084,-0.05911809,0.003911128,-0.004925723,0.9950513,-4.088418,29.0939,-23.54244,1005.827
9.727756977,0.141945,-0.0838501,-0.05910411,0.002484309,-0.009799005,0.9964821,-4.088418,29.0939,-23.54244,1005.827
9.750051499,0.01934621,0.03689937,-0.1201956,0.003935699,-0.006374779,0.9998705,-3.352386,29.47578,-23.17168,1005.827
9.769868374,0.01933606,0.03684469,0.002296589,0.001934726,-0.0005581577,0.9931538,-3.352386,29.47578,-23.17168,1005.827
9.789686203,-0.04202283,0.03669522,-0.1198805,0.001451099,-0.002514232,0.990733,-3.718588,29.09067,-23.92385,1005.826
9.809503555,-0.1033045,0.09696379,-0.1196754,0.006340558,-0.006870212,0.9911666,-3.718588,29.09067,-23.92385,1005.826
9.829320431,0.01892203,0.157271,0.06401645,-2.228189E-07,-0.001538559,0.9946074,-3.718588,29.09067,-23.92385,1005.827
9.849138260,0.01887454,0.03615452,-0.1806789,0.0009964076,-0.006405114,0.9936116,-2.99335,30.21315,-23.18603,1005.827
9.868955612,-0.1037166,-0.08503753,-0.05801555,0.005359216,-0.002970475,0.9950534,-2.99335,30.21315,-23.18603,1005.826
9.888772488,0.1411893,0.1568089,-0.118898,0.004383255,-0.004444484,0.9916725,-2.982555,29.47255,-23.55309,1005.826
9.908590317,0.07996655,-0.02512297,-0.1187722,0.001963593,-0.006892864,0.9911904,-2.982555,29.47255,-23.55309,1005.827
9.928407669,-0.04250894,-0.02534478,0.003658891,0.004391475,-0.002971993,0.9965067,-2.982555,29.47255,-23.55309,1005.827
9.948224545,0.01867766,0.3376242,-0.1185025,-0.00291224,-0.004971506,0.9907442,-3.723631,29.46458,-23.55031,1005.827
9.968041897,-0.04260268,0.1557704,0.00404305,-1.308043E-06,-0.001050462,0.9950926,-3.723631,29.46458,-23.55031,1005.827
9.987859726,0.07964451,0.03473382,-0.05709111,0.0004888088,-0.003489599,0.9921813,-3.728675,29.83849,-23.17677,1005.826
10.010154247,-0.1041079,-0.1471112,-0.1180348,0.0004937048,-0.004952716,0.9912084,-3.728675,29.83849,-23.17677,1005.826
10.029971123,0.01831289,-0.1471217,0.004605621,-0.0009663682,-0.00447217,0.9917016,-3.728675,29.83849,-23.17677,1005.823
10.049788475,0.07926981,0.1554123,-0.05631886,0.002924289,-0.002985402,0.9941013,-3.352386,29.47578,-23.17168,1005.823
10.069606304,0.01795264,0.0342816,0.005061753,0.005832405,-0.004443964,0.9887684,-3.352386,29.47578,-23.17168,1005.822
10.089423180,-0.04326819,0.0947842,-0.1171798,0.003437361,-0.005408134,0.9979475,-3.71788,29.09789,-23.54383,1005.822
10.109240532,0.01784317,0.09456509,-0.1783169,0.002455396,-0.006397564,0.9936036,-3.71788,29.09789,-23.54383,1005.823
10.129058361,-0.1047263,-0.02664079,0.06647342,0.001966918,-0.003957255,0.9969976,-3.71788,29.09789,-23.54383,1005.823
10.148875713,0.07912175,0.215306,0.005316831,0.003921496,-0.005896057,0.9964942,-3.712955,28.72277,-23.9807,1005.822
10.168692589,0.07915372,0.09411987,-0.1780687,0.004847784,-0.0005465716,0.99169,-3.712955,28.72277,-23.9807,1005.822
10.188510418,0.1403807,0.09399751,0.005616188,0.0009740531,-0.002998986,0.9926639,-2.617062,29.85044,-23.18093,1005.822
10.208327770,0.3240361,0.2150338,-0.1166268,0.0004909798,-0.004465791,0.9912109,-2.617062,29.85044,-23.18093,1005.822
10.228144646,0.07898062,0.03327871,0.005894892,0.001456526,-0.004954713,0.988307,-2.617062,29.85044,-23.18093,1005.821
10.247961998,-0.04376131,0.1542395,-0.05520564,0.00293519,-0.004933101,0.9940913,-3.346635,29.10909,-23.1652,1005.821
10.267779827,0.2622468,-0.02740082,-0.05500945,0.004835729,-0.002510675,0.9849223,-3.346635,29.10909,-23.1652,1005.822
10.290074349,0.1395774,-0.02734247,-0.05485403,0.004877251,-0.003458744,0.9955361,-3.728675,29.83849,-23.17677,1005.822
10.309891224,-0.1055532,-0.08801434,-0.1157444,0.001961422,-0.00591667,0.9921608,-3.728675,29.83849,-23.17677,1005.823
10.329709053,0.01700575,0.1539915,-0.05444498,0.00193251,-0.00251523,0.9892824,-3.728675,29.83849,-23.17677,1005.823
10.349526405,0.200721,0.0933201,-0.1155668,0.005352657,-0.002975162,0.9931226,-3.351561,29.4842,-22.72832,1005.821
10.369343281,-0.1055083,-0.02801559,-0.1153726,0.0009931512,-0.004940825,0.9950672,-3.351561,29.4842,-22.72832,1005.821
10.389160633,0.01697378,0.1535168,-0.1151213,-0.00192919,-0.004470173,0.9946029,-3.351561,29.4842,-22.72832,1005.822
10.408978462,0.01702725,0.03240992,0.007300712,9.546755E-06,-0.005931425,0.9902408,-3.351561,29.4842,-22.72832,1005.822
10.428795338,0.01708058,-0.02827912,-0.1149273,-0.001919375,-0.005929775,0.9950781,-3.351561,29.4842,-22.72832,1005.821
10.448612690,-0.0442727,-0.02839805,-0.05368748,0.001475093,-0.005919188,0.9921634,-2.982555,29.47255,-23.55309,1005.821
10.468430519,0.016899,0.03193902,0.007552184,0.001474584,-0.003475191,0.9960374,-2.982555,29.47255,-23.55309,1005.823
10.488247395,0.01683744,0.2132829,0.007725231,0.005364156,-0.001500327,0.9989223,-3.71788,29.09789,-23.54383,1005.823
10.508064747,-0.0445344,0.0920829,-0.2978953,0.001949414,-0.004947509,0.9902351,-3.71788,29.09789,-23.54383,1005.824
10.527882576,0.01654185,0.03126308,0.008127332,1.936127E-05,-0.007391027,0.9907157,-3.71788,29.09789,-23.54383,1005.824
10.547699928,0.07763764,-0.1504485,0.1306622,0.004382701,-0.004933753,0.9907045,-3.723631,29.46458,-23.55031,1005.82
10.569993973,0.1389018,0.2126918,0.008429028,0.002941725,-0.006395047,0.993601,-3.723631,29.46458,-23.55031,1005.82
10.589811325,-0.0449358,0.2125567,-0.1748491,0.004389282,-0.003462433,0.9950562,-3.71788,29.09789,-23.54383,1005.821
10.609629154,0.0774325,0.09128259,0.008712508,0.003403529,-0.002010209,0.993621,-3.71788,29.09789,-23.54383,1005.821
10.629446507,0.1998587,0.09101548,-0.1135382,-0.001943946,-0.00448072,0.9902589,-3.71788,29.09789,-23.54383,1005.822
10.649263382,-0.04517329,0.03029338,-0.05222517,0.004871801,-0.002484896,0.9955412,-3.723631,29.46458,-23.55031,1005.822
10.669081211,0.1997395,-0.03029548,0.009222083,0.004423091,-0.008326991,0.9969617,-3.723631,29.46458,-23.55031,1005.824
10.688898564,0.2608944,0.1511476,-0.1740966,0.004913785,-0.008810227,0.9974393,-3.71788,29.09789,-23.54383,1005.824
10.708715439,-0.1066809,0.02993271,0.00957834,0.005371755,-0.004917001,0.995526,-3.71788,29.09789,-23.54383,1005.823
10.728533268,-0.0455064,-0.09124383,-0.1739523,0.0087668,-0.002950513,0.9960002,-3.71788,29.09789,-23.54383,1005.823
10.748350620,-0.04552665,-0.1518693,-0.05138265,0.002454865,-0.005420199,0.9950567,-3.723631,29.46458,-23.55031,1005.824
10.768167496,-0.1679946,-0.03082348,0.0710521,0.007319798,-0.005393858,0.9955128,-3.723631,29.46458,-23.55031,1005.824
10.787985325,0.07676525,0.09026035,-0.1734689,0.001986016,-0.005899094,0.9994009,-3.723631,29.46458,-23.55031,1005.827
10.807802677,0.07674552,0.09018578,-0.1733405,0.0024505,-0.004934446,0.9945765,-3.352386,29.47578,-23.17168,1005.827
10.830097199,0.1378582,0.089969,0.01044445,0.002457035,-0.006396392,0.9940864,-3.352386,29.47578,-23.17168,1005.821
10.849915028,0.07664375,0.08976217,0.01059099,-0.004357004,-0.003991147,0.9965494,-3.723631,29.46458,-23.55031,1005.821
10.869731903,0.07658586,-0.03135568,-0.05052136,0.001934149,-0.002514058,0.989765,-3.723631,29.46458,-23.55031,1005.82
10.889549256,-0.1070763,0.1500142,-0.05033707,0.0009991326,-0.006892039,0.9936091,-3.723631,29.46458,-23.55031,1005.82
10.909367085,0.01531345,0.1496945,0.01102858,0.001460936,-0.002507201,0.9936291,-3.722923,29.4718,-23.17029,1005.821
10.929183960,0.07631621,0.1496796,0.01121207,0.00341115,-0.00396025,0.9926456,-3.722923,29.4718,-23.17029,1005.821
10.949001312,-0.04615016,0.02839242,-0.04994015,0.003408425,-0.003473325,0.9926481,-2.987599,29.84646,-23.17955,1005.816
10.968819142,0.3823886,0.02841608,-0.04989158,0.001956526,-0.004453554,0.9931337,-2.987599,29.84646,-23.17955,1005.816
10.988636017,0.07589543,0.1492372,0.01133855,0.004431266,-0.009787764,0.9969541,-2.987599,29.84646,-23.17955,1005.817
11.008453369,0.01466379,0.0885397,-0.04958358,0.001452716,-0.003979692,0.9887947,-3.723631,29.46458,-23.55031,1005.817
11.028271198,-0.1076862,-0.03263196,-0.0495934,-0.0004674539,-0.003482915,0.9970133,-3.723631,29.46458,-23.55031,1005.816
11.048088074,-0.04647064,0.08830444,-0.04950733,0.000496984,-0.004950373,0.9921738,-4.093461,29.46782,-23.1689,1005.816
11.067905426,-0.1078949,-0.09337937,0.1341812,0.004886512,-0.005407614,0.9950435,-4.093461,29.46782,-23.1689,1005.817
11.087723255,-0.107797,0.02751955,-0.04923995,0.003408448,-0.002006694,0.995069,-4.093461,29.46782,-23.1689,1005.817
11.110017777,0.01462854,0.02736589,-0.2326267,0.001473454,-0.005920359,0.9916808,-3.728675,29.83849,-23.17677,1005.813
11.129834652,0.07597902,0.1482466,-0.1712641,-0.0009587475,-0.006422212,0.9907261,-3.728675,29.83849,-23.17677,1005.813
11.149652481,0.07609576,-0.03362559,0.01238444,0.00438598,-0.004931409,0.99167,-3.358137,29.84248,-23.17816,1005.814
11.169469833,0.01474812,0.1476551,-0.1096836,0.001470729,-0.005433435,0.9916834,-3.358137,29.84248,-23.17816,1005.814
11.189287186,0.1372549,-0.09459554,-0.0483802,0.0009986016,-0.005914673,0.9950622,-3.358137,29.84248,-23.17816,1005.814
11.209104538,0.0758691,0.08676217,-0.1705261,0.002949324,-0.00981172,0.9902047,-2.988307,29.83924,-23.55956,1005.814
11.228921890,-0.04663458,0.2075508,-0.04800341,-0.0004767599,-0.004467309,0.9926643,-2.988307,29.83924,-23.55956,1005.813
11.248739243,0.01456233,0.08628926,0.01335634,0.002923158,-0.005430571,0.9897446,-3.711422,28.73841,-23.15733,1005.813
11.268557072,0.01452567,-0.09533244,-0.1088101,0.002894268,-0.0005624979,0.9892871,-3.711422,28.73841,-23.15733,1005.814
11.288373947,0.1369369,0.2072045,-0.2309771,0.005330279,-0.001035667,0.989754,-3.711422,28.73841,-23.15733,1005.814
11.308191300,0.0756095,0.02541208,-0.04733211,0.003411704,-0.003470982,0.9936135,-3.72785,29.84691,-22.73342,1005.809
11.328009129,0.01443605,-0.1562467,-0.108299,-0.0004756746,-0.004955406,0.9921791,-3.72785,29.84691,-22.73342,1005.809
11.347826004,-0.1080479,0.2069369,-0.0469991,0.001939068,-0.002510543,0.991213,-3.722923,29.4718,-23.17029,1005.808
11.370120525,0.0756885,-0.0354894,-0.1080671,0.002938446,-0.00639739,0.9926357,-3.722923,29.4718,-23.17029,1005.808
11.389938355,0.01426507,0.2064225,-0.04676774,0.003911128,-0.004925723,0.9950513,-3.722923,29.4718,-23.17029,1005.809
11.409755707,0.07540509,0.02463207,0.1368562,-0.0004762288,-0.005444674,0.9912112,-3.346635,29.10909,-23.1652,1005.809
11.429572582,0.1364685,0.1455956,0.01464853,3.626593E-05,-0.009823306,0.9916686,-3.346635,29.10909,-23.1652,1005.811
11.449390411,0.01385121,0.145382,-0.04645464,0.003413298,-0.006403076,0.9892543,-3.723631,29.46458,-23.55031,1005.811
11.469207764,0.1363986,0.2055677,-0.2298062,0.0009816515,-0.00641566,0.9892676,-3.723631,29.46458,-23.55031,1005.813
11.489024639,-0.04743267,0.0845199,0.01507501,0.004402907,-0.005897055,0.9950436,-3.723631,29.46458,-23.55031,1005.813
11.508842468,-0.04740959,0.02379499,0.07623816,-0.001434131,-0.005439161,0.9955605,-2.988307,29.83924,-23.55956,1005.808
11.528659821,0.2586077,0.1446657,0.1376508,0.004379444,-0.003469463,0.9921601,-2.988307,29.83924,-23.55956,1005.808
11.548477650,-0.1702338,0.023372,0.01534502,0.005857485,-0.008337017,0.9897136,-2.982555,29.47255,-23.55309,1005.807
11.568294525,0.1359764,0.1444906,-0.10698,0.00342646,-0.003460436,0.9979575,-2.982555,29.47255,-23.55309,1005.807
11.588111878,0.1359041,-0.03727733,0.01549821,1.993822E-05,-0.005435126,0.9941047,-2.982555,29.47255,-23.55309,1005.808
11.607929707,-0.109025,0.02294911,0.01561293,0.003904569,-0.004930411,0.9931206,-3.723631,29.46458,-23.55031,1005.808
11.627746582,0.136048,0.08355618,-0.1065592,0.005377205,-0.00589085,0.9955209,-3.723631,29.46458,-23.55031,1005.806
11.650041104,0.01354279,0.02294045,-0.1675166,0.004383809,-0.003955216,0.9926403,-3.346635,29.10909,-23.1652,1005.806
11.669858933,0.07468464,0.1438703,-0.1062408,0.0004680257,-0.004482197,0.9844535,-3.346635,29.10909,-23.1652,1005.802
11.689676285,0.1359613,-0.03772513,-0.2282797,-0.0004822554,-0.006426726,0.9878275,-3.346635,29.10909,-23.1652,1005.802
11.709493160,0.0748478,0.1436229,0.2000657,0.001965787,-0.006402424,0.992641,-3.359671,29.82684,-24.00153,1005.801
11.729310990,0.1359895,0.2644018,0.07775678,-0.00143524,-0.006417698,0.9936249,-3.359671,29.82684,-24.00153,1005.801
11.749128342,-0.2314644,0.2036052,0.01674464,-0.0004832956,-0.003005365,0.9931544,-3.358845,29.83526,-23.55818,1005.802
11.768945217,0.3194875,0.2035119,-0.04438306,0.001940685,-0.003976003,0.9892749,-3.358845,29.83526,-23.55818,1005.802
11.788763046,0.07428972,-0.1599233,0.01681408,0.001967381,-0.009334517,0.9882817,-3.358845,29.83526,-23.55818,1005.799
11.808580399,0.01292743,-0.03895226,-0.2276283,0.0038833,-0.002012379,0.9916877,-3.346635,29.10909,-23.1652,1005.799
11.828398228,-0.04837693,-0.09951917,0.01715153,0.005826955,-0.003470115,0.9887734,-3.346635,29.10909,-23.1652,1005.8
11.848215580,0.01282425,0.08179402,-0.1049861,0.001476756,-0.004451383,0.9950671,-3.71788,29.09789,-23.54383,1005.8
11.868032456,-0.04830697,-0.09979744,-0.1048568,0.003417708,-0.003955563,0.9945762,-3.71788,29.09789,-23.54383,1005.795
11.887850285,0.1352456,0.02121266,-0.1658136,0.003856558,0.000412869,0.9878389,-3.71788,29.09789,-23.54383,1005.795
11.907667637,0.01268902,-0.09999899,0.1400886,0.0004964301,-0.00543964,0.9912059,-2.612018,29.47653,-23.55447,1005.796
11.929962158,0.07402116,0.02096707,-0.04333366,0.002433064,-0.001524803,0.9950768,-2.612018,29.47653,-23.55447,1005.796
11.949779511,0.07404672,0.3234779,-0.1043106,3.409502E-05,-0.008847114,0.992639,-3.358137,29.84248,-23.17816,1005.795
11.969596863,-0.04852913,0.02065305,-0.2264504,0.0005040967,-0.004456417,0.9950724,-3.358137,29.84248,-23.17816,1005.795
11.989414215,0.01271078,-0.1005381,-0.04274007,0.0004462481,0.000879832,0.9868945,-3.358137,29.84248,-23.17816,1005.797
12.009232044,0.01262122,0.1414612,-0.04267125,0.003424221,-0.006884141,0.9916652,-4.458956,29.08992,-23.54105,1005.797
12.029048920,-0.2324596,-0.04047002,0.01863674,0.005858062,-0.006381117,0.9931024,-4.458956,29.08992,-23.54105,1005.792
12.048866749,-0.04877143,0.01995435,-0.04249579,0.00196962,-0.005910811,0.9945741,-3.723631,29.46458,-23.55031,1005.792
12.068684101,0.07366417,0.2618032,-0.04231238,0.001958143,-0.005919014,0.9911954,-3.723631,29.46458,-23.55031,1005.791
12.088500977,-0.1102212,0.01949397,-0.1644542,-0.0004728811,-0.001042433,0.9994393,-3.723631,29.46458,-23.55031,1005.791
12.108318806,0.01202278,-0.1017134,-0.04194678,0.002431933,-0.003969971,0.9907201,-3.723631,29.46458,-23.55031,1005.793
12.128136158,0.07311068,-0.1621417,-0.0418607,0.002916069,-0.004457894,0.9892671,-3.723631,29.46458,-23.55031,1005.793
12.147953987,-0.04934759,0.2010378,-0.1640421,-4.101545E-06,-0.004963435,0.9878324,-3.723631,29.46458,-23.55031,1005.792
12.167770863,0.07316644,0.07996345,0.1418557,0.003896371,-0.004936269,0.9907072,-2.970346,28.74637,-23.16011,1005.792
12.190065384,0.1954075,0.1404022,0.01947579,0.003915469,-0.006878109,0.9931105,-2.970346,28.74637,-23.16011,1005.795
12.209883213,-0.1109428,0.2007333,-0.1638301,0.004412168,-0.007845925,0.9945508,-3.71788,29.09789,-23.54383,1005.795
12.229700565,-0.110895,0.1401915,-0.102525,0.0009800571,-0.003483566,0.9936267,-3.71788,29.09789,-23.54383,1005.795
12.249517441,0.01148514,0.1400675,-0.1024404,0.001951631,-0.002990436,0.9941067,-3.71788,29.09789,-23.54383,1005.795
12.269335270,0.01134098,0.2004375,0.08116975,0.003389858,-0.002508851,0.9887917,-3.723631,29.46458,-23.55031,1005.792
12.289152622,0.01123565,-0.1023063,-0.04103258,0.004369052,-0.003965762,0.9882962,-3.723631,29.46458,-23.55031,1005.792
12.308970451,-0.050026,-0.0418407,-0.04102554,0.0034057,-0.002986401,0.9926506,-3.71788,29.09789,-23.54383,1005.794
12.328787327,-0.05013095,0.01860618,-0.04090329,0.002402511,0.001875467,0.9917158,-3.71788,29.09789,-23.54383,1005.794
12.348604679,-0.1114499,-0.04199119,-0.1631255,0.002434127,-0.003479531,0.9921708,-3.71788,29.09789,-23.54383,1005.795
12.368422508,0.01093177,0.07891171,0.02046417,1.948094E-06,-0.002514752,0.993637,-4.09992,29.82729,-23.5554,1005.795
12.388239384,0.1333328,0.01825782,-0.1018737,0.004842333,0.0004272773,0.991695,-4.09992,29.82729,-23.5554,1005.797
12.408057213,-0.05068311,-0.1029274,-0.04055141,0.001464724,-0.004948854,0.9907204,-2.61131,29.48375,-23.17446,1005.797
12.427874565,0.1329139,-0.102973,-0.04035354,0.00148657,-0.005910985,0.9955421,-2.61131,29.48375,-23.17446,1005.798
12.447691441,0.01040152,0.07853873,-0.284998,0.005353697,-0.006396524,0.9877957,-2.61131,29.48375,-23.17446,1005.798
12.469986916,-0.1121718,0.01782312,-0.04009987,0.004387619,-0.004930237,0.9921526,-2.988307,29.83924,-23.55956,1005.793
12.489803791,0.01030765,0.07812006,0.02118253,0.0005008399,-0.002992128,0.9965279,-2.988307,29.83924,-23.55956,1005.793
12.509621143,0.1938861,0.1383226,-0.1010804,-0.003417645,-0.001565552,0.9907645,-4.094995,29.45218,-23.99227,1005.792
12.529438973,0.1323773,0.0776335,0.02138304,0.0009784175,-0.003484738,0.993144,-4.094995,29.45218,-23.99227,1005.792
12.549255848,-0.05144409,0.1379703,0.02140617,0.002923712,-0.004941303,0.9907125,-4.094995,29.45218,-23.99227,1005.791
12.569073677,-0.05158399,0.0773201,0.02142911,0.004376165,-0.003471807,0.9911948,-3.352386,29.47578,-23.17168,1005.791
12.588891029,0.1933064,0.0168222,-0.1007768,0.0004937048,-0.004952716,0.9912084,-3.352386,29.47578,-23.17168,1005.79
12.608707905,0.07070012,0.198261,-0.03947656,0.001487124,-0.005421718,0.99651,-3.729383,29.83128,-23.55679,1005.79
12.628525734,0.07059954,0.01673797,-0.1616065,0.001948883,-0.003970144,0.9916883,-3.729383,29.83128,-23.55679,1005.791
12.648343086,0.1317904,0.07707576,0.02199869,-0.0004576615,-0.006409149,0.9950676,-3.729383,29.83128,-23.55679,1005.791
12.668160916,-0.05193342,0.07688227,-0.1001127,0.00634162,-0.008824941,0.9882604,-3.724457,29.45616,-23.99366,1005.792
12.687978268,0.07049099,-0.104697,0.02238672,0.001461468,-0.003484565,0.992176,-3.724457,29.45616,-23.99366,1005.792
12.707796097,-0.05207602,-0.04416841,-0.1610225,-0.0009936416,-0.001069558,0.9893059,-3.347342,29.10187,-23.54522,1005.79
12.730090141,0.008939326,0.1976273,0.02265087,0.003419902,-0.003465123,0.9960269,-3.347342,29.10187,-23.54522,1005.79
12.749907494,0.008936062,0.1974161,-0.1606054,0.003439509,-0.00785096,0.9945561,-3.347342,29.10187,-23.54522,1005.791
12.769725323,0.2539052,-0.1659658,-0.09923175,0.0004800796,-0.002518094,0.991221,-4.094995,29.45218,-23.99227,1005.791
12.789542198,0.1311852,0.1365206,-0.09913622,0.003898588,-0.002979197,0.9945786,-4.094995,29.45218,-23.99227,1005.789
12.809359551,-0.05263315,0.1364627,-0.1601841,0.002415605,0.0004182081,0.9931561,-3.71213,28.73119,-23.53735,1005.789
12.829177380,-0.114042,0.07579738,-0.03751474,0.004406763,-0.003938811,0.9993978,-3.71213,28.73119,-23.53735,1005.79
12.848994732,0.008519046,0.1362908,-0.03738218,0.002934104,-0.004445004,0.9945764,-3.71213,28.73119,-23.53735,1005.79
12.868812561,-0.05265898,0.07570174,-0.09833559,0.003864202,-7.053977E-05,0.9892844,-3.346635,29.10909,-23.1652,1005.792
12.888629437,0.06982481,-0.04551375,0.02398659,0.006823099,-0.004426041,0.9940726,-3.346635,29.10909,-23.1652,1005.792
12.908447266,0.06966869,0.1360247,-0.0369674,-1.444784E-05,-0.00252647,0.9888102,-3.722923,29.4718,-23.17029,1005.792
12.928264618,0.1920761,0.1359112,-0.1591803,0.005855359,-0.00442756,0.9955258,-3.722923,29.4718,-23.17029,1005.792
12.948081494,0.008297026,0.1357408,-0.03655176,0.0009565488,-0.00398924,0.9859015,-3.722923,29.4718,-23.17029,1005.788
12.967899323,0.06935587,0.135609,0.08580735,0.0005155511,-0.005914846,0.9960302,-4.093461,29.46782,-23.1689,1005.788
12.987716675,0.06914334,0.01439512,0.02465984,-0.0004663686,-0.003971011,0.9965281,-4.093461,29.46782,-23.1689,1005.789
13.010011673,0.06908257,-0.04619617,0.02480146,0.003921496,-0.005896057,0.9964942,-3.353919,29.46014,-23.99505,1005.789
13.029829025,-0.05355784,0.1353059,0.08593999,0.001427105,0.0008907249,0.9893026,-3.353919,29.46014,-23.99505,1005.789
13.049645901,0.007675469,-0.04636301,-0.0362359,0.0009833134,-0.004947856,0.9921711,-3.353919,29.46014,-23.99505,1005.789
13.069463730,-0.05365406,0.1352535,0.08616073,0.005849864,-0.006386976,0.990689,-2.605559,29.11705,-23.16797,1005.79
13.089281082,-0.1150411,0.0744962,0.0250124,0.0009953445,-0.004450385,0.9965177,-2.605559,29.11705,-23.16797,1005.79
13.109098911,0.007522441,0.134708,-0.0361169,0.001481097,-0.006403769,0.9931262,-3.358137,29.84248,-23.17816,1005.792
13.128915787,0.1299513,0.07400896,0.02505946,0.003895308,-0.002981541,0.9936133,-3.358137,29.84248,-23.17816,1005.792
13.148733616,-0.1150781,0.01336738,-0.03595472,0.003419902,-0.003465123,0.9960269,-3.358137,29.84248,-23.17816,1005.789
13.168550968,0.007197224,0.1343212,-0.03565326,0.00390189,-0.001510221,0.9979649,-3.352386,29.47578,-23.17168,1005.789
13.188367844,0.007159941,-0.1077629,0.02559867,0.002949369,-0.006878455,0.9950466,-3.352386,29.47578,-23.17168,1005.788
13.208185673,0.06829856,0.0130963,-0.03549372,0.002460315,-0.006394048,0.9950517,-3.347342,29.10187,-23.54522,1005.788
13.228003025,0.06808855,-0.04750631,0.02571941,4.178402E-05,-0.006397258,0.9989263,-3.347342,29.10187,-23.54522,1005.787
13.247820854,0.006703377,0.1944929,-0.03545008,0.001925442,-7.592025E-05,0.9912256,-3.347342,29.10187,-23.54522,1005.787
13.270115376,0.006511562,0.01289944,0.08693663,0.002917731,-0.00299009,0.9921706,-3.353919,29.46014,-23.99505,1005.786
13.289932251,0.1287892,-0.04758865,-0.03539537,0.001474562,-0.004941823,0.9936165,-3.353919,29.46014,-23.99505,1005.786
13.309750080,0.0673862,-0.04771601,-0.03517216,0.004864112,-0.004934751,0.9892539,-3.352386,29.47578,-23.17168,1005.786
13.329567432,0.06740923,0.01257464,-0.03487267,-0.0009663454,-0.003005538,0.9941226,-3.352386,29.47578,-23.17168,1005.786
13.349385262,0.06743233,-0.04814057,0.0263965,-0.002911732,-0.007415503,0.9868703,-3.352386,29.47578,-23.17168,1005.787
13.369202137,-0.0550885,-0.2297097,0.08755022,0.00050352,-0.006412318,0.9916836,-3.722923,29.4718,-23.17029,1005.787
13.389019966,0.1285772,0.3147977,-0.1569356,0.003905655,-0.005418506,0.9926354,-3.722923,29.4718,-23.17029,1005.789
13.408837319,0.005825959,-0.04848007,-0.03446615,0.001954887,-0.004454725,0.992651,-3.722923,29.4718,-23.17029,1005.789
13.428655148,-0.05549907,0.0121543,-0.09556125,0.004366859,-0.004456202,0.9868457,-3.353093,29.46856,-23.5517,1005.786
13.448472023,-0.1168046,0.01206687,0.02683077,-0.0009707559,-0.00545305,0.9888005,-3.353093,29.46856,-23.5517,1005.786
13.468289852,-0.05562378,0.133005,-0.09542717,0.002942833,-0.00541651,0.9955367,-3.722923,29.4718,-23.17029,1005.785
13.488107205,0.1281202,0.01189264,0.02692624,0.002399741,-0.000570874,0.9868764,-3.722923,29.4718,-23.17029,1005.785
13.507924080,-0.1782535,0.01203382,0.02701213,-0.0009658369,-0.005449534,0.9902486,-3.722923,29.4718,-23.17029,1005.786
13.527741909,-0.05583873,0.07245934,0.02709787,0.001973985,-0.006396565,0.9950544,-4.094169,29.4606,-23.54892,1005.786
13.550036430,-0.05614232,0.07246373,0.0270597,0.006820906,-0.004916482,0.992622,-4.094169,29.4606,-23.54892,1005.786
13.569854260,-0.05621283,0.01180708,-0.03417066,-0.0004811019,-0.002514925,0.994605,-3.346635,29.10909,-23.1652,1005.786
13.589671612,0.005007997,0.01175846,0.08825921,0.003883254,-0.004945644,0.9868459,-3.346635,29.10909,-23.1652,1005.783
13.609488487,0.06622887,0.1325455,-0.03399938,0.001463062,-0.006416659,0.9878169,-3.346635,29.10909,-23.1652,1005.783
13.629306317,-0.1175609,0.07194693,-0.03393324,0.002434635,-0.005923528,0.9882967,-3.71788,29.09789,-23.54383,1005.784
13.649123669,-0.05610924,-0.1702085,0.0885153,-0.0004849804,-0.0059398,0.98783,-3.71788,29.09789,-23.54383,1005.784
13.668941498,0.004996024,0.1929341,0.02743787,0.002920456,-0.003477014,0.9921681,-3.728675,29.83849,-23.17677,1005.786
13.688758373,0.004945025,0.1321839,-0.09466793,0.00244177,-0.003962941,0.9936162,-3.728675,29.83849,-23.17677,1005.786
13.708576203,0.0048749,0.01124447,0.0277219,0.001435811,-0.001547413,0.987842,-3.728675,29.83849,-23.17677,1005.786
13.728393555,0.1273295,0.1321467,-0.1557007,0.0009696882,-0.002513233,0.9921837,-3.353093,29.46856,-23.5517,1005.786
13.748211384,0.06600714,-0.1704638,0.02796634,0.001435303,0.0008965839,0.991716,-3.353093,29.46856,-23.5517,1005.781
13.768028259,0.1883083,0.07148317,-0.03322802,0.0009734989,-0.003488253,0.9916961,-3.353093,29.46856,-23.5517,1005.781
13.787846089,-0.05671387,0.01096201,0.02796023,0.00441764,-0.007353142,0.9969667,-3.353093,29.46856,-23.5517,1005.784
13.807663441,-0.05684059,-0.1101858,0.02798603,0.001437428,-0.003012874,0.9859039,-3.353093,29.46856,-23.5517,1005.784
13.829957962,0.004303575,0.01075193,-0.1553117,-0.001964662,-0.00107342,0.9897938,-3.352386,29.47578,-23.17168,1005.781
13.849775791,0.004292682,0.01061101,-0.1551521,0.002456481,-0.00688566,0.9931184,-3.352386,29.47578,-23.17168,1005.781
13.869592667,0.3715866,0.1314768,-0.2163089,0.001465301,-0.002992953,0.9941093,-3.353093,29.46856,-23.5517,1005.78
13.889410496,0.003906392,-0.05016338,-0.03283527,-1.772679E-05,-0.002528813,0.9878449,-3.353093,29.46856,-23.5517,1005.78
13.909227848,0.003742851,-0.1105881,-0.03281051,0.002920456,-0.003477014,0.9921681,-3.353093,29.46856,-23.5517,1005.777
13.929045677,0.126162,0.01050593,0.02841508,0.0004953675,-0.003484911,0.9941121,-3.352386,29.47578,-23.17168,1005.777
13.948862553,0.1262296,0.01049856,-0.09382764,0.0005302618,-0.008837566,0.9955323,-3.352386,29.47578,-23.17168,1005.779
13.968680382,0.06500601,0.3734915,-0.09364973,0.006802938,-0.0005294734,0.9945753,-3.353093,29.46856,-23.5517,1005.779
13.988497734,-0.1188384,0.009990498,0.02864159,-0.0005045873,-0.001553965,0.9893007,-3.353093,29.46856,-23.5517,1005.78
14.008315563,0.003580928,-0.05058528,-0.1547832,-0.0004631344,-0.006901932,0.9926517,-3.353093,29.46856,-23.5517,1005.78
14.028132439,-0.1801669,0.07032017,0.08987125,-0.001458657,-0.001056842,0.9955832,-2.612018,29.47653,-23.55447,1005.781
14.047950268,0.06479649,0.07008654,0.1511344,-1.884997E-06,-0.003006363,0.9917039,-2.612018,29.47653,-23.55447,1005.781
14.067767620,0.06451856,0.06987262,-0.0934149,-0.000971287,-0.004475686,0.9902536,-3.358845,29.83526,-23.55818,1005.78
14.090062141,0.06447081,-0.1119387,-0.09338149,-0.0004805934,-0.004958922,0.990731,-3.358845,29.83526,-23.55818,1005.78
14.109879971,0.06453961,0.009006768,0.02917787,0.001471859,-0.002988266,0.99604,-3.358845,29.83526,-23.55818,1005.78
14.129696846,0.00333634,0.008889221,-0.09306675,0.002928054,-0.006893689,0.9887717,-2.981848,29.47976,-23.17307,1005.78
14.149514675,0.003424071,0.1298544,0.02929991,0.005366768,-0.009320415,0.9868152,-2.981848,29.47976,-23.17307,1005.777
14.169332027,0.00345391,0.2508006,-0.03182094,-0.003398524,-0.002040758,0.9955888,-3.71788,29.09789,-23.54383,1005.777
14.189149857,0.1258352,0.06908871,0.02936377,-1.907814E-06,-0.004472995,0.9892829,-3.71788,29.09789,-23.54383,1005.779
14.208966732,0.06449717,-0.1126228,0.02953968,-0.000480616,-0.006425554,0.98831,-3.71788,29.09789,-23.54383,1005.779
14.228784561,-0.05797794,0.00841935,0.02958069,0.001985971,-0.00883236,0.994559,-3.358845,29.83526,-23.55818,1005.78
14.248601914,-0.119162,0.06879692,-0.03152165,0.00488538,-0.007852782,0.9906867,-3.358845,29.83526,-23.55818,1005.78
14.268419743,-0.1190358,-0.05247705,-0.03153846,0.005853166,-0.004917999,0.9940754,-3.722923,29.4718,-23.17029,1005.782
14.288236618,-0.05786867,0.12887,-0.09264097,0.003905677,-0.003951875,0.9950563,-3.722923,29.4718,-23.17029,1005.782
14.308054447,-0.05791561,0.06816669,0.02976289,0.0009811197,-0.005438295,0.9907205,-3.722923,29.4718,-23.17029,1005.785
14.327871800,0.06458142,-0.1135614,0.09094658,0.0005079072,-0.005431437,0.9945846,-3.722216,29.47902,-22.79027,1005.785
14.347689629,0.1870016,0.007331252,-0.09242362,-0.0009532517,-0.004462796,0.9955629,-3.722216,29.47902,-22.79027,1005.785
14.369984150,0.003099829,0.007215649,0.03012384,0.001967981,-0.005911983,0.9940916,-3.346635,29.10909,-23.1652,1005.785
14.389801025,-0.05823756,0.128147,-0.03094155,0.0009915114,-0.004941997,0.9945844,-3.346635,29.10909,-23.1652,1005.786
14.409618855,0.06427953,0.1279582,-0.09196872,-0.001455378,-0.001054498,0.9965485,-3.346635,29.10909,-23.1652,1005.786
14.429436207,-0.05825268,0.006763414,-0.09181458,0.002436829,-0.005433089,0.9897473,-3.347342,29.10187,-23.54522,1005.781
14.449254036,-0.1194744,0.1879807,0.09186488,0.009272182,-0.0078231,0.993559,-3.347342,29.10187,-23.54522,1005.781
14.469070912,0.1254713,0.1877176,-0.09148835,0.005361941,-0.003457399,0.9950509,-3.717173,29.1051,-23.16381,1005.783
14.488888741,0.1254638,-0.05457653,0.09209434,0.003875633,-0.002995602,0.9878212,-3.717173,29.1051,-23.16381,1005.783
14.508706093,0.002931692,0.06647182,-0.1524604,-0.001955378,-0.001555657,0.991722,-3.717173,29.1051,-23.16381,1005.784
14.528523922,0.002712838,-0.05462557,-0.02996393,0.001439644,-0.001055802,0.9897752,-3.347342,29.10187,-23.54522,1005.784
14.548341274,-0.119857,0.1873535,-0.1521177,1.885253E-05,-0.00494703,0.9945897,-3.347342,29.10187,-23.54522,1005.785
14.568158627,0.06381757,0.005534992,0.03150218,-0.0009598101,-0.004467483,0.9936323,-3.352386,29.47578,-23.17168,1005.785
14.587975979,0.1249484,0.06599577,-0.09076752,0.003884385,-0.002500475,0.9912025,-3.352386,29.47578,-23.17168,1005.78
14.607793808,-0.0591041,-0.05506224,-0.09065482,0.002922627,-0.004453207,0.9911977,-3.352386,29.47578,-23.17168,1005.78
14.630088329,0.002353869,0.2474288,-0.1516572,0.00342041,-0.00590912,0.9921529,-2.982555,29.47255,-23.55309,1005.78
14.649906159,0.06360063,0.005288608,-0.09036367,0.001960891,-0.004939307,0.9936138,-2.982555,29.47255,-23.55309,1005.78
14.669723034,0.06351774,0.06565509,0.03207291,0.001978881,-0.007859681,0.9940815,-2.612018,29.47653,-23.55447,1005.781
14.689540863,0.002240129,-0.05540217,0.03204999,0.004396348,-0.005901743,0.9931129,-2.612018,29.47653,-23.55447,1005.781
14.709358215,-0.05899891,0.005116738,-0.02905856,0.0009664318,-0.001048944,0.9936393,-2.612018,29.47653,-23.55447,1005.78
14.729176045,0.002075143,0.005065881,-0.02896643,-3.502006E-06,-0.001540903,0.9936421,-3.717173,29.1051,-23.16381,1005.78
14.748992920,0.06328414,-0.05549754,0.03228795,0.0004964527,-0.003973008,0.9936268,-3.717173,29.1051,-23.16381,1005.783
14.768810749,0.06325985,0.004964642,-0.02887884,0.004872863,-0.004439624,0.9926351,-3.717173,29.1051,-23.16381,1005.783
14.788628102,-0.05911607,0.004857272,-0.1511887,0.002923667,-0.007874568,0.9858707,-3.346635,29.10909,-23.1652,1005.783
14.808445931,0.00195834,-0.1165032,0.03244787,0.002451077,-0.002978545,0.9979653,-3.346635,29.10909,-23.1652,1005.783
14.828263283,-0.05941467,0.06521341,0.03244322,-0.0004593013,-0.006410321,0.9945849,-3.358845,29.83526,-23.55818,1005.784
14.848080635,0.0630092,0.06506867,-0.151068,-0.001950437,-8.550938E-05,0.9955909,-3.358845,29.83526,-23.55818,1005.784
14.867897988,0.001617454,-0.05600613,-0.2732248,3.03355E-06,-0.003002848,0.9931518,-3.358845,29.83526,-23.55818,1005.781
14.887715817,0.1240418,0.06493197,-0.08970411,0.001947289,-0.001038051,0.9960474,-2.617062,29.85044,-23.18093,1005.781
14.910010338,-0.05985516,0.06486256,-0.08948922,0.006312222,-0.00151287,0.991677,-2.617062,29.85044,-23.18093,1005.779
14.929828167,-0.05991632,0.06473764,-0.08945648,0.002444473,-0.005916498,0.9911928,-3.347342,29.10187,-23.54522,1005.779
14.949645043,0.001275338,0.1857144,0.0942364,0.0009877011,-0.003966976,0.9950722,-3.347342,29.10187,-23.54522,1005.78
14.969462872,0.1235468,-0.05646081,-0.08931479,-0.001436325,-0.005929601,0.9941101,-3.347342,29.10187,-23.54522,1005.78
14.989280224,-0.06021398,0.3065673,0.03319599,0.001444009,-0.001541554,0.9902554,-3.358137,29.84248,-23.17816,1005.781
15.009098053,0.1234646,0.1248104,-0.1503171,0.0009669403,-0.003492941,0.9897653,-3.358137,29.84248,-23.17816,1005.781
15.028914928,0.1233468,0.06419314,-0.08900765,0.005355936,-0.002972818,0.9940881,-2.982555,29.47255,-23.55309,1005.779
15.048732758,0.1843859,0.00355728,0.03346395,0.003924199,-0.007849613,0.9940709,-2.982555,29.47255,-23.55309,1005.779
15.068550110,0.1842498,0.06404208,-0.1498195,0.0004969614,-0.006417005,0.9897528,-2.982555,29.47255,-23.55309,1005.78
15.088367939,0.0004902557,0.06405222,-0.08858807,0.002923735,-0.003474671,0.9931334,-4.098505,29.84173,-22.79536,1005.78
15.108185291,0.06164563,0.00351166,-0.02726072,0.0009860159,-0.006901413,0.9897476,-4.098505,29.84173,-22.79536,1005.781
15.128002644,0.0002765283,-0.05697181,0.0340661,-0.0004985603,-0.0005719138,0.9926844,-2.976805,29.10585,-23.5466,1005.781
15.147819996,0.06131706,0.0035889,0.03415339,-0.002396421,-0.006414529,0.9970089,-2.976805,29.10585,-23.5466,1005.781
15.167637825,0.1223965,0.00361792,0.03425962,0.003902907,-0.006398215,0.990217,-2.976805,29.10585,-23.5466,1005.781
15.189932346,-0.06161092,-0.05690498,-0.1490558,0.0004904033,-0.006421692,0.9878222,-3.728675,29.83849,-23.17677,1005.779
15.209750176,0.06087608,0.1850227,0.03453697,-0.001921546,-0.004953583,0.9960485,-3.728675,29.83849,-23.17677,1005.779
15.229567051,0.0607809,0.1242924,-0.02665466,0.002438514,-0.002498652,0.9950718,-3.723631,29.46458,-23.55031,1005.78
15.249384880,0.06072433,0.003334805,-0.02658778,0.004405078,-0.006873249,0.9940733,-3.723631,29.46458,-23.55031,1005.78
15.269202232,-0.06177969,-0.05728132,-0.1487692,0.001951631,-0.002990436,0.9941067,-3.723631,29.46458,-23.55031,1005.781
15.289020062,-0.0007177964,0.003223285,-0.1486453,0.001459274,-0.003975005,0.9907254,-2.982555,29.47255,-23.55309,1005.781
15.308836937,0.06045978,0.1242026,0.0348314,-0.0005073124,-0.001067041,0.9893032,-2.982555,29.47255,-23.55309,1005.782
15.328654766,-0.0008294284,0.003093384,-0.1485898,0.006819843,-0.002961753,0.9955281,-3.717173,29.1051,-23.16381,1005.782
15.348472118,0.06040608,0.4266556,-0.2707337,-3.547641E-06,-0.004474167,0.9888002,-3.717173,29.1051,-23.16381,1005.778
15.368289948,-0.06221244,0.1238567,-0.148305,0.003877827,-0.002505162,0.9892718,-3.717173,29.1051,-23.16381,1005.778
15.388107300,0.1214712,-0.1184101,-0.02578048,0.00390129,-0.004932754,0.9921553,-3.347342,29.10187,-23.54522,1005.779
15.407924652,-0.001108572,0.1841089,-0.0869358,0.005344991,-0.003958385,0.9892563,-3.347342,29.10187,-23.54522,1005.779
15.427742481,-0.001240402,0.1235328,-0.02572784,0.00191833,-0.0005698756,0.988327,-4.093461,29.46782,-23.1689,1005.78
15.450037003,0.1210762,0.1236397,-0.02555926,0.003414406,-0.00542454,0.99119,-4.093461,29.46782,-23.1689,1005.78
15.469854355,-0.001521699,0.06293054,-0.08663838,0.004404015,-0.004918519,0.9969793,-4.093461,29.46782,-23.1689,1005.776
15.489672184,-0.00151787,-0.05815785,-0.02527763,0.00289048,0.001879155,0.9921957,-3.71213,28.73119,-23.53735,1005.776
15.509490013,-0.001494855,0.06288064,-0.147328,0.005336838,-0.001030979,0.9916848,-3.71213,28.73119,-23.53735,1005.777
15.529306889,-0.001625605,0.002400033,-0.02490191,0.004841779,-6.199093E-05,0.990727,-3.347342,29.10187,-23.54522,1005.777
15.549124718,0.1820405,-0.05817557,-0.1471067,0.005373926,-0.005893194,0.9945556,-3.347342,29.10187,-23.54522,1005.777
15.568942070,0.05932797,-0.05835242,0.03640448,0.004390367,-0.003950529,0.994571,-3.347342,29.10187,-23.54522,1005.777
15.588759899,-0.002054431,0.06259145,-0.02463822,0.007291947,-0.003947146,0.9897283,-3.35743,29.84969,-22.79814,1005.772
15.608576775,0.05924187,-0.05855309,-0.02469149,0.001468026,-0.003479877,0.9941068,-3.35743,29.84969,-22.79814,1005.772
15.628394604,0.05903546,-0.05855797,-0.08598395,-0.001439604,-0.005931945,0.9931446,-3.718706,29.08947,-23.98718,1005.773
15.648211956,0.1813928,0.001911834,-0.02472079,0.001942324,-0.003974832,0.9897575,-3.718706,29.08947,-23.98718,1005.773
15.668029785,-0.0635545,0.06241976,-0.08587879,0.003414429,-0.003957907,0.9936109,-3.718706,29.08947,-23.98718,1005.772
15.687846661,-0.06358713,0.1228708,-0.08570154,0.0005062679,-0.005432609,0.9941021,-3.723631,29.46458,-23.55031,1005.772
15.707664490,-0.06346585,-0.1193556,0.03660811,0.00777285,-0.001504148,0.9921517,-3.723631,29.46458,-23.55031,1005.775
15.729959011,-0.002264492,-0.05888563,0.03669671,0.008273867,-0.005890982,0.9892303,-3.728675,29.83849,-23.17677,1005.775
15.749776840,-0.06343467,0.183161,-0.08550918,7.906929E-06,-0.005932597,0.989758,-3.728675,29.83849,-23.17677,1005.775
15.769594193,-0.002253383,-0.05891283,0.03685757,0.002947706,-0.00834626,0.9921429,-3.728675,29.83849,-23.17677,1005.775
15.789412022,-0.06355809,0.00169076,0.2205019,0.001467449,-0.005435779,0.9907179,-3.71788,29.09789,-23.54383,1005.778
15.809229851,-0.002338052,0.2436234,-0.02408713,-0.000472904,-0.002509066,0.9970184,-3.71788,29.09789,-23.54383,1005.778
15.829046726,-0.06360406,0.06196745,0.0371934,0.005838455,-0.001995281,0.9945731,-2.987599,29.84646,-23.17955,1005.774
15.848864556,-0.124774,-0.1801249,-0.02383211,0.001457657,-0.002509544,0.9926637,-2.987599,29.84646,-23.17955,1005.774
15.868681908,0.1200695,-0.05898918,-0.0848771,0.005353188,-0.003952526,0.9916697,-2.987599,29.84646,-23.17955,1005.781
15.888499737,-0.06368254,0.3039502,-0.1460376,-3.139791E-05,-0.003027455,0.9830157,-2.612018,29.47653,-23.55447,1005.781
15.908316612,0.05867518,-0.05918641,0.0376244,-0.0009478473,-0.00836991,0.990716,-2.612018,29.47653,-23.55447,1005.779
15.928134442,-0.002724789,0.001247004,-0.02351736,0.001001349,-0.004934966,0.9974806,-2.976805,29.10585,-23.5466,1005.779
15.947951794,-0.06416281,0.1221744,-0.08446723,0.002927569,-0.002983059,0.9950666,-2.976805,29.10585,-23.5466,1005.778
15.967769623,0.05836905,0.0009752363,0.09911696,0.001966895,-0.005423887,0.9945766,-2.976805,29.10585,-23.5466,1005.778
15.990064144,0.05828109,0.000934504,-0.0231232,0.003922604,-0.004917521,0.9984301,-3.347342,29.10187,-23.54522,1005.779
16.009881973,-0.003040984,-0.05965645,-0.1454284,0.0005133573,-0.006405287,0.9945796,-3.347342,29.10187,-23.54522,1005.779
16.029698849,-0.002975717,0.1218605,-0.08420804,-0.001438541,-0.007886673,0.9902386,-3.352386,29.47578,-23.17168,1005.778
16.049516678,0.05822679,0.1216116,-0.02275743,-0.0009548911,-0.004463968,0.9950803,-3.352386,29.47578,-23.17168,1005.778
16.069334507,0.05821508,0.06098347,0.03857739,0.002459229,-0.005905951,0.9955369,-3.352386,29.47578,-23.17168,1005.778
16.089151859,0.1806704,0.06092539,-0.08372927,-0.0009330907,-0.008359363,0.9950602,-3.352386,29.47578,-23.17168,1005.778
16.108969688,-0.003233761,-0.1206516,-0.02262539,0.004387065,-0.005419506,0.9911847,-3.352386,29.47578,-23.17168,1005.779
16.128786564,-0.06465131,0.1818159,-0.02245343,-0.0004762514,-0.006911307,0.9887903,-3.352386,29.47578,-23.17168,1005.779
16.148604393,-0.12578,-0.06033052,-0.1447027,0.003898565,-0.004445829,0.9921578,-3.345927,29.1163,-22.78518,1005.776
16.168421745,0.05785175,0.1814539,-0.02218735,-0.002929168,-0.00400586,0.9873706,-3.345927,29.1163,-22.78518,1005.776
16.188239574,0.05784103,0.06033377,0.1002317,-5.672919E-06,-0.0005647098,0.9946124,-3.347342,29.10187,-23.54522,1005.778
16.208057404,-0.1261199,0.06023936,-0.0219993,0.002439577,-0.00445338,0.9921657,-3.347342,29.10187,-23.54522,1005.778
16.227874279,-0.1260915,0.1811326,-0.1442498,0.001947752,-0.006415314,0.9873315,-3.347342,29.10187,-23.54522,1005.779
16.247692108,-0.003769331,-0.1216198,-0.02181225,0.002445027,-0.00542723,0.9921607,-3.722923,29.4718,-23.17029,1005.779
16.269986630,0.1184969,-0.0006878302,0.1616599,-0.001952144,-0.004486579,0.9878455,-3.722923,29.4718,-23.17029,1005.779
16.289804459,-0.004248261,0.1201684,-0.02173418,0.0004958988,-0.004462276,0.992659,-3.722923,29.4718,-23.17029,1005.779
16.309621811,0.1180756,-0.001006812,-0.02173725,-0.00437176,-0.004001692,0.9922053,-3.722923,29.4718,-23.17029,1005.782
16.329439640,0.05668027,0.1199451,-0.266275,0.000966409,-0.002515577,0.9912183,-3.722923,29.4718,-23.17029,1005.782
16.349256516,-0.004618637,-0.06176113,0.1008307,1.280289E-05,-0.007395715,0.9887851,-4.093461,29.46782,-23.1689,1005.78
16.369074345,0.1790166,-0.1223467,-0.2050619,-1.229951E-05,-0.004969294,0.985419,-4.093461,29.46782,-23.1689,1005.78
16.388892174,-0.06611688,-0.06194472,-0.02152039,0.008284235,-0.006861316,0.9906732,-2.988307,29.83924,-23.55956,1005.783
16.408709526,0.1174612,0.119445,0.1009737,-0.0004974979,-0.002526643,0.9897783,-2.988307,29.83924,-23.55956,1005.783
16.428527355,-0.005300529,-0.1227347,-0.02127843,0.001468512,-0.007390507,0.9878119,-2.988307,29.83924,-23.55956,1005.785
16.448344231,-0.005364217,-0.06223676,0.03989909,0.00195872,-0.003963114,0.9945842,-2.98114,29.48698,-22.79305,1005.785
16.468162060,0.0559596,-0.0623464,0.04004843,0.003437383,-0.003941501,1.000368,-2.98114,29.48698,-22.79305,1005.787
16.487979412,-0.005260631,0.05875961,-0.0210802,0.002917177,-0.003479358,0.9912027,-3.723631,29.46458,-23.55031,1005.787
16.507797241,-0.005266689,0.1192388,-0.08217052,-0.0009570851,-0.004954408,0.9936298,-3.723631,29.46458,-23.55031,1005.788
16.530091763,-0.1890099,-0.00204736,-0.02089117,0.001932555,0.0004180351,0.9941243,-3.723631,29.46458,-23.55031,1005.788
16.549909592,-0.005315363,0.05843247,0.04026619,0.00631437,-0.003955695,0.9882855,-3.728675,29.83849,-23.17677,1005.79
16.569726944,-0.06659316,-0.002321921,-0.08204466,-0.001459811,-0.004968643,0.9888057,-3.728675,29.83849,-23.17677,1005.79
16.589544296,-0.06650285,-0.06280982,-0.02090651,-0.003405105,-0.003512077,0.9912372,-3.352386,29.47578,-23.17168,1005.787
16.609362126,-0.005352303,0.05822124,0.1014325,0.005370093,-0.006384806,0.9926224,-3.352386,29.47578,-23.17168,1005.787
16.629179478,-0.06670683,-0.1233491,-0.1431649,-0.002456972,0.0008752767,0.9912545,-3.352386,29.47578,-23.17168,1005.792
16.648997307,-0.005478829,0.1186885,0.04037479,0.003883831,-0.002989743,0.9902346,-3.348168,29.09345,-23.98857,1005.792
16.668814182,0.1781008,0.05821964,-0.02062027,0.00144073,-0.001543898,0.9892901,-3.348168,29.09345,-23.98857,1005.788
16.688632012,0.05557101,-0.1838633,-0.02054928,0.00581878,-0.002009342,0.988781,-3.352386,29.47578,-23.17168,1005.788
16.708449841,0.05564287,0.05815525,-0.08175617,0.001002434,-0.005423062,0.9969953,-3.352386,29.47578,-23.17168,1005.791
16.728267193,-0.189277,0.1792435,0.04067799,-0.0004767599,-0.004467309,0.9926643,-3.352386,29.47578,-23.17168,1005.791
16.748085022,-0.005447492,0.05801506,-0.2650061,0.0004762465,-0.003009705,0.9892879,-3.358845,29.83526,-23.55818,1005.79
16.767901898,-0.00558757,0.178857,0.04106835,0.001483845,-0.005424061,0.9955447,-3.358845,29.83526,-23.55818,1005.79
16.787719727,0.05571756,0.05785732,-0.01992846,0.003878912,-0.002993259,0.9887865,-4.094287,29.4594,-23.61226,1005.79
16.810014248,0.05569469,-0.0634453,-0.0198721,-0.00144069,-0.005443849,0.9936299,-4.094287,29.4594,-23.61226,1005.79
16.829832077,0.05563175,0.1179672,-0.01995665,0.007302871,-0.004428212,0.9921392,-4.094287,29.4594,-23.61226,1005.793
16.849649906,-0.005529992,0.05751914,-0.08103058,0.002917177,-0.003479358,0.9912027,-3.71788,29.09789,-23.54383,1005.793
16.869466782,0.1170469,-0.003043018,-0.2032481,0.001948328,-0.004459413,0.9907203,-3.71788,29.09789,-23.54383,1005.794
16.889284611,0.1169644,0.118047,0.04160499,0.001459828,-0.003485736,0.9916934,-3.358137,29.84248,-23.17816,1005.794
16.909101963,0.05566783,0.05742788,-0.08070923,0.005356445,-0.005416815,0.9902141,-3.358137,29.84248,-23.17816,1005.796
16.928919792,-0.06682355,-0.003229,-0.08050652,2.100086E-05,-0.007389856,0.9911985,-3.358137,29.84248,-23.17816,1005.796
16.948737622,0.0557344,-0.003258891,-0.08028513,-0.001931407,-0.006427246,0.9907314,-3.358137,29.84248,-23.17816,1005.798
16.968554497,-0.005523659,0.1177936,-0.01899792,0.0004937276,-0.003486083,0.9936293,-3.358137,29.84248,-23.17816,1005.798
16.988372326,0.1170532,0.05713722,0.04221227,0.0004828274,-0.001538386,0.9936394,-3.359671,29.82684,-24.00153,1005.799
17.008189678,-0.1280784,0.05706973,0.1033455,-0.003393142,-0.007414504,0.9883209,-3.359671,29.82684,-24.00153,1005.799
17.028007507,-0.06683093,0.1778948,-0.08011338,0.002952671,-0.005409479,0.9984328,-3.359671,29.82684,-24.00153,1005.8
17.047825336,0.1168066,0.1173534,-0.08020014,-0.0004691386,-0.006417351,0.9916889,-2.987599,29.84646,-23.17955,1005.8
17.070119858,0.05553138,-0.003813498,0.0422746,0.002437937,-0.004454552,0.9916831,-2.987599,29.84646,-23.17955,1005.795
17.089937687,0.05544955,-0.003804006,-0.07990684,0.002425352,-0.005441291,0.9863685,-3.717999,29.09668,-23.60716,1005.795
17.109754562,-0.005884618,0.117212,0.1035315,0.003921474,-0.007362689,0.9940735,-3.717999,29.09668,-23.60716,1005.795
17.129572392,-0.005985208,-0.003746875,-0.01876543,0.001962531,-0.004938134,0.9940966,-3.717999,29.09668,-23.60716,1005.795
17.149390221,-0.1285332,-0.003946371,-0.07980396,0.00191997,-0.0005687037,0.9888097,-3.347461,29.10067,-23.60855,1005.794
17.169207573,0.1776302,0.117089,-0.01865231,0.001463108,-0.003483393,0.9926587,-3.347461,29.10067,-23.60855,1005.794
17.189025402,-0.006304741,-0.004021369,0.1036426,0.005855891,-0.005404924,0.9940729,-3.341709,28.73397,-23.60207,1005.795
17.208842278,0.2384335,-0.004106261,-0.01855858,-0.0004729496,-0.00544233,0.9921765,-3.341709,28.73397,-23.60207,1005.795
17.228660107,-0.06773675,0.1167964,-0.07957837,0.001470197,-0.00445607,0.9931363,-3.341709,28.73397,-23.60207,1005.796
17.248477936,-0.06781647,-0.1253387,0.0427927,0.000505182,-0.004944514,0.9945871,-3.353211,29.46736,-23.61503,1005.796
17.268295288,0.05459006,0.05622926,0.1040205,-0.001467432,-0.003018601,0.989781,-3.353211,29.46736,-23.61503,1005.792
17.288113117,-0.1290745,0.05606911,-0.2018226,-0.003385453,-0.004964649,0.9946083,-3.733718,30.2124,-22.80323,1005.792
17.307929993,-0.00655248,0.2979221,-0.01811652,0.003397479,-0.004458892,0.9878163,-3.733718,30.2124,-22.80323,1005.794
17.327747822,0.05463985,-0.12575,-0.01816714,0.0009925971,-0.005430093,0.9940994,-3.733718,30.2124,-22.80323,1005.794
17.350042343,-0.006632671,-0.06520501,-0.1403641,0.000500795,-0.005925392,0.9916861,-3.353919,29.46014,-23.99505,1005.797
17.369860172,-0.06783024,0.05581313,-0.0179747,0.002457013,-0.007863024,0.9916655,-3.353919,29.46014,-23.99505,1005.797
17.389678001,0.1771586,-0.004782639,-0.0790536,-0.0009560224,-0.006909137,0.9907236,-4.08771,29.10112,-23.16242,1005.799
17.409495354,-0.1290499,-0.004789613,0.04339299,0.00198761,-0.008831187,0.9950418,-4.08771,29.10112,-23.16242,1005.799
17.429313183,-0.006374344,0.1162667,0.04328414,-0.0004511261,-0.007871093,0.9945773,-4.08771,29.10112,-23.16242,1005.798
17.449131012,-0.1289791,-0.004841588,-0.01789103,-0.002391502,-0.006411014,0.998457,-3.358963,29.83406,-23.62151,1005.798
17.468947888,-0.1290589,0.0555883,-0.01778847,0.0005111408,-0.008362358,0.9907081,-3.358963,29.83406,-23.62151,1005.8
17.488765717,-0.06788584,0.1765501,0.1046003,0.003866927,-0.0005574643,0.9892819,-3.358963,29.83406,-23.62151,1005.8
17.508583069,-0.006654873,-0.06575394,-0.2011097,-0.0004778909,-0.006912478,0.9883075,-3.347461,29.10067,-23.60855,1005.802
17.528400898,-0.006715082,-0.06574075,-0.01742461,0.001468535,-0.005923875,0.9902328,-3.347461,29.10067,-23.60855,1005.802
17.548218727,-0.0679701,0.05514573,-0.01715046,0.003878381,-0.002015895,0.9902397,-3.353211,29.46736,-23.61503,1005.805
17.568035603,0.1156126,-0.005410485,-0.07819308,-0.0009794394,-0.00154828,0.992682,-3.353211,29.46736,-23.61503,1005.805
17.587853432,-0.007067688,-0.005605809,0.04427055,0.0009767553,-0.004952542,0.9902405,-3.353211,29.46736,-23.61503,1005.801
17.607671261,0.1154939,0.2363261,-0.0168687,0.00584386,-0.005902394,0.9897262,-2.976923,29.10465,-23.60994,1005.801
17.629965782,-0.007164642,0.1147663,-0.07800283,0.00338771,-6.602588E-05,0.992183,-2.976923,29.10465,-23.60994,1005.802
17.649783611,-0.007012047,0.114801,0.04453706,0.006844369,-0.007344073,0.9955055,-3.347461,29.10067,-23.60855,1005.802
17.669600964,0.05421989,-0.00632266,-0.07780363,0.001964702,-0.005914327,0.9931261,-3.347461,29.10067,-23.60855,1005.803
17.689418316,-0.0683063,0.05411091,-0.01644583,0.0009489735,0.000894067,0.9917187,-3.347461,29.10067,-23.60855,1005.803
17.709236145,0.1154888,0.05412699,0.04471951,-0.001939028,-0.004477204,0.9917069,-3.723749,29.46338,-23.61364,1005.798
17.729053497,-0.06823255,-0.06692037,-0.2610514,0.0004784628,-0.001052633,0.9931592,-3.723749,29.46338,-23.61364,1005.798
17.748871327,0.05427112,0.0539692,-0.07727341,0.005875012,-0.00588013,0.998897,-2.987599,29.84646,-23.17955,1005.799
17.768688679,-0.006906316,-0.00669796,-0.01607056,-0.0004549592,-0.008362705,0.9926441,-2.987599,29.84646,-23.17955,1005.799
17.788506031,0.05426756,-0.006700136,0.04515138,-0.000453297,-0.006894901,0.9955477,-2.987599,29.84646,-23.17955,1005.799
17.808323860,-0.007025257,-0.06721501,-0.1383342,0.0004937504,-0.002019451,0.9960503,-3.353211,29.46736,-23.61503,1005.799
17.828141213,-0.007065281,-0.1277109,-0.1382557,0.0004888088,-0.003489599,0.9921813,-3.353211,29.46736,-23.61503,1005.801
17.847959042,0.1765568,-0.00672581,-0.01583314,-0.0009641976,-0.005448363,0.9907311,-3.353919,29.46014,-23.99505,1005.801
17.867776871,0.1765364,0.05382279,-0.2604241,0.001955972,-0.004942822,0.9921658,-3.353919,29.46014,-23.99505,1005.801
17.890071392,-0.1296682,0.05361383,0.1065757,0.004858661,-0.003960902,0.9892589,-3.353919,29.46014,-23.99505,1005.802
17.909889221,-0.06833985,0.05357413,0.04558728,0.0009843991,-0.005435952,0.991686,-3.358137,29.84248,-23.17816,1005.797
17.929706097,0.1766119,-0.007035069,-0.0767369,2.702791E-05,-0.006407804,0.9945822,-3.358137,29.84248,-23.17816,1005.797
17.949523926,-0.1296337,0.114065,-0.01543941,0.0009462484,0.001380991,0.9917212,-2.61131,29.48375,-23.17446,1005.798
17.969341755,-0.007244974,0.1138926,0.04572342,0.001955418,-0.00543209,0.9911979,-2.61131,29.48375,-23.17446,1005.798
17.989159107,0.05404511,0.05318885,-0.01540031,0.002454356,-0.002976202,0.9989306,-2.61131,29.48375,-23.17446,1005.799
18.008976936,0.05404391,-0.06810308,0.04585839,0.003435699,-0.006875939,0.9950439,-3.722923,29.4718,-23.17029,1005.799
18.028794765,-0.1297729,-0.007514335,-0.01528481,0.001468558,-0.004457242,0.9926537,-3.722923,29.4718,-23.17029,1005.794
18.048611641,0.05404193,0.2949351,0.04597358,0.0005002632,-0.004948029,0.9931391,-3.351678,29.483,-22.79166,1005.794
18.068429470,-0.007173486,0.05267556,-0.0152275,0.002474494,-0.008339402,0.996007,-3.351678,29.483,-22.79166,1005.796
18.088247299,-0.00711704,-0.008026294,-0.1986958,0.0009865926,-0.004945512,0.9931364,-3.351678,29.483,-22.79166,1005.796
18.108064652,0.05405748,-0.06861374,-0.01509351,0.001955441,-0.003965457,0.9936189,-2.981848,29.47976,-23.17307,1005.796
18.127882481,-0.007157855,0.05243205,-0.01497886,1.559616E-05,-0.003482741,0.9960454,-2.981848,29.47976,-23.17307,1005.796
18.147700310,0.1152117,-0.008098237,0.04635566,0.002921564,-0.002498478,0.9941039,-3.352386,29.47578,-23.17168,1005.796
18.169994831,-0.007253788,0.1735958,-0.2595875,0.001905813,0.002843283,0.9902754,-3.352386,29.47578,-23.17168,1005.799
18.189812660,-0.007235579,0.05245742,-0.1370524,0.0004969614,-0.006417005,0.9897528,-3.352386,29.47578,-23.17168,1005.8
18.209629536,-0.06854711,0.1128383,0.04660635,0.004401268,-0.005898227,0.9945609,-3.722923,29.4718,-23.17029,1005.8
18.229447365,-0.007199273,-0.008337416,-0.07566282,0.001962531,-0.004938134,0.9940966,-3.722923,29.4718,-23.17029,1005.798
18.249265194,0.05414845,-0.06882913,-0.1979323,0.003402975,-0.002499477,0.9926531,-2.981848,29.47976,-23.17307,1005.798
18.269082546,-0.1296303,-0.06878929,-0.07539849,0.004390921,-0.003461261,0.9955388,-2.981848,29.47976,-23.17307,1005.8
18.288900375,0.1153215,0.05219986,-0.1364292,1.827581E-05,-0.006902931,0.991201,-2.981848,29.47976,-23.17307,1005.8
18.308718205,-0.1296328,-0.1294123,-0.01403056,0.001472945,-0.003476362,0.9955547,-3.351678,29.483,-22.79166,1005.8
18.328535080,-0.06841993,-0.0687646,0.04703274,0.004849378,-0.003478664,0.9873307,-3.351678,29.483,-22.79166,1005.801
18.348352909,0.1766473,-0.008117221,-0.07527594,0.000492597,-0.005931251,0.9892727,-2.982674,29.47134,-23.61642,1005.801
18.368170738,-0.06823033,-0.06870443,-0.01398215,0.004896812,-0.01077784,0.9892237,-2.982674,29.47134,-23.61642,1005.802
18.387988091,0.05417725,-0.00822816,-0.0750903,0.00636185,-0.00832161,0.9950204,-2.982674,29.47134,-23.61642,1005.802
18.407805920,0.05423342,-0.06887221,-0.07503617,0.002922118,-0.00200921,0.9950717,-3.722923,29.4718,-23.17029,1005.8
18.427623749,-0.007097736,-0.06879435,0.0473811,-0.0009619582,-0.002024658,0.9970235,-3.722923,29.4718,-23.17029,1005.8
18.449917793,0.1152355,-0.06875193,0.1698792,0.001935235,-0.003002154,0.9892799,-4.093461,29.46782,-23.1689,1005.803
18.469735623,-0.007251643,-0.008218609,-0.07477486,0.003404083,-0.001520941,0.9945889,-4.093461,29.46782,-23.1689,1005.803
18.489552975,-0.007214278,0.1733972,-0.07452959,-0.0009538059,-0.004952064,0.9945951,-4.093461,29.46782,-23.1689,1005.803
18.509370804,-0.06831447,-0.1897535,-0.07455373,0.002940617,-0.007373582,0.9916653,-3.351678,29.483,-22.79166,1005.798
18.529188633,-0.06833516,0.05218497,-0.01335764,6.84429E-06,-0.003977869,0.9926642,-3.351678,29.483,-22.79166,1005.798
18.549005509,0.1155176,-0.008306734,-0.01336241,0.003414983,-0.003468638,0.9945788,-3.363888,30.20917,-23.18464,1005.798
18.568823338,-0.006989539,-0.008323856,0.1090152,0.002448306,-0.005424886,0.993126,-3.363888,30.20917,-23.18464,1005.8
18.588641167,0.05405008,-0.008131988,-0.01335292,0.001942856,-0.004952196,0.9883043,-3.363888,30.20917,-23.18464,1005.8
18.608458519,-0.06824496,-0.008111574,-0.01339616,0.002438514,-0.002498652,0.9950718,-3.351678,29.483,-22.79166,1005.799
18.628276348,-0.006955467,-0.007996239,-0.01334326,0.002445581,-0.004937962,0.9931285,-3.351678,29.483,-22.79166,1005.799
18.648094177,0.1155673,-0.007995166,0.04773746,3.083865E-05,-0.007382825,0.9940946,-2.982674,29.47134,-23.61642,1005.798
18.667911053,0.1155462,-0.008013047,-0.1355434,0.001459319,-0.00104174,0.9955673,-2.982674,29.47134,-23.61642,1005.798
18.687728882,-0.06817516,-0.06846757,-0.01316623,0.00487344,-0.002483724,0.996024,-2.982674,29.47134,-23.61642,1005.798
18.710024357,-0.006902777,0.1130171,-0.07417628,0.0004533376,-9.284518E-05,0.9873722,-2.987599,29.84646,-23.17955,1005.799
18.729841232,-0.006904669,0.05258153,-0.1353253,0.002931356,-0.005424712,0.992158,-2.987599,29.84646,-23.17955,1005.799
18.749659062,0.1155219,0.1129623,-0.07409191,-0.000971287,-0.004475686,0.9902536,-3.358963,29.83406,-23.62151,1005.799
18.769476891,0.05415215,0.1128686,0.04824614,0.001961977,-0.005427402,0.9931286,-3.358963,29.83406,-23.62151,1005.796
18.789294243,-0.007255696,-0.06872497,0.04827856,0.003455351,-0.00832851,0.9984151,-3.358963,29.83406,-23.62151,1005.796
18.809112072,0.05399601,0.1129476,-0.0128323,0.004874503,-0.004438452,0.9931177,-3.35743,29.84969,-22.79814,1005.797
18.828929901,0.1152285,0.0523034,-0.01268487,0.003435144,-0.007365207,0.9940761,-3.35743,29.84969,-22.79814,1005.797
18.848746777,0.1763456,0.1127038,-0.07381549,-0.001945032,-0.003992624,0.9907439,-3.35743,29.84969,-22.79814,1005.797
18.868564606,0.05387794,0.05206022,-0.0125829,-0.0005116772,-0.0005812882,0.988823,-2.981848,29.47976,-23.17307,1005.797
18.888382435,-0.007413849,-0.1900453,0.171032,0.001999088,-0.008822985,0.9984205,-2.981848,29.47976,-23.17307,1005.796
18.908199787,-0.1297661,-0.008561872,-0.01257759,0.003429694,-0.006391358,0.9940811,-4.100039,29.82609,-23.61874,1005.796
18.928017616,0.0540295,-0.008502297,0.1097405,-0.002917136,-0.003508389,0.9917172,-4.100039,29.82609,-23.61874,1005.793
18.947835446,-0.007301129,0.05197464,-0.01270624,0.001951631,-0.002990436,0.9941067,-4.100039,29.82609,-23.61874,1005.793
18.967652321,-0.007378891,-0.008459724,-0.07362562,-0.001934663,-0.004962957,0.992187,-3.722923,29.4718,-23.17029,1005.795
18.989947319,-0.06859151,0.1732352,-0.01240875,4.286971E-05,-0.006885354,0.9984412,-3.722923,29.4718,-23.17029,1005.795
19.009765148,0.05379778,0.05221167,-0.01239681,0.005852058,-0.005896535,0.9921396,-3.728675,29.83849,-23.17677,1005.794
19.029582500,0.1150499,-0.06894474,0.04900793,0.006354183,-0.009304835,0.991154,-3.728675,29.83849,-23.17677,1005.794
19.049400330,0.05383517,-0.06896158,-0.1342762,-0.001934155,-0.007406954,0.988313,-3.728675,29.83849,-23.17677,1005.793
19.069218159,-0.007475831,-0.129586,-0.0117677,-0.002892588,-0.006424077,0.9941155,-3.722923,29.4718,-23.17029,1005.793
19.089035034,-0.06857517,0.2335876,-0.0116998,0.0009778633,-0.003974007,0.9921762,-3.722923,29.4718,-23.17029,1005.79
19.108852863,-0.06853759,0.1123936,0.04953033,0.004402907,-0.005897055,0.9950436,-3.358963,29.83406,-23.62151,1005.79
19.128670692,0.05398599,0.1728711,0.04950196,0.001909024,-0.001554271,0.9839779,-3.358963,29.83406,-23.62151,1005.79
19.148488522,-0.06855883,-0.1297276,-0.01153518,0.004895218,-0.007845752,0.9935828,-3.358963,29.83406,-23.62151,1005.79
19.168305874,-0.007326297,0.112383,-0.1949744,-0.0004898768,-0.004476684,0.9888029,-3.352386,29.47578,-23.17168,1005.793
19.188123703,0.1763348,0.05153124,-0.0112087,0.0004811878,-0.001539557,0.9931567,-3.352386,29.47578,-23.17168,1005.793
19.207941532,-0.007519946,-0.008977853,-0.0110462,0.003882214,-0.001524283,0.9921728,-2.983381,29.46413,-23.99644,1005.792
19.227758408,-0.007501066,0.05155742,-0.07218091,0.001464701,-0.006415487,0.9882994,-2.983381,29.46413,-23.99644,1005.792
19.250053883,-0.06880943,-0.2509239,0.05036702,-0.002413326,-0.003982251,0.9960561,-2.983381,29.46413,-23.99644,1005.792
19.269871712,-0.007480107,-0.06932558,0.05029806,-0.001435771,-0.005440333,0.9950779,-3.351678,29.483,-22.79166,1005.792
19.289688587,0.1149672,0.05185495,-0.2553719,0.002448306,-0.005424886,0.993126,-3.351678,29.483,-22.79166,1005.789
19.309506416,0.05379105,0.172978,-0.07174252,2.046977E-05,-0.006412491,0.9926516,-2.976923,29.10465,-23.60994,1005.789
19.329324246,0.05373295,-0.06914619,0.111829,0.002936806,-0.006398562,0.992153,-2.976923,29.10465,-23.60994,1005.792
19.349141598,0.1148314,-0.06906758,-0.01046957,0.003412235,-0.004448346,0.9921604,-2.976923,29.10465,-23.60994,1005.792
19.368959427,-0.007635407,-0.008704282,-0.1938924,-0.000485444,-0.0005625398,0.9965458,-2.981848,29.47976,-23.17307,1005.792
19.388777256,0.1149276,0.05186829,-0.01032136,-0.00288439,-0.006418219,0.9965288,-2.981848,29.47976,-23.17307,1005.792
19.408594132,0.05361711,-0.06924935,0.0508671,0.0004981149,-0.002505204,0.9965304,-3.735251,30.19677,-23.6266,1005.789
19.428411961,-0.1914129,0.1123487,0.2344188,0.0009734989,-0.003488253,0.9916961,-3.735251,30.19677,-23.6266,1005.789
19.448229790,-0.007693231,-0.06928168,0.05076518,0.002905745,-0.0005542955,0.9926658,-3.735251,30.19677,-23.6266,1005.789
19.468047619,-0.068869,0.05174674,-0.07153368,0.0004833359,-0.003982382,0.9897654,-3.353211,29.46736,-23.61503,1005.789
19.487864971,-0.007750869,-0.008857943,0.05072121,0.005369516,-0.008340705,0.9892337,-3.353211,29.46736,-23.61503,1005.792
19.507682800,-0.1914895,-0.008949734,0.1118332,0.004364711,-0.002013378,0.990237,-3.345927,29.1163,-22.78518,1005.792
19.529977799,0.05363927,0.05141728,0.1118246,0.0004992005,-0.0029933,0.9960453,-3.345927,29.1163,-22.78518,1005.788
19.549794674,-0.1299843,0.05140214,-0.07144447,0.0004495045,-0.0005844568,0.985439,-3.345927,29.1163,-22.78518,1005.788
19.569612503,-0.007498577,0.1118998,-0.01025626,0.001478927,-0.005427576,0.9940968,-3.358137,29.84248,-23.17816,1005.791
19.589430332,0.1761439,-0.009292521,-0.01024972,0.003408956,-0.00445069,0.991195,-3.358137,29.84248,-23.17816,1005.791
19.609247685,-0.06879018,0.1118133,-0.07130973,0.001008948,-0.008351639,0.9940843,-2.982674,29.47134,-23.61642,1005.792
19.629065514,-0.1910651,-0.06975855,0.05096375,0.002467981,-0.005410825,0.9989181,-2.982674,29.47134,-23.61642,1005.792
19.648883343,0.05404086,-0.009146564,-0.07127799,0.001495831,-0.007859855,0.9950495,-2.982674,29.47134,-23.61642,1005.792
19.668701172,0.1152924,-0.06980726,-0.07123341,-0.0004609185,-0.00494486,0.9965231,-3.352386,29.47578,-23.17168,1005.792
19.688518047,-0.007156454,0.05122241,-0.0100266,0.002445581,-0.004937962,0.9931285,-3.352386,29.47578,-23.17168,1005.787
19.708335877,-0.007138461,0.1117395,-0.07122153,2.755923E-05,-0.007385168,0.9931291,-3.352386,29.47578,-23.17168,1005.787
19.728153706,0.1152503,-0.130383,-0.132282,-0.001472905,-0.003511384,0.9873651,-3.352386,29.47578,-23.17168,1005.788
19.747971058,0.05403502,0.05108356,-0.009893715,-0.0004402259,-0.009818792,0.9945673,-3.352386,29.47578,-23.17168,1005.788
19.767788887,-0.007257216,0.05103125,-0.1320402,0.0033948,-0.001038703,0.9926607,-3.717999,29.09668,-23.60716,1005.788
19.787606716,-0.007200532,0.1718715,-0.1930823,0.004866282,-0.005910943,0.9882834,-3.717999,29.09668,-23.60716,1005.788
19.809901238,-0.06835588,0.2323546,-0.00945276,0.006338409,-0.004427386,0.9945579,-3.358137,29.84248,-23.17816,1005.794
19.829719067,0.1153431,0.05068904,-0.131754,0.003885471,-0.002988572,0.9907172,-3.358137,29.84248,-23.17816,1005.794
19.849536896,-0.007240452,-0.01002703,-0.009386197,0.00293519,-0.004933101,0.9940913,-3.358137,29.84248,-23.17816,1005.793
19.869354725,-0.1908266,-0.07045764,-0.009343445,0.0005155283,-0.007381479,0.9936092,-3.358963,29.83406,-23.62151,1005.793
19.889171601,-0.06832263,-0.07048966,-0.07055925,-0.0009298341,-0.009823653,0.9936046,-3.358963,29.83406,-23.62151,1005.791
19.908989430,-0.006917559,0.1111305,-0.009411603,-0.002908938,-0.00350253,0.9941306,-2.987599,29.84646,-23.17955,1005.791
19.928807259,-0.006900124,0.05041483,-0.07055046,0.005860233,-0.007357309,0.9921321,-2.987599,29.84646,-23.17955,1005.787
19.948624611,0.1767792,-0.07062314,-0.07046936,0.0009958763,-0.005427749,0.9950647,-2.987599,29.84646,-23.17955,1005.787
19.968442440,0.05423357,0.05031373,-0.07029238,0.005824807,-0.001027291,0.9921648,-2.976097,29.11307,-23.16659,1005.786
19.988260269,-0.06811984,-0.01024929,-0.07026954,0.004883233,-0.005409957,0.9940782,-2.976097,29.11307,-23.16659,1005.786
20.008077621,-0.2517838,-0.07073627,-0.07016994,0.004868453,-0.006887136,0.9873131,-3.353211,29.46736,-23.61503,1005.787
20.027894974,0.1770022,0.05020079,-0.1312523,0.000503011,-0.003968321,0.9955575,-3.353211,29.46736,-23.61503,1005.787
20.047712803,-0.1290906,-0.1917672,-0.07010594,0.003430825,-0.003946189,0.9984377,-3.353211,29.46736,-23.61503,1005.784
20.070007801,-0.006758697,-0.01029528,-0.1311089,-0.00293187,-0.002052303,0.989794,-3.358963,29.83406,-23.62151,1005.784
20.089825153,0.05439569,0.1713256,-0.008627638,0.001007376,-0.003952914,1.000864,-3.358963,29.83406,-23.62151,1005.782
20.109642983,-0.006897382,0.05007891,-0.192055,6.867107E-06,-0.002511236,0.9950851,-2.98114,29.48698,-22.79305,1005.782
20.129460812,-0.006803215,-0.07090124,0.113913,-0.0004860663,-0.005451704,0.988315,-2.98114,29.48698,-22.79305,1005.783
20.149278641,0.05444731,0.1710616,-0.0694572,0.003900205,-0.004444658,0.9926404,-2.98114,29.48698,-22.79305,1005.783
20.169095516,-0.06802186,0.04977776,-0.008274004,0.001469643,-0.004945339,0.9921685,-3.723749,29.46338,-23.61364,1005.782
20.188913345,-0.006790541,-0.01076493,-0.1305589,2.049236E-05,-0.004945858,0.9950725,-3.723749,29.46338,-23.61364,1005.782
20.208731175,-0.1293364,-0.01077596,-0.00813657,0.001000772,-0.006890866,0.9940918,-3.728675,29.83849,-23.17677,1005.781
20.228549004,0.05443879,-0.01090089,-0.06931691,0.001486039,-0.004933621,0.9969952,-3.728675,29.83849,-23.17677,1005.781
20.248366356,-0.00683517,0.04954419,-0.008153185,-0.0004489324,-0.007380654,0.9960279,-3.728675,29.83849,-23.17677,1005.776
