Time (s),Gyroscope X (deg/s),Gyroscope Y (deg/s),Gyroscope Z (deg/s),Accelerometer X (g),Accelerometer Y (g),Accelerometer Z (g),Magnetometer X (uT),Magnetometer Y (uT),Magnetometer Z (uT),Barometer (hPa)
0.000000000,0.1976999,0.3035553,-0.09859026,0.003386693,0.004821968,0.999931,29.56007,9.9694,-25.85739,1010.05
0.002476692,-0.04723396,0.0615045,-0.2209152,0.002422786,0.005312061,1.003318,29.56007,9.9694,-25.85739,1010.053
0.004953861,0.07523298,0.0615045,-0.2209152,0.0004665225,0.004316426,0.9984964,29.56007,9.9694,-25.85739,1010.053
0.007430553,0.1976999,0.1220172,0.02373465,-0.002961777,0.007703764,0.9970844,29.2015,9.307577,-25.08409,1010.053
0.009908199,0.1976999,0.1825299,-0.09859026,0.0009397352,0.004309569,0.9946322,29.2015,9.307577,-25.08409,1010.053
0.012384415,0.07523298,0.0009917939,-0.2209152,0.004355518,0.004335389,0.9979925,29.2015,9.307577,-25.08409,1010.053
0.014862061,-0.04723396,0.0615045,-0.2209152,-1.978385E-05,0.005780542,1.00092,29.2015,9.307577,-25.08409,1010.053
0.027246475,0.07523298,0.0615045,-0.03742781,-0.00196621,0.004791938,0.9989947,29.2015,9.307577,-25.08409,1010.053
0.029723644,0.3201669,0.0615045,-0.03742781,-0.000460827,0.0009216698,1.006207,29.2015,9.307577,-25.08409,1010.053
0.032200336,0.2589334,0.1220172,-0.2209152,0.001436479,0.006275017,1.000915,29.2015,9.307577,-25.08409,1010.053
0.034677982,0.1976999,0.1825299,-0.2209152,0.00387958,0.004829172,1.001859,29.2015,9.307577,-25.08409,1010.053
0.037154198,0.1364664,0.0615045,-0.2209152,-0.003398433,0.003825772,1.005273,29.2015,9.307577,-25.08409,1010.053
0.039631844,0.1364664,0.1220172,-0.2820776,0.001437519,0.002853656,0.9955874,29.2015,9.307577,-25.08409,1010.053
0.042108536,0.1364664,0.1220172,-0.2209152,-2.036081E-05,0.003824641,0.9975312,29.2015,9.307577,-25.08409,1010.056
0.044585705,0.2589334,0.0615045,-0.09859026,-0.0009777087,0.004319422,1.002848,29.2015,9.307577,-25.08409,1010.056
0.047062397,0.1364664,0.0615045,-0.2209152,0.0009675855,0.002862857,1.000417,29.2015,9.307577,-25.08409,1010.056
0.049539566,0.1364664,0.2430426,-0.2209152,0.004856072,0.005325817,1.003787,29.2015,9.307577,-25.08409,1010.056
0.052016258,0.07523298,0.1220172,-0.2820776,0.002940776,0.002892845,1.008612,29.2015,9.307577,-25.08409,1010.056
0.054493427,0.1364664,0.0009917939,-0.3432401,-0.002422009,-7.747975E-05,0.9999377,29.2015,9.307577,-25.08409,1010.056
0.056970119,0.07523298,0.0615045,-0.2820776,5.84987E-06,0.002376758,1.002833,29.2015,9.307577,-25.08409,1010.056
0.059447289,0.07523298,0.1825299,-0.2209152,0.007292084,0.004852649,1.004254,29.2015,9.307577,-25.08409,1010.056
0.061923981,0.2589334,0.0615045,-0.2209152,0.0009556001,0.005298651,1.000912,29.2015,9.307577,-25.08409,1010.056
0.064401627,0.07523298,0.1220172,-0.1597527,-1.865299E-05,0.008225711,1.005277,29.2015,9.307577,-25.08409,1010.056
0.066878319,0.1364664,0.0009917939,-0.09859026,-0.0009678709,0.004326453,1.005745,29.2015,9.307577,-25.08409,1010.056
0.069355488,0.2589334,0.1220172,-0.09859026,-0.00244321,0.007240449,1.005768,29.2015,9.307577,-25.08409,1010.056
0.071832180,0.1364664,0.2430426,-0.09859026,0.005327691,0.008251053,1.004282,29.2015,9.307577,-25.08409,1010.056
0.074309349,0.1364664,0.0009917939,-0.2209152,0.005821042,0.002880995,0.9974943,29.2015,9.307577,-25.08409,1010.056
0.076786041,0.1364664,0.0615045,-0.2820776,0.00242438,0.002379967,0.9989583,29.2015,9.307577,-25.08409,1010.056
0.079263210,-0.04723396,-0.05952091,-0.09859026,0.002431493,0.002873923,1.001857,29.2015,9.307577,-25.08409,1010.056
0.081739903,0.07523298,0.1825299,-0.1597527,0.0009632211,0.00334861,0.9999368,29.2015,9.307577,-25.08409,1010.056
0.084217072,0.1976999,0.1825299,-0.1597527,0.00191953,0.006275191,0.9999465,29.2015,9.307577,-25.08409,1010.055
0.086693764,0.07523298,0.1220172,-0.2209152,0.004822263,0.01019038,1.001881,29.2015,9.307577,-25.08409,1010.055
0.089171410,0.07523298,0.1825299,-0.2820776,0.004379004,0.00337443,1.003297,29.2015,9.307577,-25.08409,1010.055
0.091648102,0.0139995,0.1825299,-0.2209152,0.0009713736,0.0004212037,0.9975083,29.2015,9.307577,-25.08409,1010.055
0.094125271,0.07523298,0.1220172,-0.1597527,0.000952875,0.005785576,1.000915,29.2015,9.307577,-25.08409,1010.055
0.096601963,0.0139995,0.1220172,-0.03742781,0.002920016,0.00336688,1.003305,29.2015,9.307577,-25.08409,1010.055
0.099079132,0.1976999,0.1825299,-0.2209152,0.008252203,0.006804208,1.003776,29.2015,9.307577,-25.08409,1010.055
0.101555824,0.2589334,0.0009917939,-0.2209152,0.003876855,0.005316096,1.001862,29.2015,9.307577,-25.08409,1010.055
0.104032993,0.1364664,0.0615045,-0.2209152,0.002912417,0.006783554,1.006701,29.2015,9.307577,-25.08409,1010.055
0.106509686,0.1364664,0.1220172,-0.09859026,0.001459411,0.00482479,1.005251,29.2015,9.307577,-25.08409,1010.055
0.108986378,0.1364664,0.1220172,-0.1597527,0.001450127,0.005307027,1.003323,29.56654,9.609921,-25.47089,1010.055
0.111463547,0.07523298,0.0615045,-0.1597527,0.005842379,0.004362861,1.00619,29.56654,9.609921,-25.47089,1010.055
0.113940239,0.3201669,0.0009917939,-0.2820776,0.001915673,0.004316946,0.9955923,29.56654,9.609921,-25.47089,1010.055
0.116417408,0.1364664,0.0615045,-0.2209152,-0.001980389,0.006737293,0.9980395,29.56654,9.609921,-25.47089,1010.055
0.118894100,0.1364664,0.1825299,-0.1597527,-0.001958035,0.003331165,0.9989872,29.56654,9.609921,-25.47089,1010.055
0.121371746,0.3201669,0.0009917939,-0.2209152,-2.089259E-05,0.004802005,0.9989841,29.56654,9.609921,-25.47089,1010.055
0.123848438,0.1364664,-0.05952091,-0.2820776,0.001926088,0.006279878,1.001877,29.56654,9.609921,-25.47089,1010.058
0.126325607,0.07523298,0.1220172,-0.1597527,0.0009752978,0.006779345,1.009125,29.56654,9.609921,-25.47089,1010.058
0.128802300,0.07523298,0.0009917939,-0.03742781,0.006780075,0.005320651,0.9975016,29.56654,9.609921,-25.47089,1010.058
0.131279469,0.0139995,0.1825299,-0.2820776,-3.61572E-05,0.007235456,0.9985141,29.56654,9.609921,-25.47089,1010.058
0.133756161,0.1364664,0.364068,-0.1597527,0.001440844,0.005789264,1.001395,29.56654,9.609921,-25.47089,1010.058
0.136233330,0.1364664,0.3035553,-0.03742781,-0.001949282,0.003826292,1.002369,29.56654,9.609921,-25.47089,1010.058
0.138710022,0.0139995,0.2430426,-0.09859026,-0.002930116,0.005282031,1.002381,29.56654,9.609921,-25.47089,1010.058
0.141187191,0.1364664,0.1825299,-0.2820776,0.002409161,0.007746683,1.00333,29.56654,9.609921,-25.47089,1010.058
0.143663883,0.1364664,0.0615045,-0.09859026,0.002886184,0.006764805,0.9989783,29.56654,9.609921,-25.47089,1010.058
0.146141529,0.1364664,0.1825299,-0.1597527,0.004829308,0.006284433,0.9975173,29.56654,9.609921,-25.47089,1010.058
0.148618221,-0.1084674,0.1825299,-0.2820776,0.004872977,0.002893538,1.00474,29.56654,9.609921,-25.47089,1010.058
0.151095390,-0.04723396,0.0615045,-0.2820776,0.001923871,0.004322805,0.9980057,29.56654,9.609921,-25.47089,1010.058
0.153572083,0.1364664,0.1220172,-0.1597527,0.006786657,0.006791971,1.001853,29.56654,9.609921,-25.47089,1010.058
0.156049252,0.1976999,0.2430426,-0.09859026,0.002389486,0.007732621,0.997538,29.56654,9.609921,-25.47089,1010.058
0.158525944,0.3201669,0.1220172,-0.2209152,-0.00100609,0.006743498,0.9985169,29.20079,9.30036,-25.46411,1010.058
0.161003113,0.1976999,0.3035553,-0.1597527,0.001945163,0.002871406,1.00186,29.20079,9.30036,-25.46411,1010.058
0.163479805,0.07523298,0.364068,-0.2820776,0.00142611,0.007245351,0.9994715,29.20079,9.30036,-25.46411,1010.059
0.165956974,0.07523298,0.1220172,-0.2209152,0.002875838,0.009201772,0.9999564,29.20079,9.30036,-25.46411,1010.059
0.168433666,-0.1084674,0.1220172,-0.2209152,0.006789358,0.004838414,0.9994298,29.20079,9.30036,-25.46411,1010.059
0.170911312,0.1364664,0.1825299,-0.1597527,0.004867527,0.003867387,1.004745,29.20079,9.30036,-25.46411,1010.059
0.173388004,0.1976999,-0.1200336,-0.1597527,0.003373622,0.007745858,1.000911,29.20079,9.30036,-25.46411,1010.059
0.175865173,0.1364664,0.0009917939,-0.3432401,-0.0005132486,0.003817437,0.995603,29.20079,9.30036,-25.46411,1010.059
0.178341866,0.1976999,0.1220172,-0.2209152,-0.000489186,0.004812378,1.004296,29.20079,9.30036,-25.46411,1010.059
0.180819035,0.1364664,0.0615045,-0.09859026,-0.0009744295,0.004321765,1.003814,29.20079,9.30036,-25.46411,1010.059
0.183295727,0.07523298,0.1825299,-0.09859026,0.001960406,-0.001028677,0.9999088,29.20079,9.30036,-25.46411,1010.059
0.185772896,0.1364664,0.2430426,-0.1597527,0.002909624,0.002870581,0.9994409,29.20079,9.30036,-25.46411,1010.059
0.188249588,0.1976999,0.1220172,-0.2209152,0.00142611,0.007245351,0.9994715,29.20079,9.30036,-25.46411,1010.059
0.190726757,0.0139995,-0.05952091,-0.1597527,-0.001962353,0.006750182,1.003349,29.20079,9.30036,-25.46411,1010.059
0.193203449,0.07523298,0.1825299,-0.03742781,0.003854455,0.005788959,0.996072,29.20079,9.30036,-25.46411,1010.059
0.195681095,0.07523298,0.1825299,-0.09859026,0.005315637,0.00628695,0.9975146,29.20079,9.30036,-25.46411,1010.059
0.198157311,0.0139995,0.2430426,-0.2209152,0.003393251,0.004826655,1.001862,29.20079,9.30036,-25.46411,1010.059
0.200634956,0.07523298,0.3035553,-0.2820776,0.001447402,0.005793951,1.003325,29.20079,9.30036,-25.46411,1010.059
0.203111649,0.0139995,0.1825299,-0.2820776,0.0009446768,0.005779717,0.9985013,29.20079,9.30036,-25.46411,1010.058
0.205588818,0.1976999,0.0009917939,-0.4044026,-0.0005197385,0.008212648,1.000935,29.20079,9.30036,-25.46411,1010.058
0.208065510,0.1364664,0.0615045,-0.2209152,-0.0005164596,0.008214992,1.001901,29.20079,9.30036,-25.46411,1010.058
0.210542679,0.2589334,0.2430426,-0.2209152,0.001942992,0.003847599,1.00283,29.56724,9.617138,-25.09088,1010.058
0.213019371,0.1976999,0.1220172,-0.2820776,0.0005074672,0.001412456,1.005721,29.56724,9.617138,-25.09088,1010.058
0.215496540,0.0139995,0.0009917939,-0.2209152,0.005320533,0.004823832,0.9965416,29.56724,9.617138,-25.09088,1010.058
0.217973232,0.1364664,0.0615045,-0.1597527,0.00339108,0.005802847,1.002832,29.56724,9.617138,-25.09088,1010.058
0.220450878,0.1364664,0.0009917939,-0.1597527,3.147405E-06,0.004330314,1.005256,29.56724,9.617138,-25.09088,1010.058
0.222927094,0.1364664,0.1220172,-0.2820776,-9.992393E-06,0.002854308,0.9989741,29.56724,9.617138,-25.09088,1010.058
0.225404739,0.1976999,0.2430426,-0.2820776,0.000984513,0.00189721,1.00379,29.56724,9.617138,-25.09088,1010.058
0.227881432,0.1976999,0.1825299,-0.1597527,0.0004659914,0.005293791,0.9999495,29.56724,9.617138,-25.09088,1010.058
0.232835293,0.07523298,0.0615045,-0.2209152,0.003386693,0.004821968,0.999931,29.56724,9.617138,-25.09088,1010.058
0.235312462,0.07523298,0.1825299,-0.2820776,0.001440267,0.003833364,0.9980059,29.56724,9.617138,-25.09088,1010.058
0.237789154,0.07523298,0.2430426,-0.3432401,-1.10548E-05,0.004809037,1.00188,29.56724,9.617138,-25.09088,1010.058
0.240266323,0.0139995,0.1825299,-0.2209152,-1.431094E-05,0.006273326,1.003336,29.56724,9.617138,-25.09088,1010.058
0.242743015,0.07523298,0.1825299,-0.1597527,-0.003886379,0.005288715,1.007213,29.56724,9.617138,-25.09088,1010.06
0.245220184,-0.04723396,0.1825299,-0.2820776,0.002422232,0.004822793,1.00235,29.56724,9.617138,-25.09088,1010.06
0.247696877,0.1976999,-0.05952091,-0.09859026,-0.00244598,0.004794109,1.000928,29.56724,9.617138,-25.09088,1010.06
0.250174522,0.1976999,0.0009917939,-0.2209152,-3.451784E-05,0.007236628,0.9989967,29.56724,9.617138,-25.09088,1010.06
0.252651215,-0.04723396,0.0615045,-0.1597527,-0.0004853527,0.00530399,1.00623,29.56724,9.617138,-25.09088,1010.06
0.255128384,0.1976999,0.1220172,-0.09859026,-1.748558E-06,0.005793432,1.006229,29.56724,9.617138,-25.09088,1010.06
0.257605076,0.1364664,0.1220172,-0.2209152,0.0009452538,0.007735617,1.00189,29.56724,9.617138,-25.09088,1010.06
0.260082245,0.07523298,0.1220172,-0.2820776,-0.0009995096,0.008214818,1.002868,29.196,9.605938,-25.46951,1010.06
0.262558937,0.3201669,0.1220172,-0.3432401,-0.001441107,0.002866677,1.007187,29.196,9.605938,-25.46951,1010.06
0.265036106,0.07523298,0.2430426,-0.03742781,0.0009861526,0.001898382,1.004273,29.196,9.605938,-25.46951,1010.06
0.267512798,-0.04723396,0.1825299,-0.03742781,0.008263104,0.004856511,1.003766,29.196,9.605938,-25.46951,1010.06
0.269989967,0.1364664,0.1220172,-0.3432401,0.003392211,0.008248016,1.007189,29.196,9.605938,-25.46951,1010.06
0.272466660,-0.04723396,0.0615045,-0.2820776,0.002430385,0.001895387,0.9999213,29.196,9.605938,-25.46951,1010.06
0.274944305,0.1364664,0.0615045,-0.1597527,0.002431493,0.002873923,1.001857,29.196,9.605938,-25.46951,1010.06
0.277420998,-0.1084674,0.1220172,-0.2209152,-0.001460782,0.002852616,1.001395,29.196,9.605938,-25.46951,1010.06
0.279898167,0.0139995,0.1220172,-0.2209152,0.0004730809,0.004321113,1.000427,29.196,9.605938,-25.46951,1010.06
0.282374859,-0.04723396,0.1220172,-0.2209152,-2.255477E-05,0.003334201,0.9960806,29.196,9.605938,-25.46951,1010.057
0.284852028,0.1976999,0.3035553,-0.2209152,0.005326029,0.006783248,1.001378,29.196,9.605938,-25.46951,1010.057
0.287328720,0.0139995,0.1220172,-0.2209152,0.005341847,0.004839065,1.002816,29.196,9.605938,-25.46951,1010.057
0.289805889,0.07523298,0.1825299,-0.2209152,0.001457217,0.00433435,1.0038,29.196,9.605938,-25.46951,1010.057
0.292282581,0.07523298,0.2430426,-0.3432401,0.00144738,0.004327319,1.000904,29.196,9.605938,-25.46951,1010.057
0.294759750,0.07523298,-0.05952091,-0.3432401,0.003899787,0.003865869,1.006198,29.196,9.605938,-25.46951,1010.057
0.297236443,0.1364664,0.0615045,-0.2209152,0.002409161,0.007746683,1.00333,29.196,9.605938,-25.46951,1010.057
0.299714089,0.07523298,0.0009917939,-0.2209152,0.003375261,0.007747029,1.001394,29.196,9.605938,-25.46951,1010.057
0.302190781,0.1364664,0.0615045,-0.2820776,0.002411886,0.007259759,1.003328,29.196,9.605938,-25.46951,1010.057
0.304667950,0.1976999,0.2430426,-0.2209152,0.002905836,0.005312234,1.00235,29.196,9.605938,-25.46951,1010.057
0.307144642,0.1364664,0.1220172,-0.4044026,0.002397661,0.006271848,0.9975305,29.196,9.605938,-25.46951,1010.057
0.309621811,0.1976999,-0.05952091,-0.2209152,0.003397061,0.003851634,1.001374,29.56149,9.983833,-25.09736,1010.057
0.312098503,0.1364664,0.1825299,-0.1597527,0.002422232,0.004822793,1.00235,29.56149,9.983833,-25.09736,1010.057
0.314575672,0.07523298,0.1825299,-0.2209152,0.00190803,0.004800356,0.9941469,29.56149,9.983833,-25.09736,1010.057
0.317052364,0.1976999,0.0009917939,-0.09859026,0.003373576,0.004812594,0.9960696,29.56149,9.983833,-25.09736,1010.057
0.319529533,0.1976999,0.1220172,-0.1597527,-0.001445472,0.00335243,1.006707,29.56149,9.983833,-25.09736,1010.057
0.322006226,0.4426338,0.3035553,-0.4044026,0.004899719,0.0004682897,1.008589,29.56149,9.983833,-25.09736,1010.058
0.324483872,0.1976999,0.2430426,-0.3432401,0.004371383,0.005324472,1.004272,29.56149,9.983833,-25.09736,1010.058
0.326960087,0.1364664,-0.05952091,-0.2820776,0.004870806,0.003869731,1.00571,29.56149,9.983833,-25.09736,1010.058
0.329436779,0.07523298,0.0615045,-0.4044026,0.00730243,0.002415683,1.003276,29.56149,9.983833,-25.09736,1010.058
0.331914425,0.1364664,-0.05952091,-0.2209152,-1.107762E-05,0.003342404,0.9994593,29.56149,9.983833,-25.09736,1010.058
0.334391594,0.1976999,0.0615045,-0.09859026,0.003867018,0.005309065,0.9989654,29.56149,9.983833,-25.09736,1010.058
0.336868286,0.1364664,0.364068,-0.2820776,0.001968581,-0.002489451,0.9999012,29.56149,9.983833,-25.09736,1010.058
0.339344978,0.1976999,0.1825299,-0.2820776,0.004389904,0.001426732,1.003287,29.56149,9.983833,-25.09736,1010.058
0.341822147,0.07523298,0.1220172,-0.1597527,-0.002453625,0.005277518,0.9994826,29.56149,9.983833,-25.09736,1010.058
0.344298840,0.0139995,0.2430426,-0.1597527,-0.001456926,0.00481086,1.00575,29.56149,9.983833,-25.09736,1010.058
0.346776009,0.07523298,0.0615045,-0.09859026,0.001930961,0.003350128,0.9984834,29.56149,9.983833,-25.09736,1010.058
0.349252701,0.0139995,0.0615045,-0.2209152,0.002433687,0.003364363,1.003308,29.56149,9.983833,-25.09736,1010.058
0.351729870,0.1364664,0.1220172,-0.2820776,0.002935834,0.001422697,1.004743,29.56149,9.983833,-25.09736,1010.058
0.354206562,0.1976999,0.0009917939,-0.3432401,0.001468671,0.00287592,1.004758,29.56149,9.983833,-25.09736,1010.058
0.356684208,0.0139995,0.1220172,-0.1597527,-0.000980411,0.006272979,1.005272,29.56149,9.983833,-25.09736,1010.058
0.359160900,0.1976999,0.0615045,-0.2820776,0.00632483,0.0009405011,0.9994123,29.56149,9.983833,-25.09736,1010.058
0.361638069,0.1976999,0.2430426,-0.1597527,0.003374684,0.00579113,0.9980053,29.56149,9.983833,-25.09736,1010.058
0.364114761,0.07523298,0.2430426,-0.09859026,0.001429943,0.007736962,1.001405,29.56149,9.983833,-25.09736,1010.061
0.366591930,0.1364664,0.0615045,-0.2209152,-0.000982096,0.003338542,0.9999474,29.56149,9.983833,-25.09736,1010.061
0.369068623,0.07523298,0.0009917939,-0.09859026,0.002900363,0.004819451,0.9999337,29.56149,9.983833,-25.09736,1010.061
0.371545792,0.1976999,0.1825299,-0.2820776,0.005335912,0.009723544,1.009116,29.56149,9.983833,-25.09736,1010.061
0.374022484,0.0139995,0.1825299,-0.1597527,0.002908539,0.003358677,0.9999261,29.56149,9.983833,-25.09736,1010.061
0.376499653,-0.04723396,0.0615045,-0.09859026,0.001919507,0.004808558,0.9975256,29.56149,9.983833,-25.09736,1010.061
0.378976345,0.07523298,0.0009917939,-0.2820776,0.006830857,0.002423712,1.007623,29.56149,9.983833,-25.09736,1010.061
0.381453991,0.1364664,0.0615045,-0.1597527,0.005854874,-0.0005169304,1.001821,29.56149,9.983833,-25.09736,1010.061
0.383930206,-0.04723396,0.1825299,-0.1597527,-3.451784E-05,0.007236628,0.9989967,29.56149,9.983833,-25.09736,1010.061
0.386407852,0.0139995,0.1220172,-0.09859026,0.00146269,0.004827133,1.006216,29.56149,9.983833,-25.09736,1010.061
0.388884544,0.1364664,0.1220172,-0.2209152,-0.002448705,0.005281033,1.000931,29.56149,9.983833,-25.09736,1010.061
0.391361714,0.1976999,0.2430426,-0.2820776,0.004350645,0.007265139,1.001386,29.56149,9.983833,-25.09736,1010.061
0.393838406,0.0139995,0.1825299,-0.2209152,0.002898215,0.007262276,1.003325,29.56149,9.983833,-25.09736,1010.061
0.396315575,0.0139995,0.0615045,-0.09859026,4.741829E-06,0.001398221,1.000897,29.56149,9.983833,-25.09736,1010.061
0.398792267,0.1976999,0.2430426,-0.1597527,0.0009675855,0.002862857,1.000417,29.56149,9.983833,-25.09736,1010.061
0.401269436,0.1364664,0.3035553,-0.3432401,0.003364338,0.008228095,0.9989832,29.56149,9.983833,-25.09736,1010.061
0.403746128,0.0139995,0.2430426,-0.2209152,-1.433375E-05,0.004806693,1.000915,29.56149,9.983833,-25.09736,1010.062
0.406223774,0.07523298,-0.05952091,-0.09859026,-0.001451544,-0.0005628862,0.9984818,29.56149,9.983833,-25.09736,1010.062
0.408699989,0.1364664,0.3035553,-0.2820776,0.002920039,0.004833512,1.005726,29.56149,9.983833,-25.09736,1010.062
0.411177635,0.07523298,0.2430426,-0.2820776,0.00337309,0.008723223,1.002365,28.81971,9.968651,-25.4746,1010.062
0.413654327,0.0139995,0.1220172,-0.1597527,0.00386487,0.00775189,1.002357,28.81971,9.968651,-25.4746,1010.062
0.416131497,0.1364664,0.2430426,-0.1597527,0.001963221,0.004350928,1.00959,28.81971,9.968651,-25.4746,1010.062
0.418608189,0.1976999,0.0615045,-0.2209152,0.001913016,0.009203768,1.002858,28.81971,9.968651,-25.4746,1010.062
0.421085358,0.1976999,0.0615045,-0.1597527,0.004385031,0.004356482,1.006681,28.81971,9.968651,-25.4746,1010.062
0.423562050,0.07523298,0.0615045,-0.2820776,0.003907962,0.002405095,1.006191,28.81971,9.968651,-25.4746,1010.062
0.426039219,-0.04723396,0.1825299,-0.1597527,0.0009703333,0.003842565,1.002835,28.81971,9.968651,-25.4746,1010.062
0.428515911,0.1976999,0.0615045,-0.2209152,0.006799728,0.00386808,1.000873,28.81971,9.968651,-25.4746,1010.062
0.430993557,0.1976999,0.0009917939,-0.2209152,0.002405836,0.004811075,0.997523,28.81971,9.968651,-25.4746,1010.062
0.433469772,0.2589334,0.1220172,-0.2209152,0.002916714,0.001897904,0.9999186,28.81971,9.968651,-25.4746,1010.062
0.435947418,0.0139995,0.0615045,-0.2209152,0.001934263,0.004819104,1.00187,28.81971,9.968651,-25.4746,1010.062
0.438424111,0.07523298,0.1220172,-0.1597527,-0.001493506,0.007229077,0.9990047,28.81971,9.968651,-25.4746,1010.062
0.440901280,0.1976999,0.0615045,-0.09859026,0.003409093,0.004349104,1.005721,28.81971,9.968651,-25.4746,1010.062
0.443377972,0.07523298,0.3035553,-0.1597527,0.001931538,0.005306029,1.001872,28.81971,9.968651,-25.4746,1010.061
0.445855141,0.1364664,0.1825299,-0.1597527,-0.001968358,0.007234763,1.002386,28.81971,9.968651,-25.4746,1010.061
0.448331833,0.1364664,0.0615045,-0.03742781,0.001927727,0.00628105,1.00236,28.81971,9.968651,-25.4746,1010.061
0.450809002,0.2589334,0.1825299,-0.09859026,0.007778968,0.005344434,1.005219,28.81971,9.968651,-25.4746,1010.061
0.453285694,0.1976999,0.2430426,-0.09859026,0.0009779772,0.003359156,1.004281,28.81971,9.968651,-25.4746,1010.061
0.455762863,0.2589334,0.1220172,-0.1597527,0.003880135,0.00531844,1.002827,28.81971,9.968651,-25.4746,1010.061
0.458239555,0.1364664,0.0615045,-0.03742781,0.003395976,0.00433973,1.001859,28.81971,9.968651,-25.4746,1010.061
0.460717201,0.1364664,0.1220172,-0.03742781,0.0009588562,0.003834363,0.9994565,28.81971,9.968651,-25.4746,1010.061
0.463193894,0.1364664,0.1220172,-0.09859026,0.003881752,0.003852979,1.000889,29.57133,9.304342,-25.46549,1010.061
0.465671063,0.2589334,0.1825299,-0.4044026,0.004865864,0.002399583,1.001841,29.57133,9.304342,-25.46549,1010.061
0.468147755,0.1364664,0.1825299,-0.2209152,0.007264743,0.003855364,0.9945953,29.57133,9.304342,-25.46549,1010.061
0.470624924,0.1364664,0.1825299,-0.1597527,0.002412394,0.004815762,0.9994536,29.57133,9.304342,-25.46549,1010.061
0.473101616,0.07523298,0.1220172,-0.2209152,0.0004883688,0.003354295,1.003318,29.57133,9.304342,-25.46549,1010.061
0.475578785,0.1364664,0.0615045,-0.1597527,0.00241625,0.006774006,1.003808,29.57133,9.304342,-25.46549,1010.061
0.478055477,0.07523298,0.1220172,-0.09859026,0.001963221,0.004350928,1.00959,29.57133,9.304342,-25.46549,1010.061
0.480532646,0.1976999,0.0615045,-0.1597527,-0.0009886317,0.004800487,1.000437,29.57133,9.304342,-25.46549,1010.061
0.483009338,0.0139995,0.0009917939,-0.1597527,0.0004840039,0.003840048,1.002838,29.57133,9.304342,-25.46549,1010.06
0.485486984,0.1364664,0.1825299,-0.2209152,0.006347761,-0.0005097263,1.003749,29.57133,9.304342,-25.46549,1010.06
0.487963677,0.1976999,0.0009917939,-0.1597527,0.004375702,0.001905454,0.9999107,29.57133,9.304342,-25.46549,1010.06
0.490440846,0.07523298,0.0615045,-0.09859026,0.001940821,0.004823791,1.0038,29.57133,9.304342,-25.46549,1010.06
0.492917538,0.1976999,0.0615045,-0.1597527,-9.969342E-06,0.00432094,1.001395,29.57133,9.304342,-25.46549,1010.06
0.497871399,0.0139995,0.2430426,-0.1597527,0.006300835,0.004345457,0.9979818,29.57133,9.304342,-25.46549,1010.06
0.497871399,0.0139995,0.2430426,-0.1597527,0.006300835,0.004345457,0.9979818,29.57133,9.304342,-25.46549,1010.06
0.502825260,0.07523298,0.2430426,-0.1597527,0.0009408661,0.006754737,0.9989889,29.57133,9.304342,-25.46549,1010.06
0.505302429,0.1364664,0.0615045,-0.1597527,0.000960496,0.003835534,0.9999393,29.57133,9.304342,-25.46549,1010.06
0.507779122,0.0139995,0.1220172,-0.1597527,-0.001494037,0.008206442,1.000458,29.57133,9.304342,-25.46549,1010.06
0.510256767,-0.1084674,0.1825299,-0.09859026,0.003400895,0.004343245,1.003307,29.57133,9.304342,-25.46549,1010.06
0.512732983,-0.04723396,-0.05952091,-0.2209152,0.0009632211,0.00334861,0.9999368,29.94328,9.322758,-24.70685,1010.06
0.515210629,-0.04723396,-0.05952091,-0.09859026,-0.001493506,0.007229077,0.9990047,29.94328,9.322758,-24.70685,1010.06
0.517687321,0.07523298,0.0615045,-0.09859026,0.003424934,0.003871554,1.009579,29.94328,9.322758,-24.70685,1010.06
0.520164490,0.1364664,0.3035553,-0.2209152,0.002937497,0.002890501,1.007646,29.94328,9.322758,-24.70685,1010.06
0.522641182,0.0139995,0.1220172,-0.2209152,-0.0005120724,0.009195871,1.004802,29.94328,9.322758,-24.70685,1010.059
0.525118351,0.0139995,0.1825299,0.02373465,0.00095015,0.0062725,1.000917,29.94328,9.322758,-24.70685,1010.059
0.527595043,0.1976999,0.1220172,-0.09859026,0.001918998,0.007252554,1.0014,29.94328,9.322758,-24.70685,1010.059
0.530072212,0.2589334,0.1220172,-0.1597527,0.0009545372,0.00725338,1.003818,29.94328,9.322758,-24.70685,1010.059
0.532548905,0.2589334,0.2430426,-0.09859026,0.0004622035,0.007735443,1.002858,29.94328,9.322758,-24.70685,1010.059
0.535026550,0.0139995,0.1220172,-0.2209152,-0.0005143341,0.004305534,0.9960883,29.94328,9.322758,-24.70685,1010.059
0.537502766,0.1364664,0.1220172,-0.03742781,0.00143865,0.005298825,0.9999442,29.94328,9.322758,-24.70685,1010.059
0.539980412,0.2589334,0.0615045,-0.09859026,0.0004621351,0.003335546,0.9955952,29.94328,9.322758,-24.70685,1010.059
0.542457104,0.1364664,0.1220172,-0.2209152,0.004357181,0.005803194,1.000896,29.94328,9.322758,-24.70685,1010.059
0.544934273,0.07523298,0.1220172,-0.1597527,0.003392697,0.004337386,1.000894,29.94328,9.322758,-24.70685,1010.059
0.547410965,0.07523298,0.1825299,-0.09859026,0.002905259,0.003356333,0.9989607,29.94328,9.322758,-24.70685,1010.059
0.549888134,0.1364664,0.2430426,-0.1597527,0.006298133,0.006299014,1.000405,29.94328,9.322758,-24.70685,1010.059
0.552364826,0.0139995,0.1220172,-0.1597527,0.003405859,0.007280026,1.009597,29.94328,9.322758,-24.70685,1010.059
0.554841995,0.1364664,0.0009917939,-0.2209152,0.0004731265,0.007254378,1.005269,29.94328,9.322758,-24.70685,1010.059
0.557318688,0.0139995,0.0009917939,-0.2209152,0.002421146,0.005310889,1.002835,29.94328,9.322758,-24.70685,1010.059
0.559796333,0.07523298,0.1825299,-0.3432401,0.002444632,0.004349929,1.008139,29.94328,9.322758,-24.70685,1010.059
0.562272549,0.1364664,0.1220172,-0.3432401,0.003387801,0.005800504,1.001867,29.93778,9.62112,-25.09227,1010.06
0.564750195,0.0139995,0.1825299,-0.1597527,0.001911332,0.006269332,0.9975331,29.93778,9.62112,-25.09227,1010.06
0.567226887,0.1976999,0.1220172,-0.09859026,-8.329749E-06,0.004322112,1.001878,29.93778,9.62112,-25.09227,1010.06
0.569704056,0.07523298,-0.05952091,-0.3432401,0.002897084,0.004817107,0.9989682,29.93778,9.62112,-25.09227,1010.06
0.572180748,0.07523298,0.1825299,-0.465565,0.005321087,0.0053131,0.9975096,29.93778,9.62112,-25.09227,1010.06
0.574657917,-0.1084674,0.1825299,-0.1597527,0.0009408661,0.006754737,0.9989889,29.93778,9.62112,-25.09227,1010.06
0.577134609,0.1976999,0.1220172,0.1460596,-0.001484245,0.005280208,0.998512,29.93778,9.62112,-25.09227,1010.06
0.579611778,0.1976999,0.1220172,-0.1597527,-1.269439E-05,0.004807864,1.001397,29.93778,9.62112,-25.09227,1010.06
0.582088471,0.1364664,0.1825299,-0.2209152,0.004377918,0.003862527,1.003782,29.93778,9.62112,-25.09227,1010.06
0.584565640,0.3201669,0.0009917939,-0.2820776,-0.003404414,0.005776986,1.006731,29.93778,9.62112,-25.09227,1010.06
0.587042332,0.2589334,0.1220172,-0.1597527,0.001454537,0.007754539,1.008645,29.93778,9.62112,-25.09227,1010.06
0.589519978,0.0139995,0.1825299,-0.2820776,0.00386487,0.00775189,1.002357,29.93778,9.62112,-25.09227,1010.06
0.591996670,0.1976999,0.1825299,-0.1597527,1.530396E-06,0.005795775,1.007195,29.93778,9.62112,-25.09227,1010.06
0.594473839,0.1364664,0.0615045,-0.2820776,0.0009507039,0.006761768,1.001885,29.93778,9.62112,-25.09227,1010.06
0.596950531,0.1976999,0.1220172,-0.2820776,0.0004659686,0.003827158,0.9975285,29.93778,9.62112,-25.09227,1010.06
0.599427700,0.1976999,0.1825299,-0.03742781,-0.0005251886,0.009186497,1.00094,29.93778,9.62112,-25.09227,1010.06
0.601904392,0.1364664,0.0615045,-0.2209152,0.005314597,0.00970831,1.002842,29.93778,9.62112,-25.09227,1010.06
0.604381561,0.0139995,0.0009917939,-0.1597527,0.003897593,0.003375429,1.004748,29.93778,9.62112,-25.09227,1010.065
0.606858254,0.07523298,0.2430426,-0.1597527,-0.0004979379,0.004317251,1.000915,29.93778,9.62112,-25.09227,1010.065
0.609335423,0.07523298,0.3035553,-0.2209152,0.000943637,0.009201078,1.003828,29.93778,9.62112,-25.09227,1010.065
0.611812115,-0.04723396,0.2430426,-0.1597527,0.003886693,0.005323126,1.004758,29.93778,9.62112,-25.09227,1010.065
0.614289761,0.0139995,0.0615045,-0.2209152,0.004375725,0.003372087,1.002332,29.19095,9.979851,-25.09597,1010.065
0.616766453,0.0139995,0.0615045,-0.2209152,-0.00295298,0.01113216,1.005308,29.19095,9.979851,-25.09597,1010.065
0.619243622,0.1976999,0.1220172,-0.2209152,0.004394291,0.002407612,1.006188,29.19095,9.979851,-25.09597,1010.065
0.621720314,0.1364664,0.1825299,-0.2209152,0.001457217,0.00433435,1.0038,29.19095,9.979851,-25.09597,1010.065
0.624197483,0.1364664,0.2430426,-0.1597527,0.001438073,0.003342924,0.9965553,29.19095,9.979851,-25.09597,1010.065
0.626674175,0.07523298,0.1220172,-0.1597527,-0.0009788168,0.003340886,1.000913,29.19095,9.979851,-25.09597,1010.065
0.629151344,0.07523298,0.2430426,-0.1597527,0.0004676764,0.008228227,1.005274,29.19095,9.979851,-25.09597,1010.065
0.631628037,0.1364664,0.1220172,-0.1597527,0.002902026,0.006287255,1.002837,29.19095,9.979851,-25.09597,1010.065
0.634105206,0.2589334,-0.05952091,-0.1597527,0.001929344,0.004815589,1.000422,29.19095,9.979851,-25.09597,1010.065
0.636581898,0.3201669,0.0009917939,-0.2209152,0.002895999,0.005305204,0.9994535,29.19095,9.979851,-25.09597,1010.065
0.639059544,0.1364664,0.2430426,-0.4044026,0.0009479788,0.007248693,1.001888,29.19095,9.979851,-25.09597,1010.065
0.641535759,0.07523298,0.1220172,-0.1597527,-1.539662E-05,0.006761421,1.003821,29.19095,9.979851,-25.09597,1010.065
0.644013405,0.0139995,0.0615045,-0.1597527,0.002395536,0.01018131,1.003343,29.19095,9.979851,-25.09597,1010.065
0.646490097,0.1364664,0.1825299,-0.1597527,0.005318939,0.007755925,1.000901,29.19095,9.979851,-25.09597,1010.065
0.648967266,0.2589334,0.1825299,-0.03742781,0.004848429,0.005809226,1.002342,29.19095,9.979851,-25.09597,1010.065
0.651443958,0.3201669,0.1825299,-0.1597527,-0.001480412,0.00577182,1.000445,29.19095,9.979851,-25.09597,1010.065
0.653921127,0.0139995,0.3035553,-0.1597527,0.002433132,0.002875095,1.00234,29.19095,9.979851,-25.09597,1010.065
0.656397820,-0.04723396,0.1825299,-0.1597527,0.002427659,0.002382311,0.9999238,29.19095,9.979851,-25.09597,1010.065
0.658874989,0.1976999,0.1220172,-0.09859026,0.003396553,0.006295631,1.005248,29.19095,9.979851,-25.09597,1010.065
0.661351681,0.3201669,0.0615045,-0.2820776,0.003375838,0.00970293,1.004783,29.19095,9.979851,-25.09597,1010.065
0.663829327,0.1976999,0.1825299,-0.3432401,0.0009916481,0.003857798,1.00911,29.55574,10.35053,-25.10384,1010.065
0.666305542,0.07523298,0.2430426,-0.2820776,0.00290639,0.005801503,1.003317,29.55574,10.35053,-25.10384,1010.065
0.668783188,0.1976999,0.1220172,-0.03742781,0.002421101,0.002377624,0.997993,29.55574,10.35053,-25.10384,1010.065
0.671259880,0.3201669,0.1825299,-0.09859026,0.007271347,0.006793316,1.001368,29.55574,10.35053,-25.10384,1010.065
0.673737049,0.2589334,0.1220172,-0.2820776,0.004326651,0.01067009,0.999956,29.55574,10.35053,-25.10384,1010.065
0.676213741,0.07523298,0.3035553,-0.1597527,0.003863761,0.006773354,1.000421,29.55574,10.35053,-25.10384,1010.065
0.678690910,0.07523298,0.3035553,-0.09859026,0.006330348,0.004366549,1.00667,29.55574,10.35053,-25.10384,1010.065
0.681167603,0.07523298,0.1220172,-0.2820776,0.001922832,0.007744166,1.003333,29.55574,10.35053,-25.10384,1010.065
0.683644772,0.07523298,0.1825299,-0.2209152,-0.0039164,0.00771162,1.002399,29.55574,10.35053,-25.10384,1010.066
0.686121464,0.1364664,0.0615045,-0.2209152,0.0004567306,0.00724266,1.000442,29.55574,10.35053,-25.10384,1010.066
0.688599110,0.07523298,0.0615045,-0.2209152,0.00193865,0.005799984,1.004771,29.55574,10.35053,-25.10384,1010.066
0.691075325,0.1364664,0.0615045,-0.1597527,0.003410664,-4.96211E-05,0.9989404,29.55574,10.35053,-25.10384,1010.066
0.693552971,0.3201669,0.0615045,-0.1597527,0.002437497,0.002389342,1.00282,29.55574,10.35053,-25.10384,1010.066
0.696029663,0.1976999,0.1825299,0.02373465,0.0004731494,0.008721011,1.00769,29.55574,10.35053,-25.10384,1010.066
0.698506832,0.1364664,0.0009917939,-0.03742781,0.001435948,0.007252381,1.002368,29.55574,10.35053,-25.10384,1010.066
0.700983524,0.1976999,-0.05952091,-0.09859026,0.00533529,0.004834379,1.000886,29.55574,10.35053,-25.10384,1010.066
0.703460694,0.1364664,0.0009917939,-0.1597527,0.001458325,0.005312886,1.005736,29.55574,10.35053,-25.10384,1010.066
0.705937386,0.1364664,0.0009917939,-0.09859026,0.001442483,0.005790437,1.001877,29.55574,10.35053,-25.10384,1010.066
0.708414555,0.3201669,0.1220172,-0.1597527,0.0004665225,0.004316426,0.9984964,29.55574,10.35053,-25.10384,1010.066
0.710891247,0.0139995,0.1825299,-0.2209152,-0.000976623,0.003831326,1.002363,29.55574,10.35053,-25.10384,1010.066
0.713368416,0.0139995,0.2430426,-0.2209152,0.002415119,0.004328838,0.9994511,29.56149,9.983833,-25.09736,1010.066
0.715845108,0.0139995,0.1825299,-0.09859026,0.001929367,0.006282222,1.002843,29.56149,9.983833,-25.09736,1010.066
0.718322754,0.1364664,0.3035553,-0.3432401,-0.000995744,0.004306532,0.997539,29.56149,9.983833,-25.09736,1010.066
0.720799446,0.0139995,0.1220172,-0.09859026,-0.001001726,0.006257745,0.998997,29.56149,9.983833,-25.09736,1010.066
0.723276615,-0.04723396,0.1220172,-0.1597527,0.002884544,0.006763633,0.9984958,29.56149,9.983833,-25.09736,1010.067
0.725753308,0.07523298,0.1825299,-0.2209152,-0.003935544,0.006720195,0.9951541,29.56149,9.983833,-25.09736,1010.067
0.728230477,0.07523298,0.1220172,-0.1597527,0.001439204,0.005788093,1.000912,29.56149,9.983833,-25.09736,1010.067
0.730707169,0.1976999,0.2430426,-0.1597527,0.003394359,0.005805191,1.003797,29.56149,9.983833,-25.09736,1010.067
0.733184338,0.1976999,0.1220172,-0.2209152,0.004847366,0.007763955,1.005248,29.56149,9.983833,-25.09736,1010.067
0.735661030,0.1976999,0.0009917939,-0.3432401,0.0004796619,0.005792433,1.004779,29.56149,9.983833,-25.09736,1010.067
0.738138199,0.1976999,0.1220172,-0.1597527,0.0004736579,0.006277015,1.003816,29.56149,9.983833,-25.09736,1010.067
0.740614891,0.1364664,0.0615045,-0.2209152,0.002432601,0.003852459,1.003793,29.56149,9.983833,-25.09736,1010.067
0.743092537,0.0139995,0.0009917939,-0.1597527,-0.0009690023,0.001881284,1.001388,29.56149,9.983833,-25.09736,1010.067
0.745569229,0.0139995,0.3035553,-0.2820776,-0.0005175902,0.005769823,0.9975439,29.56149,9.983833,-25.09736,1010.067
0.748046398,0.07523298,0.1825299,-0.1597527,0.005298732,0.008719228,0.9965618,29.56149,9.983833,-25.09736,1010.067
0.750523091,0.2589334,0.0009917939,-0.2209152,0.007266451,0.008256434,1.002341,29.56149,9.983833,-25.09736,1010.067
0.753000260,0.2589334,0.3035553,-0.1597527,0.001925025,0.008234607,1.004783,29.56149,9.983833,-25.09736,1010.067
0.755476952,0.07523298,0.1220172,-0.1597527,0.004375702,0.001905454,0.9999107,29.56149,9.983833,-25.09736,1010.067
0.757954121,0.0139995,0.1220172,-0.2209152,-0.0005105007,0.004797145,0.9980215,29.56149,9.983833,-25.09736,1010.067
0.760430813,0.07523298,0.1220172,-0.2820776,0.002429898,0.005806016,1.006216,29.56149,9.983833,-25.09736,1010.067
0.765384674,0.1364664,0.1220172,-0.1597527,0.0004610724,0.005290275,0.9985014,28.82042,9.975868,-25.09458,1010.063
0.767862320,0.1976999,0.0615045,-0.1597527,-0.000970596,0.004813377,1.005747,28.82042,9.975868,-25.09458,1010.063
0.770338535,0.0139995,0.2430426,-0.2209152,0.004847321,0.00483069,1.000406,28.82042,9.975868,-25.09458,1010.063
0.772816181,0.1364664,0.1825299,-0.2820776,0.003876855,0.005316096,1.001862,28.82042,9.975868,-25.09458,1010.063
0.775292874,0.2589334,0.0615045,-0.2209152,0.004840231,0.005803367,0.9999281,28.82042,9.975868,-25.09458,1010.063
0.777770043,0.07523298,0.0009917939,-0.2820776,-0.0005295763,0.008205617,0.9980391,28.82042,9.975868,-25.09458,1010.063
0.780246735,0.07523298,0.0615045,-0.1597527,0.002443501,0.001904761,1.003783,28.82042,9.975868,-25.09458,1010.063
0.782723904,0.1364664,0.2430426,-0.1597527,0.00388995,0.003858838,1.003302,28.82042,9.975868,-25.09458,1010.063
0.785200596,0.1364664,0.3035553,-0.2209152,0.001450105,0.003840395,1.000902,28.82042,9.975868,-25.09458,1010.063
0.787677765,0.1976999,-0.05952091,-0.2820776,0.001471374,0.0009223631,1.002335,28.82042,9.975868,-25.09458,1010.063
0.790154457,0.1364664,0.0615045,-0.3432401,0.003395399,0.00238383,0.9984704,28.82042,9.975868,-25.09458,1010.063
0.792632103,0.1364664,0.1825299,-0.1597527,0.004360968,0.00336154,0.9979874,28.82042,9.975868,-25.09458,1010.063
0.795108319,0.1364664,0.0009917939,-0.09859026,0.001459965,0.005314058,1.006219,28.82042,9.975868,-25.09458,1010.063
0.797585964,0.07523298,0.1220172,-0.03742781,0.0009714414,0.004821101,1.004771,28.82042,9.975868,-25.09458,1010.063
0.800062657,0.1364664,0.0615045,-0.2820776,-3.34091E-05,0.008215165,1.000933,28.82042,9.975868,-25.09458,1010.063
0.802539826,0.1364664,0.0009917939,-0.2209152,0.00434187,0.005303379,0.9955841,28.82042,9.975868,-25.09458,1010.066
0.805016518,0.3814003,0.0009917939,-0.1597527,0.002908053,0.007269306,1.006221,28.82042,9.975868,-25.09458,1010.066
0.807493687,0.2589334,0.0009917939,-0.2820776,0.002399854,0.006762288,0.9989809,28.82042,9.975868,-25.09458,1010.066
0.809970379,0.07523298,0.1825299,-0.1597527,-0.0009902711,0.004799316,0.9999549,28.82042,9.975868,-25.09458,1010.066
0.812447548,0.1364664,0.1825299,-0.09859026,0.007303539,0.003394219,1.005212,28.82042,9.975868,-25.09458,1010.066
0.814924240,-0.04723396,0.1825299,-0.1597527,-0.001963993,0.006749011,1.002866,29.19095,9.979851,-25.09597,1010.066
0.817401886,0.07523298,0.2430426,-0.1597527,0.0004648829,0.004315254,0.9980137,29.19095,9.979851,-25.09597,1010.066
0.819878102,0.0139995,0.3035553,0.02373465,0.005318362,0.005800026,0.9975121,29.19095,9.979851,-25.09597,1010.066
0.822355747,0.0139995,0.1220172,-0.3432401,0.001939713,0.003845255,1.001865,29.19095,9.979851,-25.09597,1010.066
0.824832440,0.0139995,-0.05952091,-0.2209152,-1.322571E-05,0.005785229,1.002851,29.19095,9.979851,-25.09597,1010.066
0.827309609,0.1976999,0.0009917939,-0.09859026,-0.0004777317,0.003353949,1.005254,29.19095,9.979851,-25.09597,1010.066
0.829786301,0.07523298,0.2430426,-0.03742781,0.0004643744,0.006759251,1.001888,29.19095,9.979851,-25.09597,1010.066
0.832263470,0.1364664,0.1220172,-0.2209152,0.0009037554,0.01015032,0.9936972,29.19095,9.979851,-25.09597,1010.066
0.834740162,0.1364664,0.0009917939,-0.1597527,0.001471928,0.001411631,1.003303,29.19095,9.979851,-25.09597,1010.066
0.837217331,0.1976999,0.1825299,-0.03742781,0.002922209,0.003857319,1.004755,29.19095,9.979851,-25.09597,1010.066
0.839694023,0.1976999,0.2430426,-0.2820776,-0.0005175902,0.005769823,0.9975439,29.19095,9.979851,-25.09597,1010.066
0.842171192,0.2589334,0.1220172,-0.1597527,-0.00100877,0.01016369,1.003361,29.19095,9.979851,-25.09597,1010.063
0.844647885,0.1364664,0.0615045,-0.09859026,0.004350091,0.006775871,1.000418,29.19095,9.979851,-25.09597,1010.063
0.847125530,0.0139995,0.2430426,-0.2820776,0.001942992,0.003847599,1.00283,29.19095,9.979851,-25.09597,1010.063
0.849602223,-0.04723396,0.3035553,-0.1597527,0.001441375,0.0048119,0.9999416,29.19095,9.979851,-25.09597,1010.063
0.852079392,0.0139995,0.1220172,-0.2209152,0.002411863,0.005793126,1.000907,29.19095,9.979851,-25.09597,1010.063
0.854556084,0.1976999,0.0009917939,-0.2820776,0.0004867064,0.001886491,1.000414,29.19095,9.979851,-25.09597,1010.063
0.857033253,0.1976999,0.1825299,-0.3432401,-1.652772E-05,0.004316253,0.9994643,29.19095,9.979851,-25.09597,1010.063
0.859509945,0.07523298,0.2430426,-0.2820776,0.00339108,0.005802847,1.002832,29.19095,9.979851,-25.09597,1010.063
0.861987114,0.0139995,0.1825299,-0.1597527,0.004850046,0.004343765,1.000403,29.19095,9.979851,-25.09597,1010.063
0.864463806,0.0139995,0.0009917939,-0.09859026,0.005324389,0.006782077,1.000896,29.57133,9.304342,-25.46549,1010.063
0.866940975,0.1364664,-0.05952091,-0.03742781,0.004836974,0.007267656,1.001384,29.57133,9.304342,-25.46549,1010.063
0.869417668,0.1364664,-0.05952091,-0.2209152,0.0004807475,0.005304337,1.004293,29.57133,9.304342,-25.46549,1010.063
0.871895313,0.1364664,0.1825299,-0.4044026,0.003889418,0.004836202,1.004755,29.57133,9.304342,-25.46549,1010.063
0.874372006,0.07523298,0.2430426,-0.09859026,0.000940335,0.007732102,1.000442,29.57133,9.304342,-25.46549,1010.063
0.876849175,0.1364664,0.1825299,-0.2209152,0.002894405,0.008237297,1.003813,29.57133,9.304342,-25.46549,1010.063
0.879325867,0.1976999,0.0009917939,-0.2209152,0.002887823,0.006765977,0.9994611,29.57133,9.304342,-25.46549,1010.063
0.881803036,0.1364664,0.1220172,-0.1597527,0.001445785,0.007259412,1.005264,29.57133,9.304342,-25.46549,1010.063
0.884279728,0.1364664,0.1220172,-0.1597527,-3.066123E-05,0.009194872,1.003351,29.57133,9.304342,-25.46549,1010.064
0.886756897,0.07523298,-0.05952091,-0.09859026,0.001955555,0.003367705,1.005724,29.57133,9.304342,-25.46549,1010.064
0.889233589,0.1976999,0.0009917939,-0.2209152,0.0005020171,0.002386305,1.005726,29.57133,9.304342,-25.46549,1010.064
0.891710758,0.1976999,0.2430426,-0.1597527,-0.004880929,0.003312548,0.9975551,29.57133,9.304342,-25.46549,1010.064
0.894187451,0.0139995,0.0009917939,-0.4044026,0.000493265,0.001891178,1.002345,29.57133,9.304342,-25.46549,1010.064
0.896665096,0.07523298,0.1825299,-0.2820776,-0.0004941048,0.004808863,1.002848,29.57133,9.304342,-25.46549,1010.064
0.899141312,0.07523298,0.2430426,-0.09859026,0.001895004,0.01065751,0.9999692,29.57133,9.304342,-25.46549,1010.064
0.901618958,0.1364664,-0.05952091,-0.09859026,0.003868126,0.006287602,1.000901,29.57133,9.304342,-25.46549,1010.064
0.914003372,0.1364664,-0.05952091,-0.09859026,0.005821065,0.004347628,0.9999153,29.57133,9.304342,-25.46549,1010.064
0.914003372,0.1364664,-0.05952091,-0.09859026,0.005821065,0.004347628,0.9999153,29.57133,9.304342,-25.46549,1010.064
0.916480541,0.07523298,0.1220172,-0.2209152,0.004845681,0.004829518,0.9999231,29.57133,9.304342,-25.46549,1010.064
0.918957234,0.07523298,0.2430426,-0.1597527,0.003405836,0.005813394,1.007176,29.57133,9.304342,-25.46549,1010.064
0.921434880,0.07523298,0.1825299,-0.2209152,0.0009932874,0.00385897,1.009593,29.57133,9.304342,-25.46549,1010.064
0.923911095,0.1364664,0.1825299,-0.3432401,0.004869167,0.003868559,1.005227,29.57133,9.304342,-25.46549,1010.065
0.926388741,0.07523298,0.3035553,-0.2820776,0.004315196,0.01212852,0.998998,29.57133,9.304342,-25.46549,1010.065
0.928865433,0.0139995,0.2430426,-0.2209152,0.004347389,0.008729428,1.002842,29.57133,9.304342,-25.46549,1010.065
0.931342602,0.07523298,-0.05952091,-0.1597527,0.002907499,0.006780039,1.005253,29.57133,9.304342,-25.46549,1010.065
0.933819294,0.07523298,0.1825299,-0.2820776,0.00240475,0.005299171,0.9980081,29.57133,9.304342,-25.46549,1010.065
0.936296463,0.1364664,0.2430426,-0.3432401,0.0009441685,0.008223714,1.002375,29.57133,9.304342,-25.46549,1010.065
0.938773155,0.1364664,0.1220172,-0.2209152,0.004827137,0.007260625,0.9984877,29.57133,9.304342,-25.46549,1010.065
0.941250324,0.1364664,0.1220172,-0.1597527,0.001941907,0.004335695,1.003315,29.57133,9.304342,-25.46549,1010.065
0.943727017,0.1364664,-0.05952091,-0.1597527,-0.003915869,0.006734256,1.000946,29.57133,9.304342,-25.46549,1010.065
0.946204663,0.2589334,0.0009917939,-0.2209152,-0.0009809651,0.005783711,1.004304,29.57133,9.304342,-25.46549,1010.065
0.948680878,0.0139995,0.0615045,-0.2209152,0.00291893,0.003854976,1.00379,29.57133,9.304342,-25.46549,1010.065
0.951158524,0.0139995,-0.05952091,-0.09859026,0.005334204,0.005322475,1.001371,29.57133,9.304342,-25.46549,1010.065
0.953635216,0.1364664,0.0615045,-0.2209152,0.00336704,0.006274539,0.9965598,29.57133,9.304342,-25.46549,1010.065
0.956112385,0.1976999,0.2430426,-0.1597527,0.0009272408,0.00918936,0.9990014,29.57133,9.304342,-25.46549,1010.065
0.958589077,0.1364664,0.0615045,-0.1597527,0.0004818558,0.006282873,1.006229,29.57133,9.304342,-25.46549,1010.065
0.961066246,0.1976999,0.1825299,-0.2820776,0.000473612,0.003343749,0.9989739,29.57133,9.304342,-25.46549,1010.065
0.963542938,0.0139995,0.1825299,-0.2820776,0.001427196,0.006757254,0.9989862,29.57133,9.304342,-25.46549,1010.065
0.966020107,0.0139995,0.2430426,-0.3432401,0.002398769,0.007250384,0.9994662,29.56078,9.976616,-25.47738,1010.065
0.968496800,0.07523298,0.1220172,-0.4044026,0.002410223,0.005791955,1.000424,29.56078,9.976616,-25.47738,1010.065
0.970973969,0.1364664,0.1220172,-0.1597527,0.002408052,0.006768147,1.001394,29.56078,9.976616,-25.47738,1010.065
0.973450661,0.1364664,0.1825299,-0.09859026,0.0009331771,0.004304882,0.9927016,29.56078,9.976616,-25.47738,1010.065
0.975928307,0.0139995,0.1220172,-0.09859026,0.001929875,0.003838224,0.9989685,29.56078,9.976616,-25.47738,1010.065
0.978404999,0.1976999,0.2430426,-0.2209152,0.001431538,0.004804869,0.9970455,29.56078,9.976616,-25.47738,1010.065
0.980882168,0.1976999,0.2430426,-0.2820776,0.001921723,0.00676563,1.001397,29.56078,9.976616,-25.47738,1010.065
0.983358860,0.1976999,0.0615045,-0.2209152,0.001403733,0.009184847,0.9961029,29.56078,9.976616,-25.47738,1010.065
0.985836029,0.07523298,0.1825299,-0.2820776,0.003868126,0.006287602,1.000901,29.56078,9.976616,-25.47738,1010.065
0.988312721,0.07523298,0.2430426,-0.2820776,0.002934218,0.002888158,1.006681,29.56078,9.976616,-25.47738,1010.065
0.990789890,-0.1084674,0.2430426,-0.2209152,0.004383368,0.002888678,1.003777,29.56078,9.976616,-25.47738,1010.065
0.993266582,0.1364664,0.1220172,-0.2820776,0.002899323,0.008240812,1.005261,29.56078,9.976616,-25.47738,1010.065
0.995743752,0.1364664,0.0009917939,-0.2820776,0.0009501728,0.007739132,1.003338,29.56078,9.976616,-25.47738,1010.065
0.998220444,0.07523298,0.1220172,-0.2209152,0.0009681853,0.00628539,1.006227,29.56078,9.976616,-25.47738,1010.065
1.000698090,0.0139995,0.1220172,0.02373465,-0.00293612,0.005766612,1.001418,29.56078,9.976616,-25.47738,1010.065
1.003174782,0.0139995,0.1825299,-0.2820776,0.001917336,0.005784751,0.998496,29.56078,9.976616,-25.47738,1010.066
1.005651951,0.1364664,0.1220172,-0.2820776,-0.0005388826,0.007221221,0.99369,29.56078,9.976616,-25.47738,1010.066
1.008128643,0.07523298,0.1825299,-0.2209152,0.0009594331,0.005790263,1.002845,29.56078,9.976616,-25.47738,1010.066
1.010605812,0.1976999,0.0615045,-0.4044026,0.0004806793,0.0009044396,0.9970307,29.56078,9.976616,-25.47738,1010.066
1.013082504,0.1364664,0.2430426,-0.1597527,0.002928722,0.0009287419,1.001844,29.56078,9.976616,-25.47738,1010.066
1.015559673,-0.04723396,0.2430426,-0.03742781,0.003393228,0.003360022,0.9994408,29.56078,9.976616,-25.47738,1010.066
1.018036366,0.1364664,0.0615045,-0.1597527,0.004842401,0.004827174,0.9989576,29.55503,10.34331,-25.48385,1010.066
1.020513535,0.0139995,0.1220172,-0.2209152,0.007748969,0.00923397,1.002826,29.55503,10.34331,-25.48385,1010.066
1.022990227,0.1364664,0.0615045,-0.1597527,0.0004807704,0.006770969,1.006714,29.55503,10.34331,-25.48385,1010.066
1.025467873,0.07523298,0.364068,-0.2820776,0.002927083,0.0009275698,1.001361,29.55503,10.34331,-25.48385,1010.066
1.027944088,0.07523298,0.1825299,-0.3432401,0.003383991,0.006775524,1.002355,29.55503,10.34331,-25.48385,1010.066
1.030421734,0.0139995,0.0615045,-0.2209152,0.001440844,0.005789264,1.001395,29.55503,10.34331,-25.48385,1010.066
1.035375595,0.1976999,0.0615045,-0.1597527,0.00240803,0.005301515,0.9989734,29.55503,10.34331,-25.48385,1010.066
1.037852287,0.1364664,0.1825299,-0.1597527,0.004347943,0.009218697,1.00381,29.55503,10.34331,-25.48385,1010.066
1.040329456,0.07523298,0.1825299,-0.1597527,-0.0005306618,0.008693714,0.9985243,29.55503,10.34331,-25.48385,1010.066
1.042806149,0.07523298,0.0615045,-0.03742781,0.005332542,0.003854671,0.9984674,29.55503,10.34331,-25.48385,1010.067
1.045283318,0.1976999,0.0615045,-0.1597527,0.001934817,0.005308372,1.002837,29.55503,10.34331,-25.48385,1010.067
1.047760010,0.0139995,0.1825299,-0.2820776,0.004362099,0.00580671,1.002344,29.55503,10.34331,-25.48385,1010.067
1.050237656,0.1976999,0.1220172,-0.2209152,0.002894936,0.007259932,1.00236,29.55503,10.34331,-25.48385,1010.067
1.052713871,0.3201669,0.0615045,-0.1597527,0.004853856,0.003368745,0.9999155,29.55503,10.34331,-25.48385,1010.067
1.055191517,0.1976999,0.3035553,-0.2820776,0.0004845581,0.004329316,1.003806,29.55503,10.34331,-25.48385,1010.067
1.057668209,0.1364664,0.1220172,-0.1597527,0.003874153,0.007269653,1.004285,29.55503,10.34331,-25.48385,1010.067
1.060145378,0.1976999,0.1825299,-0.1597527,0.002888886,0.004811248,0.9965549,29.55503,10.34331,-25.48385,1010.067
1.062622070,0.1364664,0.0009917939,-0.2209152,0.003887756,0.003368398,1.001852,29.55503,10.34331,-25.48385,1010.067
1.065099239,0.07523298,0.0615045,-0.09859026,0.004845749,0.009229416,1.007186,29.55503,10.34331,-25.48385,1010.067
1.067575932,0.07523298,0.1825299,-0.09859026,0.003866001,0.01019706,1.006714,29.1967,9.613155,-25.08949,1010.067
1.070053101,0.1364664,0.0009917939,-0.2209152,-2.1955E-05,0.006756735,1.00189,29.1967,9.613155,-25.08949,1010.067
1.072529793,0.0139995,0.1220172,-0.1597527,0.001444145,0.00725824,1.004781,29.1967,9.613155,-25.08949,1010.067
1.075007439,0.0139995,0.1825299,-0.1597527,0.001890639,0.01114326,0.9994889,29.1967,9.613155,-25.08949,1010.067
1.077483654,0.1976999,0.1220172,-0.1597527,0.003861014,0.005793646,0.9980026,29.1967,9.613155,-25.08949,1010.067
1.079961300,0.1364664,0.1220172,-0.09859026,0.00290198,0.00335399,0.9979954,29.1967,9.613155,-25.08949,1010.067
1.082437992,0.1976999,0.1825299,-0.2820776,0.005329262,0.003852327,0.997502,29.1967,9.613155,-25.08949,1010.066
1.084915161,0.1364664,0.2430426,-0.2209152,0.0009523209,0.005296308,0.9999468,29.1967,9.613155,-25.08949,1010.066
1.087391853,0.1976999,0.1220172,-0.1597527,0.005817808,0.005811916,1.001371,29.1967,9.613155,-25.08949,1010.066
1.089869022,0.07523298,0.1825299,-0.1597527,0.002439668,0.001413149,1.001849,29.1967,9.613155,-25.08949,1010.066
1.092345715,0.0139995,0.1825299,-0.09859026,0.001457726,0.001890353,0.9999266,29.1967,9.613155,-25.08949,1010.066
1.094822884,0.07523298,-0.05952091,-0.1597527,0.004349582,0.009219868,1.004292,29.1967,9.613155,-25.08949,1010.066
1.097299576,0.07523298,0.1220172,-0.2209152,-1.70588E-05,0.005293617,1.000917,29.1967,9.613155,-25.08949,1010.066
1.099776745,0.1364664,0.0615045,-0.1597527,0.007293169,0.004364552,1.003769,29.1967,9.613155,-25.08949,1010.066
1.102253437,0.1364664,0.0009917939,-0.2209152,0.0004922019,0.003845907,1.005251,29.1967,9.613155,-25.08949,1010.066
1.104731083,0.07523298,0.0009917939,-0.2209152,0.002416227,0.005307374,1.001387,29.1967,9.613155,-25.08949,1010.066
1.107207775,0.1976999,0.0615045,-0.3432401,0.00436972,0.003856668,1.001369,29.1967,9.613155,-25.08949,1010.066
1.109684944,0.1364664,0.1825299,-0.2820776,0.002903088,0.004332526,0.9999312,29.1967,9.613155,-25.08949,1010.066
1.112161636,0.1976999,0.1825299,-0.2820776,0.002889463,0.006767149,0.9999438,29.1967,9.613155,-25.08949,1010.066
1.114638805,0.1976999,0.1825299,-0.3432401,0.00485501,0.007280546,1.006693,29.1967,9.613155,-25.08949,1010.066
1.117115498,0.07523298,0.0615045,-0.2820776,0.003395999,0.005806363,1.00428,29.56149,9.983833,-25.09736,1010.066
1.119592667,-0.04723396,0.1220172,-0.2209152,0.002415651,0.003351473,0.9979981,29.56149,9.983833,-25.09736,1010.066
1.122069359,-0.04723396,0.0615045,-0.1597527,-3.387919E-06,0.00579226,1.005747,29.56149,9.983833,-25.09736,1010.066
1.124546528,0.0139995,0.1825299,-0.2209152,0.003863207,0.006284086,0.9994532,29.56149,9.983833,-25.09736,1010.068
1.127023220,0.1364664,0.1220172,-0.1597527,0.0004774914,0.006768626,1.005749,29.56149,9.983833,-25.09736,1010.068
1.129500866,0.2589334,0.1220172,-0.2820776,0.004853879,0.004835377,1.002337,29.56149,9.983833,-25.09736,1010.068
1.131977558,0.3814003,0.0615045,-0.09859026,0.000951258,0.007251036,1.002853,29.56149,9.983833,-25.09736,1010.068
1.134454727,0.07523298,0.2430426,-0.09859026,0.006311273,0.007775021,1.006688,29.56149,9.983833,-25.09736,1010.068
1.136931419,0.07523298,0.2430426,-0.09859026,0.003863761,0.006773354,1.000421,29.56149,9.983833,-25.09736,1010.068
1.139408588,0.1364664,0.1220172,-0.2820776,-3.34091E-05,0.008215165,1.000933,29.56149,9.983833,-25.09736,1010.068
1.141885281,0.1364664,0.1220172,-0.2209152,0.006272454,0.006769534,0.9936504,29.56149,9.983833,-25.09736,1010.068
1.144362450,0.2589334,0.0009917939,-0.2209152,0.003373045,0.005789958,0.9975227,29.56149,9.983833,-25.09736,1010.068
1.146839142,0.2589334,0.0615045,-0.09859026,0.004387179,0.001913657,1.003289,29.56149,9.983833,-25.09736,1010.068
1.149316311,0.2589334,0.1220172,-0.1597527,0.001449019,0.004328491,1.001387,29.56149,9.983833,-25.09736,1010.068
1.151793003,0.0139995,0.1220172,-0.3432401,0.001926088,0.006279878,1.001877,29.56149,9.983833,-25.09736,1010.068
1.154270649,0.0139995,0.1220172,-0.2209152,0.003870851,0.005800677,1.000899,29.56149,9.983833,-25.09736,1010.068
1.156746864,0.1364664,0.1220172,-0.2820776,0.003358865,0.007735312,0.9965673,29.56149,9.983833,-25.09736,1010.068
1.159224510,0.07523298,0.1825299,-0.2209152,0.0028884,0.008721878,1.00285,29.56149,9.983833,-25.09736,1010.068
1.161701202,0.1364664,0.1825299,-0.1597527,-0.0009569479,0.003845387,1.008155,29.56149,9.983833,-25.09736,1010.068
1.164178371,-0.04723396,0.1220172,-0.2820776,0.0009850895,0.003853111,1.007179,29.56149,9.983833,-25.09736,1010.068
1.166655064,0.07523298,0.1825299,-0.1597527,0.004843464,0.002872446,0.9960516,29.56149,9.983833,-25.09736,1010.068
1.169132233,0.2589334,0.1825299,-0.09859026,0.003374684,0.00579113,0.9980053,28.81971,9.968651,-25.4746,1010.068
1.171608925,0.1364664,0.1825299,-0.2209152,0.002898746,0.006284912,1.001872,28.81971,9.968651,-25.4746,1010.068
1.174086094,0.07523298,0.1220172,-0.2209152,0.003388332,0.004823139,1.000414,28.81971,9.968651,-25.4746,1010.068
1.176562786,0.1364664,0.0615045,-0.1597527,0.001449019,0.004328491,1.001387,28.81971,9.968651,-25.4746,1010.068
1.179040432,0.0139995,0.2430426,-0.1597527,0.002402602,0.007741996,1.001399,28.81971,9.968651,-25.4746,1010.068
1.181516647,0.0139995,0.0009917939,-0.2209152,0.0009632439,0.004815242,1.002358,28.81971,9.968651,-25.4746,1010.068
1.183994293,0.07523298,0.0009917939,-0.09859026,0.0009544913,0.004320115,0.9989763,28.81971,9.968651,-25.4746,1010.068
1.186470985,0.1364664,0.0615045,-0.1597527,0.005820556,0.006791624,1.003789,28.81971,9.968651,-25.4746,1010.068
1.188948154,0.1364664,0.2430426,-0.2209152,0.001469248,0.004831821,1.008147,28.81971,9.968651,-25.4746,1010.068
1.191424847,0.2589334,0.1825299,-0.2820776,0.002898746,0.006284912,1.001872,28.81971,9.968651,-25.4746,1010.068
1.193902016,0.1364664,0.1220172,-0.2209152,0.0004834272,0.001884148,0.9994491,28.81971,9.968651,-25.4746,1010.068
1.196378708,0.07523298,0.1220172,-0.1597527,0.001455023,0.00384391,1.00235,28.81971,9.968651,-25.4746,1010.068
1.198855877,0.0139995,-0.05952091,-0.09859026,0.004356095,0.00629129,1.001381,28.81971,9.968651,-25.4746,1010.068
1.201332569,0.1364664,0.3035553,-0.2820776,0.00482716,0.008727258,1.000909,28.81971,9.968651,-25.4746,1010.068
1.203810215,0.1364664,0.1220172,-0.2820776,0.003891589,0.00386001,1.003785,28.81971,9.968651,-25.4746,1010.068
1.206286430,0.07523298,0.1220172,-0.1597527,0.004872446,0.003870903,1.006193,28.81971,9.968651,-25.4746,1010.068
1.208764076,0.1364664,0.1220172,-0.2209152,0.004851731,0.007278202,1.005728,28.81971,9.968651,-25.4746,1010.068
1.211240768,0.1364664,0.0615045,-0.09859026,0.000968694,0.003841393,1.002353,28.81971,9.968651,-25.4746,1010.068
1.213717938,0.0139995,0.1220172,-0.1597527,-0.001967826,0.006257399,1.000933,28.81971,9.968651,-25.4746,1010.068
1.216195107,0.07523298,0.1220172,-0.2820776,-0.002925729,0.006262911,1.005282,28.81971,9.968651,-25.4746,1010.068
1.218671799,0.3814003,0.2430426,-0.03742781,7.466879E-06,0.0009112969,1.000895,28.82042,9.975868,-25.09458,1010.068
1.221148491,0.3201669,0.1825299,-0.09859026,0.003372513,0.006767322,0.9989756,28.82042,9.975868,-25.09458,1010.068
1.223625660,0.1364664,0.1220172,-0.2209152,0.0009376099,0.008219027,1.000444,28.82042,9.975868,-25.09458,1010.068
1.226103306,0.07523298,0.1220172,-0.2820776,0.002439137,0.002390514,1.003303,28.82042,9.975868,-25.09458,1010.068
1.228579521,-0.04723396,0.2430426,-0.2209152,0.001459919,0.002380793,1.001377,28.82042,9.975868,-25.09458,1010.068
1.231056213,0.1364664,0.1825299,-0.2209152,1.35391E-05,0.004826614,1.00912,28.82042,9.975868,-25.09458,1010.068
1.233533859,0.2589334,0.1220172,-0.03742781,0.002890017,0.007256417,1.000912,28.82042,9.975868,-25.09458,1010.068
1.236011028,0.1976999,0.1220172,-0.03742781,0.0009201514,0.01016204,0.998524,28.82042,9.975868,-25.09458,1010.068
1.238487721,-0.04723396,0.1220172,-0.09859026,0.003385076,0.006287429,1.001869,28.82042,9.975868,-25.09458,1010.068
1.240964413,0.07523298,0.1220172,-0.2820776,-0.001000064,0.007725549,1.001901,28.82042,9.975868,-25.09458,1010.068
1.243441582,0.1976999,0.2430426,-0.3432401,0.003861545,0.004816282,0.9965496,28.82042,9.975868,-25.09458,1010.069
1.245918751,0.07523298,0.2430426,-0.2209152,0.001929875,0.003838224,0.9989685,28.82042,9.975868,-25.09458,1010.069
1.248395443,0.1364664,0.2430426,-0.1597527,0.002429876,0.004339383,1.003795,28.82042,9.975868,-25.09458,1010.069
1.250873089,0.2589334,0.1825299,-0.2209152,0.005835267,0.003868905,1.003291,28.82042,9.975868,-25.09458,1010.069
1.253349304,0.1976999,0.1825299,-0.2820776,0.001920615,0.005787094,0.9994613,28.82042,9.975868,-25.09458,1010.069
1.255826950,0.1976999,0.1825299,-0.2820776,-0.001479303,0.006750355,1.002381,28.82042,9.975868,-25.09458,1010.069
1.258303642,0.0139995,0.0615045,-0.2209152,0.0009484873,0.004804696,0.9980135,28.82042,9.975868,-25.09458,1010.069
1.260780811,0.0139995,0.1825299,-0.09859026,-0.001482628,0.003814747,0.9965737,28.82042,9.975868,-25.09458,1010.069
1.263257504,0.1364664,0.1220172,-0.2209152,0.00240639,0.005300343,0.9984908,28.82042,9.975868,-25.09458,1010.069
1.265734673,0.1364664,0.1220172,-0.2820776,0.0009621354,0.003836706,1.000422,28.82042,9.975868,-25.09458,1010.069
1.268211365,0.1364664,0.0009917939,-0.2209152,0.001914634,0.007738307,1.000919,29.5622,9.991051,-24.71734,1010.069
1.270688534,0.2589334,0.0615045,-0.2820776,0.005354388,0.00289254,1.003289,29.5622,9.991051,-24.71734,1010.069
1.273165226,0.1364664,0.0615045,-0.2209152,0.004829354,0.009217698,1.002359,29.5622,9.991051,-24.71734,1010.069
1.275642395,0.1364664,0.2430426,-0.1597527,0.007780608,0.005345605,1.005702,29.5622,9.991051,-24.71734,1010.069
1.278119087,0.2589334,0.2430426,-0.2209152,0.001940798,0.003357159,1.001379,29.5622,9.991051,-24.71734,1010.069
1.280596733,0.1364664,0.1220172,-0.3432401,-0.000527428,0.005762792,0.9946477,29.5622,9.991051,-24.71734,1010.069
1.283073425,0.0139995,0.1220172,-0.1597527,0.006804092,0.003382327,1.001353,29.5622,9.991051,-24.71734,1010.07
1.285550594,0.07523298,0.1825299,-0.2209152,-0.0009531148,0.004336999,1.010089,29.5622,9.991051,-24.71734,1010.07
1.288027287,-0.04723396,0.1220172,-0.2209152,-0.00245471,0.005765614,0.9999679,29.5622,9.991051,-24.71734,1010.07
1.290504456,0.1364664,0.2430426,-0.09859026,-0.002447575,0.007726201,1.005287,29.5622,9.991051,-24.71734,1010.07
1.292981148,0.1976999,-0.1200336,-0.2209152,-0.0005126263,0.008706603,1.003834,29.5622,9.991051,-24.71734,1010.07
1.295458317,0.1976999,0.0009917939,-0.2820776,-2.253195E-05,0.004800834,0.9985015,29.5622,9.991051,-24.71734,1010.07
1.297935009,0.07523298,0.1220172,-0.1597527,-4.216121E-05,0.007720037,0.9975513,29.5622,9.991051,-24.71734,1010.07
1.300412178,0.1976999,0.2430426,-0.3432401,-0.0005137345,0.007728066,1.001898,29.5622,9.991051,-24.71734,1010.07
1.302888870,0.3814003,0.1825299,-0.1597527,0.004362676,0.00776261,1.005733,29.5622,9.991051,-24.71734,1010.07
1.307843208,0.07523298,0.0615045,-0.1597527,-0.00194926,0.005292924,1.004789,29.5622,9.991051,-24.71734,1010.07
1.310320377,0.1364664,0.0009917939,-0.3432401,0.004394269,0.0009409797,1.003767,29.5622,9.991051,-24.71734,1010.07
1.312797070,0.1364664,0.2430426,-0.3432401,0.002411264,0.002370593,0.995097,29.5622,9.991051,-24.71734,1010.07
1.315274239,0.1364664,0.1220172,-0.3432401,0.001440844,0.005789264,1.001395,29.5622,9.991051,-24.71734,1010.07
1.317750931,0.3201669,0.1825299,-0.2820776,-0.001938891,0.00432259,1.006232,29.5622,9.991051,-24.71734,1010.07
1.320228100,0.1364664,0.1825299,-0.09859026,0.006297048,0.006787111,1.000891,29.19025,9.972633,-25.47599,1010.07
1.322704792,0.0139995,0.0009917939,-0.2209152,-0.0009869691,0.006268292,1.003341,29.19025,9.972633,-25.47599,1010.066
1.325181961,-0.04723396,0.1220172,-0.09859026,0.000490031,0.0048221,1.006222,29.19025,9.972633,-25.47599,1010.066
1.327658653,0.1364664,0.2430426,-0.1597527,-0.0004924878,0.003343402,1.00091,29.19025,9.972633,-25.47599,1010.066
1.330136299,0.0139995,0.0615045,-0.2209152,-1.645926E-05,0.008716151,1.006727,29.19025,9.972633,-25.47599,1010.066
1.332612991,0.1976999,0.0009917939,-0.2820776,-0.0009804566,0.003339714,1.00043,29.19025,9.972633,-25.47599,1010.066
1.335090160,0.1976999,0.0615045,-0.3432401,0.0004539827,0.006262952,0.9980237,29.19025,9.972633,-25.47599,1010.066
1.337566853,0.07523298,0.0615045,-0.2209152,0.006782823,0.006300359,0.9999201,29.19025,9.972633,-25.47599,1010.066
1.340044022,0.1976999,0.3035553,-0.09859026,-0.0005388826,0.007221221,0.99369,29.19025,9.972633,-25.47599,1010.066
1.342520714,0.07523298,0.3035553,-0.1597527,-0.001478218,0.00626226,1.001896,29.19025,9.972633,-25.47599,1010.066
1.344997883,0.0139995,0.1220172,-0.1597527,-0.001459097,0.005787053,1.00672,29.19025,9.972633,-25.47599,1010.066
1.347474575,0.07523298,0.0009917939,-0.1597527,-0.0004798798,0.005796774,1.008645,29.19025,9.972633,-25.47599,1010.066
1.349951744,0.07523298,-0.05952091,-0.03742781,0.003428169,0.000940633,1.005703,29.19025,9.972633,-25.47599,1010.066
1.352428436,0.1364664,0.1220172,-0.1597527,0.001926642,0.006769146,1.002845,29.19025,9.972633,-25.47599,1010.066
1.354906082,0.2589334,0.1825299,-0.2209152,0.00432933,0.007249906,0.9951115,29.19025,9.972633,-25.47599,1010.066
1.357382298,0.1364664,0.1220172,-0.2820776,0.001441929,0.005301168,1.00091,29.19025,9.972633,-25.47599,1010.066
1.359859943,0.07523298,0.1220172,-0.1597527,-0.00198584,0.007711141,0.9980445,29.19025,9.972633,-25.47599,1010.066
1.362336636,0.1976999,-0.05952091,-0.03742781,0.004852193,0.00190094,0.9970119,29.19025,9.972633,-25.47599,1010.067
1.364813805,0.2589334,0.1825299,-0.2209152,0.00337413,0.005301861,0.9970374,29.19025,9.972633,-25.47599,1010.067
1.367290497,0.1364664,0.4850934,-0.2209152,-0.003436629,0.007709449,1.000466,29.19025,9.972633,-25.47599,1010.067
1.369767666,0.07523298,0.3035553,-0.2820776,-0.002953025,0.008198892,1.000466,28.82042,9.975868,-25.09458,1010.067
1.372244358,0.1364664,0.0009917939,-0.03742781,0.00191244,0.007247868,0.9994689,28.82042,9.975868,-25.09458,1010.067
1.374721527,0.1976999,0.2430426,-0.2820776,0.002410201,0.004325322,0.9980031,28.82042,9.975868,-25.09458,1010.067
1.377198219,0.07523298,0.2430426,-0.2209152,0.003385076,0.006287429,1.001869,28.82042,9.975868,-25.09458,1010.067
1.379675865,0.1364664,0.0615045,-0.1597527,0.004347366,0.007262795,1.000421,28.82042,9.975868,-25.09458,1010.067
1.382152081,0.0139995,0.0009917939,-0.09859026,0.005327623,0.003851155,0.9970193,28.82042,9.975868,-25.09458,1010.067
1.384629726,0.1364664,0.0009917939,-0.2209152,0.0004719957,0.00480921,1.000912,28.82042,9.975868,-25.09458,1010.067
1.387106419,0.1364664,0.1220172,-0.2820776,0.003859351,0.004325842,0.9950991,28.82042,9.975868,-25.09458,1010.067
1.389583588,0.1364664,0.0009917939,-0.2820776,-9.992393E-06,0.002854308,0.9989741,28.82042,9.975868,-25.09458,1010.067
1.392060280,0.3814003,0.2430426,-0.2820776,-0.001939422,0.005299955,1.007685,28.82042,9.975868,-25.09458,1010.067
1.394537449,0.07523298,0.1220172,-0.1597527,0.001459388,0.003358157,1.00283,28.82042,9.975868,-25.09458,1010.067
1.397014141,0.1364664,0.1220172,-0.09859026,0.002406967,0.007256243,1.00188,28.82042,9.975868,-25.09458,1010.067
1.399491310,0.3814003,0.3035553,-0.2820776,-7.775612E-06,0.00481138,1.002846,28.82042,9.975868,-25.09458,1010.067
1.401968002,0.1364664,0.1825299,-0.3432401,-0.001490735,0.009675418,1.003844,28.82042,9.975868,-25.09458,1010.067
1.404445171,0.07523298,0.0615045,-0.1597527,0.0009294348,0.0096798,1.000452,28.82042,9.975868,-25.09458,1010.068
1.406921864,0.3201669,0.1825299,-0.2209152,-0.0009831816,0.003826638,1.000432,28.82042,9.975868,-25.09458,1010.068
1.409399510,0.1364664,0.1220172,-0.09859026,0.001950082,0.002874921,1.003308,28.82042,9.975868,-25.09458,1010.068
1.411876202,0.0139995,0.0615045,-0.09859026,0.001458325,0.005312886,1.005736,28.82042,9.975868,-25.09458,1010.068
1.414353371,0.07523298,0.364068,-0.1597527,-0.001975493,0.005274176,0.9970666,28.82042,9.975868,-25.09458,1010.068
1.416830063,0.1976999,0.2430426,-0.09859026,0.002420592,0.004821621,1.001867,28.82042,9.975868,-25.09458,1010.068
1.419307232,0.0139995,0.1825299,-0.03742781,0.002418421,0.005797814,1.002837,29.56078,9.976616,-25.47738,1010.068
1.421783924,-0.04723396,0.3035553,-0.09859026,0.005344573,0.004352141,1.002814,29.56078,9.976616,-25.47738,1010.068
1.424261093,0.0139995,0.2430426,-0.09859026,0.004835358,0.008733117,1.003322,29.56078,9.976616,-25.47738,1010.068
1.426737785,0.07523298,0.1825299,-0.2209152,0.00242394,0.009223862,1.010095,29.56078,9.976616,-25.47738,1010.068
1.429214954,0.1976999,0.1825299,-0.465565,0.005340208,0.004837894,1.002334,29.56078,9.976616,-25.47738,1010.068
1.431691647,0.1976999,0.1825299,-0.1597527,0.0004583704,0.007243832,1.000925,29.56078,9.976616,-25.47738,1010.068
1.434169293,0.1976999,0.1825299,-0.1597527,0.0009850669,0.002386478,1.004758,29.56078,9.976616,-25.47738,1010.068
1.436645985,0.1976999,0.1825299,-0.1597527,1.238566E-05,0.0009148124,1.002343,29.56078,9.976616,-25.47738,1010.068
1.439123154,0.1976999,0.0615045,-0.09859026,-4.597194E-05,0.008695059,0.9980389,29.56078,9.976616,-25.47738,1010.068
1.441599846,0.1364664,0.1825299,-0.1597527,0.0004567078,0.005776028,0.9980212,29.56078,9.976616,-25.47738,1010.068
1.444077015,0.1364664,0.0615045,-0.1597527,0.002398769,0.007250384,0.9994662,29.56078,9.976616,-25.47738,1010.068
1.446553707,0.1364664,0.0009917939,-0.1597527,0.00582596,0.00288451,0.9989423,29.56078,9.976616,-25.47738,1010.068
1.449030876,0.1364664,0.1825299,-0.4044026,0.001453361,0.002376106,0.9994463,29.56078,9.976616,-25.47738,1010.068
1.451507568,0.1364664,-0.05952091,-0.2820776,-0.0009503898,0.003850074,1.010086,29.56078,9.976616,-25.47738,1010.068
1.453984738,0.1364664,0.0615045,-0.1597527,0.001460474,0.002870061,1.002345,29.56078,9.976616,-25.47738,1010.068
1.456461430,0.07523298,0.1220172,-0.1597527,0.006817186,0.001925069,1.002793,29.56078,9.976616,-25.47738,1010.068
1.458939076,0.1364664,0.0009917939,-0.1597527,0.001479017,0.0004389537,1.00378,29.56078,9.976616,-25.47738,1010.068
1.461415768,0.1364664,0.1825299,-0.1597527,0.002425511,0.004825137,1.003315,29.56078,9.976616,-25.47738,1010.068
1.463892937,0.1976999,0.1220172,-0.1597527,0.003406414,0.007769294,1.010565,29.56078,9.976616,-25.47738,1010.068
1.466370106,0.2589334,0.1220172,-0.1597527,0.00242879,0.00482748,1.00428,29.56078,9.976616,-25.47738,1010.068
1.468846798,0.1364664,0.0615045,-0.1597527,-0.00339296,0.004318555,1.007688,29.56078,9.976616,-25.47738,1010.068
1.471323967,0.1364664,0.1220172,-0.1597527,0.002412994,0.008238295,1.005263,29.56078,9.976616,-25.47738,1010.068
1.473800659,0.07523298,0.1220172,-0.2820776,0.002908561,0.00482531,1.002347,29.56078,9.976616,-25.47738,1010.068
1.476277828,0.0139995,0.1220172,-0.2209152,0.002909669,0.005803846,1.004283,29.56078,9.976616,-25.47738,1010.068
1.478754521,0.1364664,0.2430426,-0.09859026,0.00192066,0.008720359,1.004303,29.56078,9.976616,-25.47738,1010.068
1.481232166,0.1976999,0.1825299,-0.1597527,0.004848429,0.005809226,1.002342,29.56078,9.976616,-25.47738,1010.068
1.483708859,0.1976999,0.0615045,-0.2820776,0.0004550912,0.007241488,0.9999595,29.56078,9.976616,-25.47738,1010.069
1.486186028,0.1364664,0.1220172,-0.2209152,-0.0009618897,0.002375239,1.004286,29.56078,9.976616,-25.47738,1010.069
1.488662720,0.07523298,0.1220172,-0.2209152,0.004854388,0.00239138,0.9984625,29.56078,9.976616,-25.47738,1010.069
1.491139889,0.2589334,0.1825299,-0.4044026,-0.001000618,0.007236281,1.000933,29.56078,9.976616,-25.47738,1010.069
1.493616581,0.1976999,0.1220172,-0.3432401,0.006291598,0.007760959,1.000896,29.56078,9.976616,-25.47738,1010.069
1.496093750,0.1364664,0.0615045,-0.2209152,0.005325475,0.00629398,1.000411,29.56078,9.976616,-25.47738,1010.069
1.498570442,0.1364664,0.0615045,-0.09859026,0.000481833,0.004816241,1.003808,29.56078,9.976616,-25.47738,1010.069
1.501047611,0.07523298,0.1220172,-0.2209152,0.00143701,0.005297652,0.9994614,29.56078,9.976616,-25.47738,1010.069
1.503524304,0.3814003,0.0009917939,-0.2209152,0.003884477,0.003366055,1.000886,29.56078,9.976616,-25.47738,1010.069
1.506001949,0.1364664,0.0615045,-0.2209152,-0.0009558855,0.001890658,1.005249,29.56078,9.976616,-25.47738,1010.069
1.508478642,0.1364664,0.1825299,-0.09859026,0.004369766,0.006789933,1.006211,29.56078,9.976616,-25.47738,1010.069
1.510955811,0.1976999,0.1825299,-0.09859026,0.007304624,0.002906122,1.004726,29.56078,9.976616,-25.47738,1010.069
1.513432503,0.07523298,0.1220172,-0.09859026,-0.003425198,0.004784388,0.9990026,29.56078,9.976616,-25.47738,1010.069
1.515909672,0.07523298,0.0615045,-0.1597527,9.129057E-06,0.002379101,1.003798,29.56078,9.976616,-25.47738,1010.069
1.518386364,0.0139995,0.1825299,-0.3432401,0.007286035,0.002403965,0.9984493,29.56078,9.976616,-25.47738,1010.069
1.520863533,0.1364664,0.0615045,-0.2820776,0.0009359934,0.009684487,1.002383,29.196,9.605938,-25.46951,1010.069
1.523340225,0.07523298,0.0009917939,-0.2209152,-0.000497384,0.004806519,1.001883,29.196,9.605938,-25.46951,1010.068
1.525817394,0.07523298,0.0615045,-0.09859026,0.0004294345,0.00917864,0.9956254,29.196,9.605938,-25.46951,1010.068
1.528294087,0.07523298,0.3035553,-0.2820776,0.0004638205,0.006269983,1.00092,29.196,9.605938,-25.46951,1010.068
1.530771732,0.1976999,0.2430426,-0.1597527,0.004362653,0.006295977,1.003312,29.196,9.605938,-25.46951,1010.068
1.533247948,0.1976999,0.0009917939,-0.2209152,0.0009463392,0.007247521,1.001405,29.196,9.605938,-25.46951,1010.068
1.535725594,0.07523298,0.1220172,-0.03742781,0.002907453,0.003846773,1.000411,29.196,9.605938,-25.46951,1010.068
1.538202286,0.1976999,0.0615045,-0.1597527,-0.00147443,0.003820606,0.998987,29.196,9.605938,-25.46951,1010.068
1.540679455,0.2589334,0.0615045,-0.2209152,0.001927173,0.005791781,1.001392,29.196,9.605938,-25.46951,1010.068
1.543156147,0.1976999,0.2430426,-0.2820776,-0.0005001319,0.003826812,0.9994645,29.196,9.605938,-25.46951,1010.068
1.545633316,0.1364664,0.1825299,-0.4044026,0.001444677,0.006280876,1.003328,29.196,9.605938,-25.46951,1010.068
1.548110008,0.07523298,0.0615045,-0.1597527,0.00387577,0.005804192,1.002347,29.196,9.605938,-25.46951,1010.068
1.550587177,0.07523298,0.1220172,-0.1597527,-0.0009646376,0.001395531,1.001868,29.196,9.605938,-25.46951,1010.068
1.553063870,0.07523298,0.2430426,-0.1597527,0.000938141,0.007241662,0.9989914,29.196,9.605938,-25.46951,1010.068
1.555541515,0.1364664,0.2430426,-0.09859026,0.001927705,0.004814417,0.999939,29.196,9.605938,-25.46951,1010.068
1.558017731,0.2589334,0.2430426,-0.1597527,0.003882328,0.00580888,1.004277,29.196,9.605938,-25.46951,1010.068
1.560495377,0.1976999,0.2430426,-0.1597527,-8.883653E-06,0.003832844,1.00091,29.196,9.605938,-25.46951,1010.068
1.562972069,0.2589334,0.0009917939,-0.4044026,0.002915142,0.00629663,1.006699,29.196,9.605938,-25.46951,1010.068
1.565449238,0.07523298,0.1220172,-0.2820776,0.001444123,0.005791608,1.00236,29.196,9.605938,-25.46951,1010.068
1.567925930,0.07523298,0.1220172,-0.1597527,0.001468117,0.002386652,1.00379,29.196,9.605938,-25.46951,1010.068
1.570403099,0.07523298,-0.05952091,-0.4044026,0.002926065,0.005815564,1.009109,29.56724,9.617138,-25.09088,1010.068
1.575356960,0.0139995,0.0615045,-0.1597527,-3.943616E-05,0.007233113,0.9975488,29.56724,9.617138,-25.09088,1010.068
1.577833653,0.0139995,0.0615045,-0.1597527,0.0009512352,0.005784404,1.000432,29.56724,9.617138,-25.09088,1010.068
1.580311299,0.07523298,0.0615045,-0.1597527,-6.735325E-06,0.001390019,0.9975186,29.56724,9.617138,-25.09088,1010.068
1.582787514,0.2589334,0.1220172,-0.3432401,0.0005009086,0.001407769,1.003791,29.56724,9.617138,-25.09088,1010.068
1.585265160,0.2589334,0.1220172,-0.1597527,-6.135786E-06,0.004812552,1.003328,29.56724,9.617138,-25.09088,1010.068
1.587741852,0.0139995,0.1220172,-0.09859026,0.00581506,0.004832208,0.9989523,29.56724,9.617138,-25.09088,1010.068
1.590219021,0.1364664,0.3035553,-0.2209152,0.00337309,0.008723223,1.002365,29.56724,9.617138,-25.09088,1010.068
1.592695713,0.2589334,0.0615045,-0.03742781,0.00242334,0.005801329,1.004285,29.56724,9.617138,-25.09088,1010.068
1.595172882,0.1364664,0.0009917939,-0.2209152,0.008264697,0.001924418,0.9994068,29.56724,9.617138,-25.09088,1010.068
1.597649574,-0.04723396,0.0615045,-0.4044026,0.001945163,0.002871406,1.00186,29.56724,9.617138,-25.09088,1010.068
1.600126743,0.1364664,0.0615045,-0.1597527,0.001926088,0.006279878,1.001877,29.56724,9.617138,-25.09088,1010.068
1.602603436,0.07523298,0.1220172,-0.2820776,0.0009626895,0.004325974,1.00139,29.56724,9.617138,-25.09088,1010.068
1.605080605,0.07523298,0.1220172,-0.2209152,0.003397616,0.004340902,1.002342,29.56724,9.617138,-25.09088,1010.068
1.607557297,0.0139995,0.2430426,-0.1597527,-0.0009967845,0.007727893,1.002866,29.56724,9.617138,-25.09088,1010.068
1.610034943,0.07523298,0.2430426,-0.09859026,0.004366441,0.003854324,1.000403,29.56724,9.617138,-25.09088,1010.068
1.612511635,0.07523298,0.1825299,-0.09859026,0.001908584,0.005289624,0.9951147,29.56724,9.617138,-25.09088,1010.068
1.614988804,0.07523298,0.2430426,0.08489711,0.005342379,0.003861701,1.001363,29.56724,9.617138,-25.09088,1010.068
1.617465496,0.1364664,0.3035553,-0.2209152,0.00679975,0.005334713,1.003294,29.56724,9.617138,-25.09088,1010.068
1.619942665,0.3201669,0.3035553,-0.2820776,0.002907453,0.003846773,1.000411,29.56724,9.617138,-25.09088,1010.068
1.622419357,0.1364664,0.1825299,-0.1597527,0.002892165,0.004813592,0.9975203,29.196,9.605938,-25.46951,1010.068
1.624896526,0.0139995,0.0615045,-0.09859026,0.0004763829,0.00579009,1.003813,29.196,9.605938,-25.46951,1010.068
1.627373219,-0.04723396,0.1220172,-0.03742781,0.004847874,0.005319958,1.001374,29.196,9.605938,-25.46951,1010.068
1.629850388,0.07523298,0.1220172,-0.1597527,0.003888333,0.005324299,1.00524,29.196,9.605938,-25.46951,1010.068
1.632327080,0.1364664,0.0009917939,-0.2209152,-0.0009558855,0.001890658,1.005249,29.196,9.605938,-25.46951,1010.068
1.634804726,0.0139995,0.1220172,-0.03742781,0.0004774458,0.003835361,1.000907,29.196,9.605938,-25.46951,1010.068
1.637281418,0.07523298,0.0009917939,-0.2820776,0.0004436136,0.007233286,0.9965807,29.196,9.605938,-25.46951,1010.068
1.639758587,0.1976999,0.0615045,-0.2820776,-0.0005120947,0.007729238,1.002381,29.196,9.605938,-25.46951,1010.068
1.642235279,0.3201669,0.1220172,-0.2209152,-0.0005284678,0.009184153,0.9999749,29.196,9.605938,-25.46951,1010.069
1.644712448,0.1364664,0.0615045,-0.2820776,0.005333118,0.005810571,1.001856,29.196,9.605938,-25.46951,1010.069
1.647189617,-0.04723396,0.1220172,-0.1597527,0.0009556001,0.005298651,1.000912,29.196,9.605938,-25.46951,1010.069
1.649666310,0.1976999,0.2430426,-0.1597527,-0.00147607,0.003819434,0.9985045,29.196,9.605938,-25.46951,1010.069
1.652143955,0.1364664,0.1220172,-0.2209152,0.0009572394,0.005299822,1.001395,29.196,9.605938,-25.46951,1010.069
1.654620171,0.07523298,0.1220172,-0.3432401,0.003886139,0.004833858,1.00379,29.196,9.605938,-25.46951,1010.069
1.657097817,0.2589334,0.1220172,-0.1597527,0.002414565,0.003839569,0.9984833,29.196,9.605938,-25.46951,1010.069
1.659574509,0.2589334,0.0615045,-0.1597527,0.002880733,0.007738654,0.9989833,29.196,9.605938,-25.46951,1010.069
1.662051678,0.07523298,0.1220172,-0.2209152,-0.0009798796,0.005295614,1.003819,29.196,9.605938,-25.46951,1010.069
1.664528370,0.07523298,0.0009917939,-0.2820776,-0.002436143,0.004801139,1.003824,29.196,9.605938,-25.46951,1010.069
1.667005539,0.1976999,0.1220172,-0.3432401,0.003893251,0.005327814,1.006688,29.196,9.605938,-25.46951,1010.069
1.669482231,0.1976999,0.2430426,-0.09859026,0.006782291,0.007277723,1.001373,29.196,9.605938,-25.46951,1010.069
1.671959400,0.1364664,0.0615045,-0.09859026,0.003378009,0.008726738,1.003812,29.20654,8.933664,-25.45763,1010.069
1.674436093,0.1976999,0.1220172,-0.2209152,-0.0009908027,0.00577668,1.001408,29.20654,8.933664,-25.45763,1010.069
1.676913262,0.1976999,0.2430426,-0.2209152,0.001458834,0.002868889,1.001862,29.20654,8.933664,-25.45763,1010.069
1.679389954,0.1364664,0.1220172,-0.1597527,0.002438051,0.00287861,1.003788,29.20654,8.933664,-25.45763,1010.069
1.681867600,0.1976999,0.0009917939,-0.09859026,0.00435882,0.005804366,1.001379,29.20654,8.933664,-25.45763,1010.069
1.684344292,0.2589334,0.1825299,-0.1597527,0.007292084,0.004852649,1.004254,29.20654,8.933664,-25.45763,1010.07
1.686821461,0.07523298,0.0615045,-0.1597527,0.002401494,0.00676346,0.9994637,29.20654,8.933664,-25.45763,1010.07
1.689298153,-0.04723396,0.1825299,-0.2209152,0.001927173,0.005791781,1.001392,29.20654,8.933664,-25.45763,1010.07
1.691775322,0.1976999,0.1825299,-0.1597527,-0.0009744295,0.004321765,1.003814,29.20654,8.933664,-25.45763,1010.07
1.694252014,0.3201669,0.1825299,-0.2209152,-0.0005121171,0.006262606,0.9999598,29.20654,8.933664,-25.45763,1010.07
1.696729183,0.0139995,0.0615045,-0.1597527,0.001942992,0.003847599,1.00283,29.20654,8.933664,-25.45763,1010.07
1.699205876,0.1364664,0.1220172,-0.2209152,0.004844018,0.003361714,0.9970194,29.20654,8.933664,-25.45763,1010.07
1.701683045,0.1364664,0.2430426,-0.1597527,0.003386693,0.004821968,0.999931,29.20654,8.933664,-25.45763,1010.07
1.704159737,0.1976999,0.3035553,-0.09859026,0.006318317,0.003869079,1.002324,29.20654,8.933664,-25.45763,1010.07
1.706637383,0.1976999,0.1220172,-0.09859026,0.00436591,0.004831688,1.001856,29.20654,8.933664,-25.45763,1010.07
1.709114075,0.1364664,0.1825299,-0.1597527,0.002389531,0.01066589,1.00238,29.20654,8.933664,-25.45763,1010.07
1.711591244,0.07523298,-0.05952091,-0.1597527,0.005821619,0.004836896,1.000883,29.20654,8.933664,-25.45763,1010.07
1.714067936,0.07523298,-0.05952091,-0.2209152,0.002885652,0.007742169,1.000431,29.20654,8.933664,-25.45763,1010.07
1.716545105,0.2589334,0.0615045,-0.1597527,0.00242498,0.005802501,1.004768,29.20654,8.933664,-25.45763,1010.07
1.719021797,0.1364664,-0.1200336,-0.2209152,-0.001473322,0.004799142,1.000923,29.20654,8.933664,-25.45763,1010.07
1.721498966,0.07523298,0.1825299,-0.09859026,0.001908607,0.006756256,0.9975356,29.20654,8.933664,-25.45763,1010.07
1.723975659,0.07523298,0.0009917939,-0.2209152,0.00190371,0.008219373,0.9985086,29.56078,9.976616,-25.47738,1010.07
1.726452828,0.07523298,0.0615045,-0.1597527,1.485227E-06,0.002862511,1.002353,29.56078,9.976616,-25.47738,1010.07
1.728929520,0.1364664,0.1825299,-0.1597527,0.0005031249,0.003364841,1.007662,29.56078,9.976616,-25.47738,1010.07
1.731407166,0.07523298,0.0615045,-0.1597527,0.00291348,0.004828825,1.003795,29.56078,9.976616,-25.47738,1010.07
1.733883381,0.07523298,-0.1200336,-0.03742781,0.004379535,0.002397066,1.001844,29.56078,9.976616,-25.47738,1010.07
1.736361027,0.1364664,0.1220172,-0.1597527,0.002408607,0.007257415,1.002362,29.56078,9.976616,-25.47738,1010.07
1.738837719,0.2589334,0.1220172,-0.1597527,0.00385778,0.008724568,1.001879,29.56078,9.976616,-25.47738,1010.07
1.741314888,0.1976999,0.1825299,-0.1597527,-0.001447111,0.003351259,1.006225,29.56078,9.976616,-25.47738,1010.07
1.743791580,0.1364664,0.1825299,-0.3432401,0.003417777,0.0004443342,1.001839,29.56078,9.976616,-25.47738,1010.07
1.746268749,0.1364664,0.0009917939,-0.2209152,0.005330947,0.006786764,1.002826,29.56078,9.976616,-25.47738,1010.07
1.748745442,0.1364664,0.2430426,-0.09859026,0.003375838,0.00970293,1.004783,29.56078,9.976616,-25.47738,1010.07
1.751222611,0.07523298,0.2430426,-0.1597527,0.001961005,0.002393856,1.005719,29.56078,9.976616,-25.47738,1010.07
1.753699303,0.1976999,0.1220172,-0.2209152,-0.000491888,0.006765936,1.00672,29.56078,9.976616,-25.47738,1010.07
1.756176949,0.1364664,0.3035553,-0.09859026,0.0004589243,0.0077331,1.001893,29.56078,9.976616,-25.47738,1010.07
1.758653164,0.1364664,0.1220172,-0.09859026,0.001456663,0.003845082,1.002833,29.56078,9.976616,-25.47738,1010.07
1.761130810,0.0139995,0.1220172,0.02373465,0.002410223,0.005791955,1.000424,29.56078,9.976616,-25.47738,1010.07
1.763607502,0.07523298,0.0615045,-0.03742781,0.00192611,0.00774651,1.004298,29.56078,9.976616,-25.47738,1010.067
1.766084671,0.07523298,0.0009917939,-0.4044026,0.001415741,0.008215684,0.9980285,29.56078,9.976616,-25.47738,1010.067
1.768561363,0.0139995,0.0009917939,-0.2209152,0.005340208,0.004837894,1.002334,29.56078,9.976616,-25.47738,1010.067
1.771038532,0.0139995,0.1825299,-0.1597527,0.006795386,0.005820465,1.002813,29.56078,9.976616,-25.47738,1010.067
1.773515225,0.1364664,0.1825299,-0.2209152,0.004400295,0.001923031,1.007151,29.1967,9.613155,-25.08949,1010.067
1.775992394,0.1364664,0.0009917939,-0.2209152,0.003369765,0.005787614,0.9965573,29.1967,9.613155,-25.08949,1010.067
1.778469086,0.3201669,0.0615045,-0.09859026,-4.710304E-05,0.00624989,0.9936823,29.1967,9.613155,-25.08949,1010.067
1.780946732,0.1976999,0.2430426,-0.2209152,0.002389971,0.003821993,0.9912431,29.1967,9.613155,-25.08949,1010.067
1.783422947,0.1364664,0.1220172,-0.2820776,-0.0005295763,0.008205617,0.9980391,29.1967,9.613155,-25.08949,1010.067
1.785900593,0.1976999,0.1825299,-0.2209152,-0.001003919,0.005767306,0.9975466,29.1967,9.613155,-25.08949,1010.067
1.788377285,0.07523298,0.1220172,-0.1597527,0.001935903,0.004820276,1.002352,29.1967,9.613155,-25.08949,1010.067
1.790854454,0.1364664,0.1825299,-0.2209152,0.005324966,0.008737978,1.004285,29.1967,9.613155,-25.08949,1010.067
1.793331146,0.07523298,0.0615045,-0.1597527,0.002372027,0.009675632,0.9956173,29.1967,9.613155,-25.08949,1010.067
1.795808315,0.1976999,0.1220172,-0.09859026,-0.002442147,0.00528572,1.002861,29.1967,9.613155,-25.08949,1010.067
1.798285484,0.3201669,0.2430426,-0.03742781,0.002393296,0.006757601,0.9970503,29.1967,9.613155,-25.08949,1010.067
1.800762177,0.0139995,0.0009917939,-0.2820776,0.003869743,0.004822141,0.9989629,29.1967,9.613155,-25.08949,1010.067
1.803239823,0.2589334,0.1220172,-0.4044026,0.004837483,0.00482366,0.9975097,29.1967,9.613155,-25.08949,1010.068
1.805716038,0.1364664,0.0615045,-0.1597527,0.00386323,0.007750718,1.001874,29.1967,9.613155,-25.08949,1010.068
1.808193684,0.07523298,-0.05952091,-0.09859026,-0.001951408,0.007735749,1.008181,29.1967,9.613155,-25.08949,1010.068
1.810670376,0.1976999,0.1825299,-0.1597527,-2.631964E-05,0.007242487,1.00141,29.1967,9.613155,-25.08949,1010.068
1.813147545,-0.1084674,0.0009917939,-0.3432401,0.0004856437,0.00384122,1.003321,29.1967,9.613155,-25.08949,1010.068
1.815624237,0.07523298,0.0009917939,-0.2820776,0.00194955,0.003852286,1.004761,29.1967,9.613155,-25.08949,1010.068
1.818101406,0.07523298,0.0615045,-0.09859026,0.001927682,0.003347785,0.9975181,29.1967,9.613155,-25.08949,1010.068
1.820578098,0.07523298,0.1220172,-0.1597527,-0.0005159283,0.007237626,1.000447,29.1967,9.613155,-25.08949,1010.068
1.823055268,0.1976999,0.0615045,-0.03742781,0.004827714,0.009216527,1.001876,29.19013,9.971432,-25.53932,1010.068
1.828009606,0.07523298,0.2430426,-0.3432401,0.0004593874,0.002355839,0.9931768,29.19013,9.971432,-25.53932,1010.068
1.828009606,0.07523298,0.2430426,-0.3432401,0.0004593874,0.002355839,0.9931768,29.19013,9.971432,-25.53932,1010.068
1.830485821,0.07523298,0.1220172,-0.1597527,-0.0005405222,0.007220049,0.9932073,29.19013,9.971432,-25.53932,1010.068
1.832963467,0.1364664,0.1220172,-0.2209152,-0.0004804793,0.002374241,1.002836,29.19013,9.971432,-25.53932,1010.068
1.835440159,0.0139995,0.0615045,-0.2209152,-0.0009618897,0.002375239,1.004286,29.19013,9.971432,-25.53932,1010.068
1.837917328,0.07523298,0.1220172,-0.2820776,0.00339653,0.004828998,1.002827,29.19013,9.971432,-25.53932,1010.068
1.840394020,0.0139995,0.1220172,-0.2209152,0.0004256465,0.01162029,0.9985341,29.19013,9.971432,-25.53932,1010.068
1.842871189,0.07523298,-0.05952091,-0.2820776,-0.0009782629,0.003830154,1.001881,29.19013,9.971432,-25.53932,1010.068
1.847825051,0.0139995,0.1220172,-0.1597527,0.003849582,0.008718709,0.9994658,29.19013,9.971432,-25.53932,1010.068
1.850301743,0.07523298,-0.05952091,-0.09859026,-0.002445404,0.006750009,1.004317,29.19013,9.971432,-25.53932,1010.068
1.852778912,0.3201669,0.0009917939,-0.1597527,0.001481234,0.002396026,1.007652,29.19013,9.971432,-25.53932,1010.068
1.855255604,0.07523298,0.0009917939,-0.2209152,0.004836443,0.008245021,1.002837,29.19013,9.971432,-25.53932,1010.068
1.857733250,0.1364664,0.2430426,-0.1597527,0.002905836,0.005312234,1.00235,29.19013,9.971432,-25.53932,1010.068
1.860209942,0.1364664,0.1825299,-0.2820776,0.002435857,0.00238817,1.002337,29.19013,9.971432,-25.53932,1010.068
1.862687111,0.1364664,0.1825299,-0.2820776,0.002429299,0.002383483,1.000406,29.19013,9.971432,-25.53932,1010.068
1.865163803,0.1364664,0.0009917939,-0.1597527,-0.002426882,0.002852269,1.003332,29.19013,9.971432,-25.53932,1010.068
1.867640972,0.1364664,0.1825299,-0.03742781,0.0009616041,0.004814071,1.001875,29.19013,9.971432,-25.53932,1010.068
1.870117665,0.1976999,0.1825299,-0.2820776,0.004338614,0.006767669,0.9970397,29.19013,9.971432,-25.53932,1010.068
1.872594834,0.1976999,0.1220172,-0.2820776,-0.0009815649,0.002361178,0.9984943,29.19013,9.971432,-25.53932,1010.068
1.884979725,0.07523298,0.1220172,-0.2209152,-0.001473299,0.006265775,1.003344,29.57203,9.31156,-25.08548,1010.069
1.887456894,0.2589334,0.1220172,-0.09859026,0.003409647,0.004838373,1.006688,29.57203,9.31156,-25.08548,1010.069
1.889933586,0.07523298,0.0615045,-0.2209152,0.001952275,0.003365361,1.004758,29.57203,9.31156,-25.08548,1010.069
1.892410755,0.1976999,0.2430426,-0.4044026,0.0009337766,0.007727414,0.9985114,29.57203,9.31156,-25.08548,1010.069
1.894887448,0.0139995,0.1220172,-0.2820776,0.002919439,0.001410979,0.9999161,29.57203,9.31156,-25.08548,1010.069
1.897364617,0.07523298,-0.05952091,-0.2820776,0.001933709,0.004329836,1.000902,29.57203,9.31156,-25.08548,1010.069
1.899841309,0.1364664,0.1220172,-0.09859026,0.001457748,0.003356986,1.002347,29.57203,9.31156,-25.08548,1010.069
1.902318478,0.07523298,0.3035553,0.02373465,0.001420615,0.005285935,0.9946346,29.57203,9.31156,-25.08548,1010.069
1.904795170,0.0139995,0.2430426,-0.2209152,-0.002446512,0.005771473,1.002381,29.57203,9.31156,-25.08548,1010.069
1.907272816,0.1364664,0.1220172,-0.2209152,-0.00146457,0.005294269,1.004304,29.57203,9.31156,-25.08548,1010.069
1.909749508,0.1364664,0.0615045,-0.1597527,-3.943616E-05,0.007233113,0.9975488,29.57203,9.31156,-25.08548,1010.069
1.912226677,0.2589334,0.1220172,-0.2820776,-1.814449E-05,0.005781714,1.001402,29.57203,9.31156,-25.08548,1010.069
1.914703369,0.1364664,0.0009917939,-0.2820776,0.001931538,0.005306029,1.001872,29.57203,9.31156,-25.08548,1010.069
1.917180538,0.0139995,-0.05952091,-0.2820776,0.006289427,0.008737152,1.001866,29.57203,9.31156,-25.08548,1010.069
1.919657231,0.2589334,0.0615045,-0.1597527,0.001469757,0.002387824,1.004273,29.57203,9.31156,-25.08548,1010.069
1.922134400,0.3201669,0.1220172,-0.2209152,0.0009703562,0.005309197,1.005256,29.57203,9.31156,-25.08548,1010.069
1.924611092,0.1364664,0.1825299,-0.1597527,0.003376878,0.00628157,0.9994559,29.93849,9.628338,-24.71225,1010.071
1.927088261,0.1364664,0.1220172,-0.2209152,0.002409161,0.007746683,1.00333,29.93849,9.628338,-24.71225,1010.071
1.929564953,0.1364664,0.1825299,-0.09859026,0.001457217,0.00433435,1.0038,29.93849,9.628338,-24.71225,1010.071
1.932042599,0.1364664,0.2430426,-0.09859026,0.001927196,0.007258413,1.003813,29.93849,9.628338,-24.71225,1010.071
1.934518814,0.1364664,0.0615045,-0.09859026,0.001445763,0.00579278,1.002843,29.93849,9.628338,-24.71225,1010.071
1.936996460,0.1364664,0.1825299,-0.2209152,0.0004725268,0.003831846,0.9994591,29.93849,9.628338,-24.71225,1010.071
1.939473629,0.1364664,0.1825299,-0.1597527,0.0004976294,0.001405425,1.002825,29.93849,9.628338,-24.71225,1010.071
1.941950321,0.07523298,0.2430426,-0.1597527,0.003893206,0.002394549,1.001847,29.93849,9.628338,-24.71225,1010.071
1.944427490,-0.1084674,0.1220172,-0.2209152,0.005353834,0.002403272,1.002321,29.93849,9.628338,-24.71225,1010.071
1.946904183,0.1364664,0.0009917939,-0.2820776,0.0004807247,0.003837705,1.001873,29.93849,9.628338,-24.71225,1010.071
1.949381352,0.2589334,0.0615045,-0.3432401,-0.001955864,0.002354972,0.9980168,29.93849,9.628338,-24.71225,1010.071
1.951858044,0.1976999,0.1220172,-0.3432401,-0.001954732,0.004800141,1.002374,29.93849,9.628338,-24.71225,1010.071
1.954335690,0.1976999,0.0615045,-0.3432401,0.002413525,0.007260931,1.00381,29.93849,9.628338,-24.71225,1010.071
1.956812382,0.2589334,0.0615045,-0.3432401,-1.10548E-05,0.004809037,1.00188,29.93849,9.628338,-24.71225,1010.071
1.959289551,0.2589334,0.0009917939,-0.2820776,0.004837529,0.007756924,1.002352,29.93849,9.628338,-24.71225,1010.071
1.961766243,0.1364664,0.2430426,-0.1597527,0.002407476,0.004812247,0.9980056,29.93849,9.628338,-24.71225,1010.071
1.964243412,0.0139995,0.2430426,-0.2209152,0.001933178,0.0053072,1.002355,29.93849,9.628338,-24.71225,1010.072
1.966720104,0.1976999,0.2430426,-0.2820776,-0.0004919111,0.005299303,1.004299,29.93849,9.628338,-24.71225,1010.072
1.969197273,0.1976999,0.0615045,-0.2209152,-0.0004717275,0.002869368,1.006217,29.93849,9.628338,-24.71225,1010.072
1.971673966,0.1976999,0.0615045,-0.09859026,0.004381729,0.002887506,1.003294,29.93849,9.628338,-24.71225,1010.072
1.974151135,0.07523298,0.0009917939,-0.09859026,0.004868589,0.001912658,1.001839,29.1967,9.613155,-25.08949,1010.072
1.976627827,0.1976999,0.1220172,-0.2209152,0.004372468,0.004836376,1.003787,29.1967,9.613155,-25.08949,1010.072
1.979105473,0.1364664,0.1825299,-0.1597527,-0.001482582,0.006748012,1.001415,29.1967,9.613155,-25.08949,1010.072
1.981581688,0.1976999,0.1825299,-0.09859026,0.002891657,0.007257588,1.001394,29.1967,9.613155,-25.08949,1010.072
1.984059334,0.2589334,0.3035553,-0.2209152,0.0004621579,0.004802179,0.9980162,29.1967,9.613155,-25.08949,1010.072
1.986536026,-0.04723396,0.0615045,-0.2820776,0.003380688,0.005306548,0.9989681,29.1967,9.613155,-25.08949,1010.072
1.989013195,0.1364664,0.3035553,-0.2209152,-5.027745E-06,0.005791088,1.005264,29.1967,9.613155,-25.08949,1010.072
1.991489887,0.3201669,0.1825299,-0.2209152,0.003871405,0.006289945,1.001867,29.1967,9.613155,-25.08949,1010.072
1.993967056,0.1976999,0.1825299,-0.2820776,-2.253195E-05,0.004800834,0.9985015,29.1967,9.613155,-25.08949,1010.072
1.996443748,0.1976999,0.1825299,-0.2820776,0.005358797,0.005340052,1.008611,29.1967,9.613155,-25.08949,1010.072
1.998920918,0.2589334,0.1220172,-0.2209152,0.001443038,0.006279704,1.002845,29.1967,9.613155,-25.08949,1010.072
2.001397610,0.1976999,0.0615045,-0.2209152,0.0009746982,0.003356812,1.003315,29.1967,9.613155,-25.08949,1010.072
2.003875256,0.1364664,0.0615045,-0.1597527,0.00438226,0.001910141,1.001841,29.1967,9.613155,-25.08949,1010.069
2.006351471,0.1364664,0.1220172,-0.1597527,0.0009490412,0.005293963,0.9989814,29.1967,9.613155,-25.08949,1010.069
2.008829117,0.07523298,0.1220172,-0.1597527,-0.001453161,0.0009025745,1.00042,29.1967,9.613155,-25.08949,1010.069
2.011305809,0.1364664,0.1220172,-0.1597527,0.001440821,0.004322632,0.9989737,29.1967,9.613155,-25.08949,1010.069
2.013782978,0.07523298,0.1825299,-0.1597527,0.002910755,0.005315749,1.003798,29.1967,9.613155,-25.08949,1010.069
2.016259670,0.0139995,0.1825299,-0.03742781,0.001928259,0.005303685,1.000907,29.1967,9.613155,-25.08949,1010.069
2.018736839,0.1364664,0.0009917939,-0.2820776,0.004857712,0.005326989,1.00427,29.1967,9.613155,-25.08949,1010.069
2.021213531,0.1976999,0.3035553,-0.3432401,0.000932714,0.009682143,1.001417,29.1967,9.613155,-25.08949,1010.069
2.023690701,0.1976999,0.2430426,-0.2209152,-1.976104E-05,0.007247174,1.003341,29.1967,9.613155,-25.08949,1010.069
2.026167393,0.0139995,-0.05952091,-0.2209152,0.005336906,0.003368918,0.9989474,28.82617,9.609173,-25.0881,1010.069
2.028645039,0.07523298,0.0615045,-0.2820776,0.001423917,0.006754911,0.9980209,28.82617,9.609173,-25.0881,1010.069
2.031121254,0.3201669,0.2430426,-0.1597527,0.001944055,0.00189287,0.9999239,28.82617,9.609173,-25.0881,1010.069
2.033598900,0.1976999,0.2430426,-0.2820776,0.001932623,0.004817932,1.001387,28.82617,9.609173,-25.0881,1010.069
2.036075592,0.0139995,-0.05952091,-0.2820776,0.003887224,0.004345763,1.003305,28.82617,9.609173,-25.0881,1010.069
2.038552761,0.1364664,0.0009917939,-0.2820776,0.002915628,0.002386,1.000404,28.82617,9.609173,-25.0881,1010.069
2.041029930,0.1976999,-0.05952091,-0.1597527,0.002896044,0.008238468,1.004295,28.82617,9.609173,-25.0881,1010.069
2.043506622,-0.04723396,0.1825299,-0.2209152,-0.001939445,0.003833323,1.005265,28.82617,9.609173,-25.0881,1010.071
2.045983315,0.07523298,0.1220172,-0.2820776,-0.003395199,0.0008948504,1.001396,28.82617,9.609173,-25.0881,1010.071
2.048460484,0.1364664,0.0615045,-0.2209152,0.003415074,0.002397891,1.004262,28.82617,9.609173,-25.0881,1010.071
2.050938129,0.4426338,0.0009917939,-0.1597527,0.0004637747,0.003336718,0.996078,28.82617,9.609173,-25.0881,1010.071
2.053414345,0.1364664,-0.05952091,-0.2209152,0.0009441457,0.006757081,0.9999543,28.82617,9.609173,-25.0881,1010.071
2.055891991,0.1976999,0.0009917939,-0.1597527,0.001451235,0.006285563,1.005259,28.82617,9.609173,-25.0881,1010.071
2.058368683,0.1364664,0.0009917939,-0.1597527,0.009680084,0.00972276,0.9994391,28.82617,9.609173,-25.0881,1010.071
2.060845852,0.07523298,0.1220172,-0.2209152,0.002914566,0.004340729,1.00331,28.82617,9.609173,-25.0881,1010.071
2.063322544,0.0139995,0.1825299,-0.1597527,0.002422232,0.004822793,1.00235,28.82617,9.609173,-25.0881,1010.071
2.065799713,0.0139995,0.0615045,-0.09859026,0.002352974,0.01455074,0.9980559,28.82617,9.609173,-25.0881,1010.071
2.068276405,0.07523298,0.0009917939,-0.1597527,-0.001469511,0.003824122,1.000435,28.82617,9.609173,-25.0881,1010.071
2.070753574,0.1364664,0.1220172,-0.09859026,0.002415674,0.004818106,1.000419,28.82617,9.609173,-25.0881,1010.071
2.073230267,0.07523298,0.1220172,-0.2209152,0.004358289,0.00678173,1.002832,28.82617,9.609173,-25.0881,1010.071
2.075707912,0.1364664,0.1220172,-0.09859026,0.002420038,0.004332352,1.000899,28.44917,9.964668,-25.47321,1010.071
2.078184128,0.1364664,0.0009917939,0.02373465,0.005315637,0.00628695,0.9975146,28.44917,9.964668,-25.47321,1010.071
2.080661774,0.0139995,0.2430426,-0.2820776,0.001899346,0.008705126,0.9980283,28.44917,9.964668,-25.47321,1010.071
2.083138466,0.2589334,0.1825299,-0.4044026,0.005822173,0.005326163,1.001851,28.44917,9.964668,-25.47321,1010.072
2.085615635,0.2589334,0.0615045,-0.3432401,0.005344573,0.004352141,1.002814,28.44917,9.964668,-25.47321,1010.072
2.088092327,0.1976999,0.1220172,-0.3432401,-3.123819E-05,0.007238972,0.9999622,28.44917,9.964668,-25.47321,1010.072
2.090569496,0.07523298,0.1220172,-0.1597527,-0.00293672,0.002344079,0.9956087,28.44917,9.964668,-25.47321,1010.072
2.093046188,0.1364664,0.1220172,-0.09859026,0.0004479785,0.006747534,0.9970609,28.44917,9.964668,-25.47321,1010.072
2.095523357,0.0139995,-0.1805463,-0.1597527,0.000461027,0.00235701,0.9936596,28.44917,9.964668,-25.47321,1010.072
2.098000050,0.1976999,0.0615045,-0.03742781,0.008733014,0.003380677,0.9965156,28.44917,9.964668,-25.47321,1010.072
2.100477695,0.1976999,0.2430426,-0.3432401,0.003394313,0.002871926,0.9989555,28.44917,9.964668,-25.47321,1010.072
2.102953911,0.1364664,0.0009917939,-0.1597527,-8.860836E-06,0.005299476,1.003331,28.44917,9.964668,-25.47321,1010.072
2.107908249,0.1364664,0.1825299,-0.1597527,0.003383459,0.007752889,1.003807,28.44917,9.964668,-25.47321,1010.072
2.107908249,0.1364664,0.1825299,-0.1597527,0.003383459,0.007752889,1.003807,28.44917,9.964668,-25.47321,1010.072
2.110385418,0.2589334,0.2430426,-0.2820776,0.006331411,0.002411821,1.003764,28.44917,9.964668,-25.47321,1010.072
2.115339279,0.1364664,0.1220172,-0.09859026,0.004821664,0.006767842,0.9960718,28.44917,9.964668,-25.47321,1010.072
2.117815971,0.2589334,0.1220172,-0.1597527,0.005323858,0.007759441,1.002349,28.44917,9.964668,-25.47321,1010.072
2.120293140,0.1976999,0.1220172,-0.465565,0.002432601,0.003852459,1.003793,28.44917,9.964668,-25.47321,1010.072
2.122769833,0.1364664,0.0009917939,-0.2820776,0.002921609,0.0004347863,0.9989456,28.44917,9.964668,-25.47321,1010.075
2.125247002,0.1364664,0.1825299,-0.2209152,0.001442461,0.004323804,0.9994564,29.20067,9.299156,-25.52744,1010.075
2.127723694,0.0139995,0.1825299,-0.1597527,0.0009730812,0.004822273,1.005254,29.20067,9.299156,-25.52744,1010.075
2.130201340,0.1364664,-0.05952091,-0.1597527,0.0009408433,0.005288105,0.996568,29.20067,9.299156,-25.52744,1010.075
2.132678032,0.2589334,0.0009917939,-0.3432401,0.0009566625,0.003343922,0.998006,29.20067,9.299156,-25.52744,1010.075
2.135155201,0.1976999,0.1825299,-0.2209152,0.004368681,0.007278029,1.006696,29.20067,9.299156,-25.52744,1010.075
2.137631893,0.07523298,0.1825299,-0.2209152,0.002893873,0.009214661,1.005266,29.20067,9.299156,-25.52744,1010.075
2.140109062,0.07523298,0.3035553,-0.3432401,0.003848497,0.009206805,0.9999511,29.20067,9.299156,-25.52744,1010.075
2.142585754,0.07523298,0.2430426,-0.2209152,0.001943546,0.004336867,1.003798,29.20067,9.299156,-25.52744,1010.075
2.145062923,0.2589334,0.0615045,-0.1597527,0.002918376,0.003365708,1.002822,29.20067,9.299156,-25.52744,1010.075
2.147539616,-0.04723396,0.364068,-0.09859026,0.0009397808,0.007242834,0.9994742,29.20067,9.299156,-25.52744,1010.075
2.150016785,0.1364664,0.2430426,-0.2820776,-0.001003365,0.006256574,0.9985144,29.20067,9.299156,-25.52744,1010.075
2.152494431,0.1976999,0.1220172,-0.2820776,-0.0009837358,0.00333737,0.9994646,29.20067,9.299156,-25.52744,1010.075
2.154971123,0.07523298,0.0615045,-0.3432401,0.002414588,0.005306202,1.000904,29.20067,9.299156,-25.52744,1010.075
2.157448292,0.1364664,0.1825299,-0.1597527,0.00387032,0.006778042,1.002352,29.20067,9.299156,-25.52744,1010.075
2.159924984,0.1976999,0.1825299,-0.2820776,0.003866509,0.007753062,1.002839,29.20067,9.299156,-25.52744,1010.075
2.162402153,0.3814003,0.0009917939,-0.2820776,0.001469203,0.001898555,1.003305,29.20067,9.299156,-25.52744,1010.075
2.164878845,0.1364664,0.0009917939,-0.1597527,-0.002442125,0.006752352,1.005282,29.20067,9.299156,-25.52744,1010.075
2.167356014,0.1364664,0.0615045,-0.2820776,-2.086954E-05,0.006268638,1.001405,29.20067,9.299156,-25.52744,1010.075
2.169832706,0.3201669,0.1220172,-0.2209152,-0.000997361,0.005771993,0.9994772,29.20067,9.299156,-25.52744,1010.075
2.172309876,0.1976999,0.0009917939,-0.2209152,0.0004801936,0.004815069,1.003326,29.20067,9.299156,-25.52744,1010.075
2.174786568,0.1364664,-0.1200336,-0.3432401,0.000452389,0.009195046,1.002383,29.20067,9.299156,-25.52744,1010.075
2.177264214,0.1976999,0.1220172,-0.2820776,0.005341271,0.002883165,0.9994277,29.19095,9.979851,-25.09597,1010.075
2.179740906,0.0139995,0.2430426,-0.2209152,0.001945186,0.004338039,1.00428,29.19095,9.979851,-25.09597,1010.075
2.182218075,0.1364664,0.1220172,-0.2820776,-1.816754E-05,0.004315081,0.9989816,29.19095,9.979851,-25.09597,1010.075
2.184694767,0.1976999,0.1220172,-0.1597527,0.0004998231,0.001895865,1.004276,29.19095,9.979851,-25.09597,1010.075
2.187171936,0.1364664,0.0615045,0.02373465,0.002457149,0.000936771,1.006191,29.19095,9.979851,-25.09597,1010.075
2.189648628,0.0139995,-0.1805463,-0.1597527,0.001941884,0.002869062,1.000894,29.19095,9.979851,-25.09597,1010.075
2.192125797,0.1976999,0.2430426,-0.09859026,-0.004378204,0.003326783,1.002379,29.19095,9.979851,-25.09597,1010.075
2.194602490,0.1364664,0.2430426,-0.2209152,0.004356626,0.005313925,0.9999283,29.19095,9.979851,-25.09597,1010.075
2.197079659,0.1364664,0.0615045,-0.2209152,0.004336397,0.004810596,0.9931682,29.19095,9.979851,-25.09597,1010.075
2.199556351,0.07523298,0.0615045,-0.3432401,0.001933686,0.002863203,0.9984809,29.19095,9.979851,-25.09597,1010.075
2.202033997,0.0139995,0.0615045,-0.1597527,0.001451767,0.005308199,1.003806,29.19095,9.979851,-25.09597,1010.075
2.204510689,0.07523298,0.0009917939,-0.09859026,-0.0005028115,0.007247001,1.004309,29.19095,9.979851,-25.09597,1010.077
2.206987858,0.2589334,0.1825299,-0.2209152,-0.001462976,0.002362176,0.999945,29.19095,9.979851,-25.09597,1010.077
2.209464550,0.1364664,0.1220172,-0.2820776,0.0004752746,0.004811553,1.001878,29.19095,9.979851,-25.09597,1010.077
2.211941719,0.1364664,0.0615045,-0.2209152,0.002896021,0.006771836,1.001874,29.19095,9.979851,-25.09597,1010.077
2.214418411,0.1364664,0.1825299,-0.2820776,0.00243856,0.0004346133,0.9999137,29.19095,9.979851,-25.09597,1010.077
2.216895580,-0.04723396,0.1825299,-0.3432401,0.002411863,0.005793126,1.000907,29.19095,9.979851,-25.09597,1010.077
2.219372273,0.1364664,0.1220172,-0.03742781,0.004822795,0.009213011,1.000428,29.19095,9.979851,-25.09597,1010.077
2.221849442,0.1364664,0.1220172,-0.09859026,-0.0009749837,0.003832497,1.002846,29.19095,9.979851,-25.09597,1010.077
2.224326134,0.07523298,0.0615045,-0.2820776,0.0009610502,0.004324802,1.000907,29.19095,9.979851,-25.09597,1010.077
2.226803780,0.1364664,0.0009917939,-0.09859026,0.001941353,0.003846427,1.002347,28.82534,9.600752,-25.53146,1010.077
2.229280472,0.1976999,0.0009917939,-0.1597527,0.0004632436,0.004314083,0.9975311,28.82534,9.600752,-25.53146,1010.077
2.231757641,0.2589334,0.1220172,-0.2209152,0.0009681168,0.001885492,0.9989637,28.82534,9.600752,-25.53146,1010.077
2.234234333,0.07523298,0.1220172,-0.09859026,0.004854456,0.006791278,1.005725,28.82534,9.600752,-25.53146,1010.077
2.236711502,0.0139995,0.2430426,-0.2209152,0.002911818,0.003361021,1.000892,28.82534,9.600752,-25.53146,1010.077
2.239188194,0.07523298,0.3035553,-0.2820776,0.003883945,0.004343419,1.002339,28.82534,9.600752,-25.53146,1010.077
2.241665363,0.0139995,0.1220172,-0.3432401,0.003863784,0.008239987,1.002842,28.82534,9.600752,-25.53146,1010.077
2.244142056,0.07523298,0.3035553,-0.2820776,-0.0004925106,0.00187677,0.9984891,28.82534,9.600752,-25.53146,1010.074
2.246619225,0.1364664,0.2430426,-0.2209152,-0.001939999,0.003344055,1.004297,28.82534,9.600752,-25.53146,1010.074
2.249095917,0.1976999,0.0615045,-0.2209152,1.507578E-06,0.004329143,1.004774,28.82534,9.600752,-25.53146,1010.074
2.251573563,0.07523298,0.2430426,-0.03742781,0.0004910482,-6.58941E-05,0.9984738,28.82534,9.600752,-25.53146,1010.074
2.254049778,0.07523298,0.1825299,-0.2209152,-0.001475538,0.00284207,0.9970514,28.82534,9.600752,-25.53146,1010.074
2.256527424,0.1976999,0.1825299,-0.2820776,0.005800904,0.008244196,1.000418,28.82534,9.600752,-25.53146,1010.074
2.259004116,0.1976999,0.1220172,-0.1597527,0.001950105,0.004341554,1.005729,28.82534,9.600752,-25.53146,1010.074
2.261481285,0.0139995,0.1825299,-0.09859026,-2.029282E-05,0.008224539,1.004794,28.82534,9.600752,-25.53146,1010.074
2.263958454,0.0139995,0.1825299,-0.03742781,0.001900454,0.009683662,0.9999642,28.82534,9.600752,-25.53146,1010.074
2.266435146,0.1976999,0.1220172,-0.1597527,0.0009878373,0.004832819,1.009598,28.82534,9.600752,-25.53146,1010.074
2.268912315,0.1364664,0.1825299,0.02373465,0.000479108,0.005303165,1.003811,28.82534,9.600752,-25.53146,1010.074
2.271389008,0.07523298,0.1825299,-0.2209152,-0.001947066,0.005783364,1.00624,28.82534,9.600752,-25.53146,1010.074
2.273866654,0.1364664,0.1220172,-0.3432401,0.000485112,0.004818584,1.004774,28.82534,9.600752,-25.53146,1010.074
2.276343346,0.07523298,-0.05952091,-0.2209152,0.00725495,0.006781598,0.9965411,28.82534,9.600752,-25.53146,1010.074
2.278820515,0.0139995,0.1220172,-0.09859026,0.002417844,0.003841913,0.9994486,29.2015,9.307577,-25.08409,1010.074
2.281297207,0.1976999,0.0615045,-0.09859026,0.001965392,0.003374736,1.00862,29.2015,9.307577,-25.08409,1010.074
2.283774376,0.1976999,0.1825299,-0.09859026,0.0004878147,0.002865027,1.00235,29.2015,9.307577,-25.08409,1010.075
2.286251068,0.0139995,0.1220172,0.02373465,0.002429876,0.004339383,1.003795,29.2015,9.307577,-25.08409,1010.075
2.288728237,0.3201669,0.1825299,-0.09859026,0.0004905171,0.0009114704,0.9999268,29.2015,9.307577,-25.08409,1010.075
2.291204929,0.1364664,0.0615045,-0.09859026,0.003374684,0.00579113,0.9980053,29.2015,9.307577,-25.08409,1010.075
2.293682098,0.1364664,0.2430426,-0.09859026,-2.5257E-05,0.005287758,0.9985041,29.2015,9.307577,-25.08409,1010.075
2.296158791,0.2589334,0.2430426,-0.1597527,0.000957771,0.004322459,0.9999418,29.2015,9.307577,-25.08409,1010.075
2.298636437,0.07523298,0.2430426,-0.1597527,0.000486729,0.003353123,1.002835,29.2015,9.307577,-25.08409,1010.075
2.301112652,0.0139995,0.0009917939,-0.1597527,0.000923939,0.007720384,0.9956152,29.2015,9.307577,-25.08409,1010.075
2.303590298,0.07523298,0.0615045,-0.2209152,-1.431094E-05,0.006273326,1.003336,29.2015,9.307577,-25.08409,1010.075
2.306066990,0.07523298,0.1220172,-0.2209152,0.003910687,0.001918171,1.006188,29.2015,9.307577,-25.08409,1010.075
2.308544159,0.07523298,0.1220172,-0.2820776,0.0004425512,0.009188015,0.9994869,29.2015,9.307577,-25.08409,1010.075
2.311020851,-0.04723396,0.3035553,-0.1597527,-0.0009946588,0.003818436,0.9970537,29.2015,9.307577,-25.08409,1010.075
2.313498020,-0.1084674,0.1825299,-0.2209152,0.003397638,0.005807535,1.004763,29.2015,9.307577,-25.08409,1010.075
2.315974712,0.07523298,0.1220172,-0.2820776,0.001454492,0.004821274,1.003803,29.2015,9.307577,-25.08409,1010.075
2.318451881,0.07523298,0.2430426,-0.1597527,0.001468117,0.002386652,1.00379,29.2015,9.307577,-25.08409,1010.075
2.320928574,0.1364664,0.1825299,-0.1597527,0.002406967,0.007256243,1.00188,29.2015,9.307577,-25.08409,1010.075
2.323406220,0.1364664,0.1220172,-0.2820776,-0.0005257656,0.007230596,0.9975514,29.2015,9.307577,-25.08409,1010.076
2.325882435,0.1976999,0.3035553,-0.2209152,-0.000487569,0.003346918,1.002358,29.2015,9.307577,-25.08409,1010.076
2.328360081,0.0139995,0.1220172,-0.1597527,0.0005074672,0.001412456,1.005721,29.19741,9.620373,-24.70947,1010.076
2.330836773,0.1976999,0.3035553,-0.2209152,-0.001462953,0.003828809,1.002366,29.19741,9.620373,-24.70947,1010.076
2.333313942,0.3201669,0.3035553,-0.2209152,0.005836929,0.005336709,1.006195,29.19741,9.620373,-24.70947,1010.076
2.335790634,0.07523298,0.1825299,-0.2820776,0.002433155,0.004341727,1.004761,29.19741,9.620373,-24.70947,1010.076
2.338267803,0.07523298,0.1825299,-0.09859026,0.002415742,0.009218003,1.007682,29.19741,9.620373,-24.70947,1010.076
2.340744495,-0.04723396,0.2430426,-0.1597527,0.006317785,0.004846443,1.003776,29.19741,9.620373,-24.70947,1010.076
2.343221665,0.07523298,0.2430426,-0.03742781,0.001459388,0.003358157,1.00283,29.19741,9.620373,-24.70947,1010.076
2.345698357,0.1364664,0.1220172,-0.1597527,-0.00196725,0.0082133,1.004322,29.19741,9.620373,-24.70947,1010.076
2.348176003,0.1976999,0.0615045,-0.2209152,0.002890594,0.009212317,1.0043,29.19741,9.620373,-24.70947,1010.076
2.350653172,0.1364664,0.1220172,-0.09859026,0.006284439,0.004333739,0.9931551,29.19741,9.620373,-24.70947,1010.076
2.353129864,0.1364664,0.0615045,-0.2820776,-1.488789E-05,0.004317425,0.9999471,29.19741,9.620373,-24.70947,1010.076
2.355606556,0.1976999,0.1825299,-0.2820776,0.002902026,0.006287255,1.002837,29.19741,9.620373,-24.70947,1010.076
2.358083725,0.07523298,0.0615045,-0.2820776,-0.0005197611,0.006746015,0.9985143,29.19741,9.620373,-24.70947,1010.076
2.360560894,0.1364664,0.1825299,-0.2209152,0.004855541,0.006303181,1.00524,29.19741,9.620373,-24.70947,1010.076
2.363037586,0.1364664,0.2430426,-0.2209152,0.003375261,0.007747029,1.001394,29.19741,9.620373,-24.70947,1010.077
2.365514755,0.0139995,0.3035553,-0.09859026,0.0004523434,0.006261781,0.9975411,29.19741,9.620373,-24.70947,1010.077
2.367991448,0.1976999,0.2430426,-0.2209152,0.001475207,0.001413975,1.004268,29.19741,9.620373,-24.70947,1010.077
2.370469093,0.1976999,0.1825299,-0.2820776,0.002429853,0.002872751,1.001374,29.19741,9.620373,-24.70947,1010.077
2.372945309,0.07523298,0.0615045,-0.2209152,-0.001467363,0.001381297,0.9970438,29.19741,9.620373,-24.70947,1010.077
2.375422955,0.1364664,0.1220172,-0.09859026,-0.001958012,0.004797797,1.001408,29.19741,9.620373,-24.70947,1010.077
2.380376816,0.1976999,0.1220172,-0.2209152,0.002394959,0.008225406,0.999954,29.19588,9.604736,-25.53284,1010.077
2.382853508,0.07523298,-0.05952091,-0.2209152,-1.486507E-05,0.005784058,1.002368,29.19588,9.604736,-25.53284,1010.077
2.385330677,0.2589334,0.1825299,-0.2209152,-0.001479857,0.006261087,1.001413,29.19588,9.604736,-25.53284,1010.077
2.387807369,0.1364664,0.1825299,-0.1597527,0.0004463845,0.009679627,1.00142,29.19588,9.604736,-25.53284,1010.077
2.390284538,0.07523298,0.2430426,-0.2209152,-0.001937805,0.003834494,1.005747,29.19588,9.604736,-25.53284,1010.077
2.392761231,0.2589334,0.1825299,-0.3432401,0.004360414,0.002872273,0.9970196,29.19588,9.604736,-25.53284,1010.077
2.395238876,0.2589334,0.1220172,-0.2209152,-3.290083E-05,0.005771168,0.9970585,29.19588,9.604736,-25.53284,1010.077
2.397715092,0.2589334,0.2430426,-0.2820776,0.003375815,0.008236298,1.002362,29.19588,9.604736,-25.53284,1010.077
2.400192738,0.1976999,0.1825299,-0.2209152,0.002427173,0.006292941,1.006219,29.19588,9.604736,-25.53284,1010.077
2.402669430,0.1364664,0.2430426,-0.1597527,0.004364293,0.006297149,1.003795,29.19588,9.604736,-25.53284,1010.077
2.405146599,0.1364664,0.1220172,-0.09859026,0.001428813,0.005291793,0.997048,29.19588,9.604736,-25.53284,1010.077
2.407623291,0.07523298,0.0009917939,-0.1597527,0.002896507,0.002861206,0.9955795,29.19588,9.604736,-25.53284,1010.077
2.410100460,-0.04723396,0.0009917939,-0.09859026,0.005323281,0.00580354,0.99896,29.19588,9.604736,-25.53284,1010.077
2.412577152,0.3201669,0.0009917939,-0.1597527,0.002408629,0.008724048,1.004783,29.19588,9.604736,-25.53284,1010.077
2.415054321,0.1976999,0.1825299,-0.09859026,0.002420061,0.005798985,1.00332,29.19588,9.604736,-25.53284,1010.077
2.417531014,0.1364664,0.1220172,-0.2209152,0.001438119,0.006276189,1.001397,29.19588,9.604736,-25.53284,1010.077
2.420008659,0.0139995,0.0615045,-0.2209152,0.002416759,0.004330009,0.9999338,29.19588,9.604736,-25.53284,1010.077
2.422484875,-0.04723396,0.1220172,-0.09859026,0.001441952,0.006767801,1.00333,29.19588,9.604736,-25.53284,1010.077
2.424962521,0.3201669,0.1220172,-0.1597527,0.002904751,0.005800331,1.002835,29.19588,9.604736,-25.53284,1010.077
2.427439213,0.2589334,0.1825299,-0.2209152,0.0009387408,0.01066419,1.004801,29.19588,9.604736,-25.53284,1010.077
2.429916382,0.3201669,0.1220172,-0.2820776,0.005336421,0.007279547,1.005242,29.19013,9.971432,-25.53932,1010.077
2.432393074,0.0139995,0.0615045,-0.2209152,0.00482552,0.008726086,1.000426,29.19013,9.971432,-25.53932,1010.077
2.434870243,0.2589334,0.1220172,-0.3432401,0.003391057,0.004336215,1.000411,29.19013,9.971432,-25.53932,1010.077
2.437346935,0.1364664,0.2430426,-0.3432401,0.004344641,0.00774972,1.000423,29.19013,9.971432,-25.53932,1010.077
2.439824104,0.1364664,0.1825299,-0.2820776,-0.0005110549,0.004307877,0.9970536,29.19013,9.971432,-25.53932,1010.077
2.442300797,0.2589334,0.2430426,-0.3432401,0.004832056,0.007264141,0.9999357,29.19013,9.971432,-25.53932,1010.077
2.444777966,0.1364664,0.0615045,-0.3432401,0.003395976,0.00433973,1.001859,29.19013,9.971432,-25.53932,1010.072
2.447255612,0.07523298,-0.1200336,-0.3432401,0.002435857,0.00238817,1.002337,29.19013,9.971432,-25.53932,1010.072
2.449732304,0.3201669,0.0009917939,-0.1597527,0.001425002,0.006266815,0.9975358,29.19013,9.971432,-25.53932,1010.072
2.452209473,0.2589334,0.0009917939,-0.03742781,0.00190371,0.008219373,0.9985086,29.19013,9.971432,-25.53932,1010.072
2.454686165,0.0139995,0.0615045,-0.3432401,-1.211767E-05,0.006763765,1.004786,29.19013,9.971432,-25.53932,1010.072
2.457163334,0.1364664,0.1220172,-0.2820776,0.001912994,0.007737136,1.000437,29.19013,9.971432,-25.53932,1010.072
2.459640026,0.1976999,0.0615045,0.02373465,-0.002930116,0.005282031,1.002381,29.19013,9.971432,-25.53932,1010.072
2.462117195,0.1364664,0.1220172,-0.09859026,0.0009654146,0.003839049,1.001387,29.19013,9.971432,-25.53932,1010.072
2.464593887,0.07523298,0.2430426,-0.2209152,0.00387413,0.005803021,1.001864,29.19013,9.971432,-25.53932,1010.072
2.467071533,0.07523298,0.2430426,-0.465565,0.003852284,0.006765152,0.9970424,29.19013,9.971432,-25.53932,1010.072
2.469547749,0.1364664,0.1825299,-0.1597527,0.003867572,0.005798333,0.9999334,29.19013,9.971432,-25.53932,1010.072
2.472025395,0.0139995,0.0009917939,-0.09859026,0.005350023,0.003378292,1.002809,29.19013,9.971432,-25.53932,1010.072
2.474502087,0.1364664,0.0615045,-0.2209152,0.006305777,0.005815605,1.001851,29.19013,9.971432,-25.53932,1010.072
2.476979256,0.0139995,0.1220172,-0.3432401,-0.0004733668,0.002868196,1.005734,29.19013,9.971432,-25.53932,1010.072
2.479455948,0.2589334,0.1825299,-0.2820776,0.0009998234,0.002397025,1.009102,29.5622,9.991051,-24.71734,1010.072
2.481933117,0.1364664,-0.05952091,-0.2820776,-0.000980411,0.006272979,1.005272,29.5622,9.991051,-24.71734,1010.072
2.484409809,0.1364664,0.1825299,-0.4044026,0.002920592,0.00532278,1.006694,29.5622,9.991051,-24.71734,1010.071
2.486886978,0.1364664,0.364068,-0.2820776,0.0004752746,0.004811553,1.001878,29.5622,9.991051,-24.71734,1010.071
2.489363670,0.1364664,0.0615045,-0.1597527,0.006304114,0.0043478,0.9989471,29.5622,9.991051,-24.71734,1010.071
2.491840840,0.1364664,0.0615045,-0.1597527,0.002886761,0.008720706,1.002367,29.5622,9.991051,-24.71734,1010.071
2.494317532,0.1364664,0.1220172,-0.1597527,0.001451744,0.003841566,1.001384,29.5622,9.991051,-24.71734,1010.071
2.496795178,0.0139995,0.0009917939,-0.2209152,0.002436943,0.001900074,1.001852,29.5622,9.991051,-24.71734,1010.071
2.499271870,0.07523298,0.1220172,-0.09859026,0.004371937,0.00581374,1.00524,29.5622,9.991051,-24.71734,1010.071
2.501749039,0.1364664,0.1220172,-0.1597527,-0.001429121,0.0004308831,1.006692,29.5622,9.991051,-24.71734,1010.071
2.504225731,0.0139995,0.1825299,-0.2209152,-0.002911595,0.001384292,1.001396,29.5622,9.991051,-24.71734,1010.071
2.506702900,0.1976999,0.0615045,-0.2820776,-3.890507E-05,0.006255749,0.9960957,29.5622,9.991051,-24.71734,1010.071
2.509179592,0.0139995,0.1825299,-0.2209152,0.006291021,0.005805059,0.9975068,29.5622,9.991051,-24.71734,1010.071
2.511656761,-0.04723396,0.3035553,-0.1597527,0.001944609,0.002382138,1.000892,29.5622,9.991051,-24.71734,1010.071
2.514133453,0.1364664,0.1220172,-0.2209152,-2.798205E-05,0.005774683,0.9985066,29.5622,9.991051,-24.71734,1010.071
2.516610623,0.2589334,0.1825299,-0.2209152,0.003359374,0.005291315,0.9926934,29.5622,9.991051,-24.71734,1010.071
2.519087315,-0.04723396,0.0615045,-0.09859026,0.002905836,0.005312234,1.00235,29.5622,9.991051,-24.71734,1010.071
2.521564961,0.1364664,0.1220172,-0.1597527,0.005345636,0.002397413,0.9999079,29.5622,9.991051,-24.71734,1010.071
2.524041653,0.1976999,0.2430426,-0.3432401,0.00191953,0.006275191,0.9999465,29.5622,9.991051,-24.71734,1010.072
2.526518822,0.1364664,0.2430426,-0.2820776,0.002407521,0.007745511,1.002847,29.5622,9.991051,-24.71734,1010.072
2.528995991,0.07523298,0.364068,-0.1597527,0.001949528,0.002385654,1.00234,29.94257,9.315542,-25.08687,1010.072
2.531472683,-0.1084674,0.2430426,-0.09859026,0.0004899625,0.0004222018,0.9989588,29.94257,9.315542,-25.08687,1010.072
2.533949852,-0.1084674,-0.05952091,-0.03742781,0.003395422,0.003850462,1.000891,29.94257,9.315542,-25.08687,1010.072
2.536426544,0.1364664,0.2430426,-0.1597527,0.001928813,0.005792953,1.001875,29.94257,9.315542,-25.08687,1010.072
2.538903237,0.2589334,0.0615045,-0.2209152,0.006783908,0.005812263,0.9994348,29.94257,9.315542,-25.08687,1010.072
2.541380406,0.1364664,0.0615045,-0.3432401,0.001945209,0.005804671,1.006701,29.94257,9.315542,-25.08687,1010.072
2.543858051,0.2589334,0.1825299,-0.2209152,0.001935348,0.004331008,1.001384,29.94257,9.315542,-25.08687,1010.072
2.546334744,0.2589334,0.1220172,-0.1597527,0.00338727,0.006777868,1.00332,29.94257,9.315542,-25.08687,1010.072
2.548811913,0.3814003,0.1220172,-0.2209152,0.003380688,0.005306548,0.9989681,29.94257,9.315542,-25.08687,1010.072
2.551288605,0.1976999,0.1825299,-0.09859026,0.00143865,0.005298825,0.9999442,29.94257,9.315542,-25.08687,1010.072
2.553765774,0.1364664,0.0615045,-0.1597527,-3.613415E-05,0.008702089,1.000935,29.94257,9.315542,-25.08687,1010.072
2.556242466,0.2589334,0.0009917939,-0.2209152,0.0009523209,0.005296308,0.9999468,29.94257,9.315542,-25.08687,1010.072
2.558719635,0.1976999,0.2430426,-0.2820776,0.0009572394,0.005299822,1.001395,29.94257,9.315542,-25.08687,1010.072
2.561196327,0.1976999,0.1825299,-0.2820776,0.003399787,0.003364709,1.001371,29.94257,9.315542,-25.08687,1010.072
2.563673496,0.1976999,0.1825299,-0.2820776,0.002424357,0.000913335,0.9965374,29.94257,9.315542,-25.08687,1010.073
2.566150189,0.1364664,0.1825299,-0.2209152,0.002858888,0.008700786,0.9941617,29.94257,9.315542,-25.08687,1010.073
2.568627834,0.1976999,0.1825299,-0.1597527,0.0062943,0.005807403,0.9984722,29.94257,9.315542,-25.08687,1010.073
2.571104527,0.3201669,0.1825299,-0.2209152,-0.002463993,0.006247851,0.9980396,29.94257,9.315542,-25.08687,1010.073
2.573581696,0.1364664,0.2430426,-0.2820776,-5.027745E-06,0.005791088,1.005264,29.94257,9.315542,-25.08687,1010.073
2.576058388,0.0139995,0.1825299,-0.2209152,0.002908007,0.004336041,1.001379,29.94257,9.315542,-25.08687,1010.073
2.578535557,0.07523298,0.2430426,-0.09859026,0.0023993,0.00627302,0.9980131,29.94257,9.315542,-25.08687,1010.073
2.581012249,0.07523298,0.0615045,-0.03742781,0.001432646,0.005783405,0.9989812,29.2015,9.307577,-25.08409,1010.073
2.583489418,0.07523298,0.0009917939,-0.2209152,0.001931007,0.006283393,1.003325,29.2015,9.307577,-25.08409,1010.073
2.585966110,0.1364664,0.0615045,-0.03742781,0.002418975,0.006287082,1.003805,29.2015,9.307577,-25.08409,1010.073
2.588443279,0.1364664,0.0615045,-0.2820776,0.0004654599,0.006271155,1.001402,29.2015,9.307577,-25.08409,1010.073
2.590919972,0.1364664,0.0615045,-0.3432401,-0.00100064,0.00576965,0.9985119,29.2015,9.307577,-25.08409,1010.073
2.593397617,0.1364664,0.0615045,-0.2209152,-0.0004996005,0.002849447,0.9980114,29.2015,9.307577,-25.08409,1010.073
2.595874310,0.07523298,0.1220172,-0.2209152,0.004350091,0.006775871,1.000418,29.2015,9.307577,-25.08409,1010.073
2.598351479,-0.04723396,-0.05952091,-0.2209152,0.002405327,0.007255071,1.001397,29.2015,9.307577,-25.08409,1010.073
2.600828171,0.07523298,0.0615045,-0.03742781,0.002397706,0.009205113,1.002372,29.2015,9.307577,-25.08409,1010.073
2.603305340,0.07523298,0.3035553,-0.09859026,0.006313398,0.003865563,1.000875,29.2015,9.307577,-25.08409,1010.073
2.605782032,0.07523298,0.1825299,-0.1597527,0.0004665225,0.004316426,0.9984964,29.2015,9.307577,-25.08409,1010.073
2.608259201,0.0139995,0.2430426,-0.2209152,0.002899832,0.005796815,1.001387,29.2015,9.307577,-25.08409,1010.073
2.610735893,0.1976999,0.0615045,-0.2209152,0.007258807,0.008739842,1.000895,29.2015,9.307577,-25.08409,1010.073
2.613213062,0.1364664,0.2430426,-0.2209152,0.003867018,0.005309065,0.9989654,29.2015,9.307577,-25.08409,1010.073
2.615689755,0.0139995,-0.1200336,-0.2209152,0.00240475,0.005299171,0.9980081,29.2015,9.307577,-25.08409,1010.073
2.618167401,0.0139995,0.0009917939,-0.1597527,0.001927196,0.007258413,1.003813,29.2015,9.307577,-25.08409,1010.073
2.620644570,0.3201669,0.1825299,-0.2820776,0.003399255,0.004342074,1.002825,29.2015,9.307577,-25.08409,1010.073
2.623121262,0.1976999,0.0615045,-0.2820776,0.002399854,0.006762288,0.9989809,29.2015,9.307577,-25.08409,1010.073
2.625598431,-0.04723396,0.1220172,-0.1597527,0.002422255,0.006289425,1.004771,29.2015,9.307577,-25.08409,1010.073
2.628075123,0.07523298,-0.05952091,-0.2209152,0.000477423,0.002368728,0.9984863,29.2015,9.307577,-25.08409,1010.073
2.630552292,0.07523298,0.0615045,-0.2209152,0.0004703787,0.00627467,1.00285,29.57203,9.31156,-25.08548,1010.073
2.633028984,0.07523298,0.1825299,-0.4044026,-0.001453093,0.005302472,1.007683,29.57203,9.31156,-25.08548,1010.073
2.635506153,0.0139995,0.1220172,-0.2209152,0.00292057,0.003856148,1.004273,29.57203,9.31156,-25.08548,1010.073
2.637982845,0.1976999,0.0009917939,-0.2209152,0.005824367,0.005816604,1.003302,29.57203,9.31156,-25.08548,1010.073
2.640460491,0.1976999,0.0615045,-0.3432401,0.002910201,0.004826481,1.00283,29.57203,9.31156,-25.08548,1010.073
2.642937184,0.1976999,0.3035553,-0.2209152,0.005334204,0.005322475,1.001371,29.57203,9.31156,-25.08548,1010.072
2.645414353,0.07523298,0.1220172,-0.2209152,0.004856604,0.004348453,1.002334,29.57203,9.31156,-25.08548,1010.072
2.647891045,0.07523298,0.3035553,-0.4044026,-0.0009891631,0.005777852,1.001891,29.57203,9.31156,-25.08548,1010.072
2.652844906,0.1364664,0.0615045,-0.3432401,0.0009665231,0.004817585,1.003323,29.57203,9.31156,-25.08548,1010.072
