Time (s),Gyroscope X (deg/s),Gyroscope Y (deg/s),Gyroscope Z (deg/s),Accelerometer X (g),Accelerometer Y (g),Accelerometer Z (g),Magnetometer X (uT),Magnetometer Y (uT),Magnetometer Z (uT),Barometer (hPa)
0.019817829,0.07523298,13.43481,5.528356,-0.1220556,0.008105505,1.01608,23.38633,-11.23884,-63.72771,1000.805
0.039636612,-3.108907,6.838927,2.286746,-0.1015176,-0.01419669,1.011992,24.12261,-10.92529,-63.73588,1000.802
0.059454441,-6.415515,0.6061188,-1.811139,-0.0661281,-0.01507117,0.9770408,24.12261,-10.92529,-63.73588,1000.802
0.079272270,-7.456484,2.300474,0.6965217,-0.05216189,-0.02487377,0.9204406,25.19451,-12.31967,-63.71498,1000.802
0.099090576,-2.006705,9.501486,0.5741968,-0.0599453,-0.02247122,0.9238743,25.19451,-12.31967,-63.71498,1000.802
0.118908405,-3.598775,6.596876,-1.383002,-0.1114491,-0.0143935,0.9517103,25.19451,-12.31967,-63.71498,1000.801
0.138726234,-1.700538,3.510728,-0.8325397,-0.1254899,-0.02419912,0.9541503,24.79535,-10.55972,-64.18826,1000.801
0.158544540,-3.415075,-1.753877,-4.012987,-0.1244442,-0.03196379,0.9627929,24.79535,-10.55972,-64.18826,1000.8
0.178362370,-3.047674,-3.327207,-7.743897,-0.09335023,-0.03182497,0.9534525,25.9168,-11.22726,-64.56056,1000.8
0.198180199,-5.129612,-1.027724,-7.988547,-0.08137582,-0.008916435,0.9370936,25.9168,-11.22726,-64.56056,1000.802
0.217998028,-1.455604,-0.241059,-5.542049,-0.08215862,-0.02931839,0.9591963,25.9168,-11.22726,-64.56056,1000.802
0.237816334,3.565541,0.0009917939,-10.6797,-0.09824007,-0.0162252,0.9714185,25.89323,-9.837231,-65.40878,1000.799
0.257634163,2.585805,0.9691951,-11.35248,-0.08903118,0.005310579,0.9975433,25.89323,-9.837231,-65.40878,1000.799
0.277451992,-0.5371017,2.118936,-8.905984,-0.1090593,0.002210845,0.9667456,26.27373,-10.58227,-66.22057,1000.798
0.299747944,3.810475,6.2338,1.246984,-0.05360781,0.006904697,0.9766024,26.27373,-10.58227,-66.22057,1000.798
0.319565773,8.464218,5.386622,8.708804,0.01606803,-0.02050766,0.9688401,26.27373,-10.58227,-66.22057,1000.794
0.339383602,10.79109,24.08505,-4.318799,-0.09112065,0.01399719,0.9696041,25.88594,-9.486172,-66.23862,1000.794
0.359201908,20.58845,34.49323,-6.092511,-0.2446039,0.05245228,1.092759,25.88594,-9.486172,-66.23862,1000.795
0.379019737,12.26069,10.59071,-1.138352,-0.2469976,-0.00976378,1.144099,27.69988,-10.9337,-66.21941,1000.795
0.398837566,4.361576,-8.652325,-11.71946,-0.1855274,-0.09241716,1.063697,27.69988,-10.9337,-66.21941,1000.796
0.418656349,12.56686,-6.413355,-11.59713,-0.1080059,-0.0844006,0.990429,27.69988,-10.9337,-66.21941,1000.796
0.438474178,16.17964,-0.5436226,-13.86014,-0.1168841,-0.06253548,0.9901071,28.80574,-10.55506,-66.23006,1000.794
0.458291531,21.99681,2.663551,-13.43201,-0.09291668,-0.01621626,0.9636666,28.80574,-10.55506,-66.23006,1000.794
0.478109360,25.91576,12.58763,-10.49621,-0.09764511,0.05097425,0.9712778,29.19104,-11.60568,-67.03646,1000.795
0.497928143,13.30166,13.8584,-7.499248,-0.111283,0.05577771,0.9733077,29.19104,-11.60568,-67.03646,1000.795
0.517745972,6.994615,16.76301,-6.031348,-0.1184922,0.05629016,0.9994145,29.19104,-11.60568,-67.03646,1000.795
0.537563801,6.627214,18.75993,2.531395,-0.1115294,0.02319226,0.9900355,29.93365,-11.58208,-66.21587,1000.795
0.559859276,-2.98644,17.61019,0.8800091,-0.1440099,0.004520498,0.9901174,29.93365,-11.58208,-66.21587,1000.797
0.579677105,0.3814003,16.2184,-3.768338,-0.1828521,0.01609791,1.028521,30.98772,-11.95313,-67.03669,1000.797
0.599494934,-0.4758682,10.40918,4.243944,-0.1608813,-0.006215484,1.016702,30.98772,-11.95313,-67.03669,1000.797
0.619313717,-7.762651,0.5456061,1.246984,-0.1396664,-0.001836084,0.9697885,30.98772,-11.95313,-67.03669,1000.797
0.639131546,1.851004,1.09022,0.5130343,-0.09931216,-0.01434581,0.9453694,32.48208,-12.66337,-66.64927,1000.796
0.658949375,10.72986,4.115856,3.081857,-0.08172579,-0.02593201,0.949075,32.48208,-12.66337,-66.64927,1000.796
0.678767681,-0.8432691,-0.7856733,-1.749977,-0.1232497,0.000609118,0.9388198,33.59803,-13.03255,-67.40698,1000.798
0.698585510,0.1364664,-0.1805463,-4.624612,-0.1316579,0.02979821,0.9457732,33.59803,-13.03255,-67.40698,1000.798
0.718403340,2.095937,3.571241,-0.7102148,-0.1221552,0.04337697,0.9023498,33.59803,-13.03255,-67.40698,1000.802
0.738221646,2.340871,5.628673,3.509995,-0.1331409,0.03026235,0.9395089,33.59299,-12.65864,-67.03345,1000.802
0.758039474,-0.6595686,4.539444,5.528356,-0.1272232,0.01861808,0.9442435,33.59299,-12.65864,-67.03345,1000.801
0.777857304,-1.945472,2.300474,6.568118,-0.1270187,-0.01496799,0.9488966,34.28228,-13.40036,-67.84641,1000.801
0.797676086,2.340871,1.937398,3.020695,-0.1420399,-0.02136197,0.9547382,34.28228,-13.40036,-67.84641,1000.803
0.817493916,9.566421,3.934317,9.136941,-0.1570979,-0.01116068,0.9770762,34.28228,-13.40036,-67.84641,1000.803
0.839788914,4.116642,3.08714,6.812768,-0.180441,-0.0005257952,0.9951177,34.27077,-12.66697,-67.85937,1000.807
0.859607220,7.79065,3.934317,5.834168,-0.1854966,0.03646585,0.9996794,34.27077,-12.66697,-67.85937,1000.807
0.879425049,13.1792,5.447135,8.525316,-0.1889159,0.05648126,1.028279,35.02839,-13.76631,-68.22272,1000.811
0.899242878,8.158051,3.32919,8.402991,-0.1283311,0.06984793,0.9889191,35.02839,-13.76631,-68.22272,1000.811
0.919061184,8.219284,13.73738,2.470233,-0.1212297,0.1029907,0.986637,35.02839,-13.76631,-68.22272,1000.809
0.938879013,-6.109347,13.49532,10.1767,-0.03342414,-0.03178356,0.841626,36.14468,-14.06114,-68.28482,1000.809
0.958696842,13.1792,28.92606,27.79149,-0.09148912,0.000879348,0.982571,36.14468,-14.06114,-68.28482,1000.81
0.978515625,14.52633,36.67169,23.75477,-0.3010578,0.02866608,1.042748,36.84137,-15.15272,-68.20459,1000.81
0.998333454,-1.333137,22.14864,7.11858,-0.3182324,0.0988662,1.113673,36.84137,-15.15272,-68.20459,1000.814
1.018151283,-8.558686,12.8902,8.158341,-0.2237479,0.1015514,1.014221,36.84137,-15.15272,-68.20459,1000.814
1.037969589,-5.190845,13.01122,19.35107,-0.179757,0.02811639,0.9576121,38.7186,-16.58395,-67.36224,1000.811
1.057787418,-5.741947,8.835846,6.078818,-0.1671131,0.01889276,0.9420499,38.7186,-16.58395,-67.36224,1000.811
1.077605248,-13.39613,15.91583,-5.052749,-0.1474289,0.04961244,0.9174833,38.7186,-16.58395,-67.36224,1000.811
1.099901199,-3.843709,28.01837,-0.1597527,-0.2713915,0.07980625,0.9839611,39.84146,-17.23706,-66.9745,1000.811
1.119719029,-7.762651,20.63582,2.164421,-0.3428424,0.09706397,1.024986,39.84146,-17.23706,-66.9745,1000.814
1.139536858,-7.578951,13.31379,0.4518718,-0.3228882,0.08984455,1.017117,41.26761,-17.58849,-66.97335,1000.814
1.159355164,-0.4758682,13.97943,3.204182,-0.3132944,0.09419987,0.9852298,41.26761,-17.58849,-66.97335,1000.816
1.179172993,1.177435,13.01122,6.078818,-0.2797237,0.07482859,0.9569512,41.26761,-17.58849,-66.97335,1000.816
1.198990822,-2.006705,7.383542,6.38463,-0.2067004,0.04934873,0.9356654,42.73429,-16.52517,-66.5539,1000.814
1.218809128,-5.80318,5.144571,4.305107,-0.1543008,0.02264402,0.8546342,42.73429,-16.52517,-66.5539,1000.814
1.238626957,-9.967056,8.775333,3.38767,-0.1377504,0.01149635,0.8404886,43.79469,-17.18616,-66.54596,1000.817
1.258444786,-5.80318,17.48916,0.08489711,-0.1697988,0.02456508,0.876932,43.79469,-17.18616,-66.54596,1000.817
1.278263092,-6.537982,16.46045,0.1460596,-0.2378007,0.02622838,0.9053082,43.79469,-17.18616,-66.54596,1000.819
1.298080921,1.177435,16.76301,-1.749977,-0.2723549,0.04900895,0.9360231,44.52523,-16.50592,-66.56062,1000.819
1.317898750,2.340871,13.3743,-3.401363,-0.2686595,0.07186649,0.9163304,44.52523,-16.50592,-66.56062,1000.818
1.337717533,0.5038673,12.52712,-2.973226,-0.2696715,0.07476661,0.9095933,46.01301,-16.85789,-66.62302,1000.818
1.357535362,1.299902,11.37738,-1.199515,-0.2655211,0.05101767,0.9466149,46.01301,-16.85789,-66.62302,1000.822
1.379830361,-1.761771,5.386622,-3.8295,-0.2729524,0.06505971,0.9298339,46.01301,-16.85789,-66.62302,1000.822
1.399648666,-3.047674,4.539444,-4.196475,-0.2860817,0.06499293,0.9303882,47.43423,-16.8342,-66.18499,1000.822
1.419466496,0.8712681,10.34866,-5.297399,-0.3158132,0.07359233,0.9257683,47.43423,-16.8342,-66.18499,1000.822
1.439284325,6.933381,9.380461,-0.8325397,-0.355036,0.07155441,0.9727924,48.1909,-17.87242,-66.54942,1000.824
1.459103108,5.402544,3.752779,3.020695,-0.3456511,0.0575283,0.991976,48.1909,-17.87242,-66.54942,1000.824
1.478920937,-4.700978,-4.96105,-3.217876,-0.2659251,0.03689668,0.9475099,48.1909,-17.87242,-66.54942,1000.823
1.498739243,-9.722122,-2.540542,2.164421,-0.184712,0.03095886,0.9354506,48.91556,-16.82668,-66.6339,1000.823
1.518557072,-12.11023,3.147652,6.996255,-0.2078564,-0.007151435,0.9315202,48.91556,-16.82668,-66.6339,1000.821
1.538374901,-4.456044,15.12917,-2.483926,-0.3328545,0.02690344,0.9859565,48.9369,-18.23957,-66.98907,1000.821
1.558193207,8.831619,13.61635,1.124659,-0.4124649,0.03392929,1.041937,48.9369,-18.23957,-66.98907,1000.824
1.578011036,2.708272,2.542525,4.549757,-0.403387,-0.01419226,1.057568,48.9369,-18.23957,-66.98907,1000.824
1.597828865,0.7488011,-0.7251607,-5.052749,-0.3646902,-0.02978459,0.9699113,49.60542,-17.49166,-66.62457,1000.82
1.617647648,13.914,8.412257,-8.722497,-0.3217149,-0.05143487,0.9859759,49.60542,-17.49166,-66.62457,1000.82
1.637465000,14.71003,4.781495,-11.53597,-0.2701394,-0.01189693,0.914943,49.99826,-18.96167,-66.98005,1000.823
1.659760475,21.26201,13.97943,-11.53597,-0.2520172,0.03634096,0.8890269,49.99826,-18.96167,-66.98005,1000.823
1.679578781,7.545716,19.42557,-14.77758,-0.3632641,0.1210598,0.9233757,49.99826,-18.96167,-66.98005,1000.827
1.699396610,9.321486,22.26967,-10.37388,-0.4019454,0.1112418,0.9737356,50.73358,-18.58701,-66.98931,1000.827
1.719214440,11.70959,14.52404,-5.847861,-0.3825184,0.1157236,0.9731697,50.73358,-18.58701,-66.98931,1000.823
1.739032746,1.422369,10.0461,-3.890663,-0.342901,0.05400135,0.9369175,51.86877,-19.96509,-66.14526,1000.823
1.758850574,-5.80318,10.0461,-4.808099,-0.3374993,0.02913378,0.9111783,51.86877,-19.96509,-66.14526,1000.824
1.778669357,4.239109,13.49532,0.6965217,-0.3146282,0.02388418,0.9061993,51.86877,-19.96509,-66.14526,1000.824
1.798487186,-0.04723396,11.49841,0.6965217,-0.335554,0.02327732,0.901484,52.25235,-20.67886,-65.31032,1000.824
1.818305016,-3.047674,11.25635,-1.872301,-0.3118315,0.0252792,0.8728864,52.25235,-20.67886,-65.31032,1000.824
1.838123321,6.137346,15.00814,0.02373465,-0.3199785,0.0131008,0.8883142,52.94891,-21.77165,-65.29342,1000.826
1.857941151,2.095937,14.46353,-2.055789,-0.3370633,0.02372271,0.8874969,52.94891,-21.77165,-65.29342,1000.826
1.877758980,-1.02697,12.70866,-3.462525,-0.3569792,0.02852509,0.9025936,52.94891,-21.77165,-65.29342,1000.827
1.897577286,3.443074,10.40918,-1.199515,-0.3630229,0.05767871,0.8897441,54.0562,-21.37857,-64.54404,1000.827
1.917395115,5.525012,10.77225,3.14302,-0.3653493,0.0450307,0.8998281,54.0562,-21.37857,-64.54404,1000.825
1.939690590,4.667743,12.16405,0.6965217,-0.3658061,0.04504928,0.9085189,54.83164,-23.50124,-64.06566,1000.825
1.959508896,-1.761771,10.16713,-2.422764,-0.3916053,0.0644538,0.9338591,54.83164,-23.50124,-64.06566,1000.828
1.979326725,-3.782475,4.66047,1.430471,-0.3907002,0.07858784,0.9373055,54.83164,-23.50124,-64.06566,1000.828
1.999145031,-2.741507,1.513809,4.672081,-0.3465282,0.05969089,0.880976,55.20793,-23.86395,-64.06056,1000.824
2.018962860,-3.170141,7.080978,7.546717,-0.3177696,0.03202025,0.8541291,55.20793,-23.86395,-64.06056,1000.824
2.038780689,-5.741947,11.74046,1.919771,-0.3487707,0.02265916,0.8754886,55.23164,-25.32351,-63.65463,1000.825
2.058598995,-2.129172,15.91583,1.124659,-0.4139615,0.04723825,0.9102418,55.23164,-25.32351,-63.65463,1000.825
2.078416824,2.340871,15.73429,2.164421,-0.4260076,0.05067753,0.9489397,55.23164,-25.32351,-63.65463,1000.825
2.098234653,-0.2921678,15.25019,1.552796,-0.4236229,0.05407867,0.9407386,55.90604,-24.9411,-63.2203,1000.825
2.118053436,-3.292608,16.7025,1.185821,-0.4687145,0.04318734,0.9636153,55.90604,-24.9411,-63.2203,1000.825
2.137871265,0.6263342,16.15788,1.919771,-0.4593759,0.03743894,0.9828417,57.0404,-26.3276,-62.81961,1000.825
2.157689571,4.116642,19.24403,5.773006,-0.4574075,0.01595519,0.9542427,57.0404,-26.3276,-62.81961,1000.822
2.177507401,4.177875,23.17736,1.430471,-0.5162449,0.0288562,0.9787649,57.0404,-26.3276,-62.81961,1000.822
2.199802399,6.259813,23.23787,1.430471,-0.5554907,0.09929875,0.9957526,57.79452,-27.03739,-61.98605,1000.824
2.219621182,9.076552,15.43173,8.219504,-0.5226746,0.1207985,0.9561037,57.79452,-27.03739,-61.98605,1000.824
2.239439011,2.340871,6.415338,8.036016,-0.4273367,0.0773057,0.8882663,58.8532,-27.36152,-60.33676,1000.827
2.259256840,3.565541,4.236881,10.11554,-0.3345139,0.04547364,0.8151929,58.8532,-27.36152,-60.33676,1000.827
2.279075146,-2.312872,10.22764,5.100219,-0.3365025,0.03761068,0.7895815,58.8532,-27.36152,-60.33676,1000.823
2.298892975,-8.068818,14.94763,-1.016027,-0.3900862,0.072959,0.8228785,58.8817,-29.12667,-59.92543,1000.823
2.318710804,-7.456484,17.97326,1.858608,-0.4567121,0.08092588,0.8372818,58.8817,-29.12667,-59.92543,1000.826
2.338529110,-0.7820356,20.57531,0.02373465,-0.5024017,0.08999594,0.8602643,58.20391,-29.11833,-59.09951,1000.826
2.358346939,-1.271903,17.24711,0.207222,-0.5141211,0.09430144,0.8535931,58.20391,-29.11833,-59.09951,1000.83
2.378165722,2.340871,17.1866,0.9411715,-0.4946135,0.08173037,0.848595,58.20391,-29.11833,-59.09951,1000.83
2.397983551,-1.088203,16.09737,1.491634,-0.4599392,0.05659133,0.8492413,60.7432,-29.44218,-58.27914,1000.826
2.417801380,-4.884678,11.61943,-0.09859026,-0.4078287,0.01584766,0.8028924,60.7432,-29.44218,-58.27914,1000.826
2.437619686,-6.109347,16.52096,-2.850901,-0.3868535,-0.005020539,0.786742,60.7432,-29.44218,-58.27914,1000.829
2.457437515,-3.966176,22.33018,-4.502287,-0.4345025,0.01625123,0.8257264,61.49802,-30.14474,-57.06557,1000.829
2.479733467,-6.048114,16.15788,-6.337161,-0.4838288,0.05740318,0.8334479,61.49802,-30.14474,-57.06557,1000.831
2.499550820,-0.5983351,15.85532,-2.239276,-0.4927249,0.08805522,0.8423423,61.87514,-30.49904,-56.61713,1000.831
2.519368649,1.361136,14.28199,1.369309,-0.5004526,0.08756435,0.8573451,61.87514,-30.49904,-56.61713,1000.829
2.539187431,-0.5983351,12.46661,-0.7102148,-0.4872791,0.08766277,0.8698232,61.87514,-30.49904,-56.61713,1000.829
2.559005261,-1.884238,8.835846,-1.260677,-0.4785248,0.07499765,0.848955,63.28698,-29.72031,-55.052,1000.826
2.578823567,-1.516837,10.28815,-1.444164,-0.4925853,0.0710445,0.8552865,63.28698,-29.72031,-55.052,1000.826
2.598641396,2.524572,8.896359,-0.2820776,-0.5052833,0.07436292,0.8452368,64.03616,-30.05498,-53.78157,1000.827
2.618459225,7.484482,13.13225,0.5741968,-0.552457,0.09465164,0.8793867,64.03616,-30.05498,-53.78157,1000.827
2.638277531,0.9325016,6.838927,-3.768338,-0.582369,0.1348988,0.873965,64.03616,-30.05498,-53.78157,1000.829
2.658095360,1.422369,3.873805,1.919771,-0.5408943,0.1039226,0.8624772,62.91951,-29.69302,-53.40387,1000.829
2.677913189,5.647479,1.876886,3.14302,-0.5017231,0.05444827,0.8581473,62.91951,-29.69302,-53.40387,1000.827
2.697731972,-0.965736,0.7271442,4.182782,-0.4435077,0.02727043,0.7703243,64.04415,-30.39882,-52.5717,1000.827
2.717549801,-2.61904,9.561998,1.491634,-0.4507322,-0.01182674,0.726722,64.04415,-30.39882,-52.5717,1000.83
2.739845276,0.7488011,28.19991,-6.642973,-0.5949976,0.02861566,0.8464583,64.04415,-30.39882,-52.5717,1000.83
2.759663105,5.218844,20.63582,-2.973226,-0.6568306,0.0786004,0.909319,63.68008,-30.76229,-52.18382,1000.83
2.779480934,10.60739,17.97326,4.977894,-0.6522036,0.02600357,0.8959911,63.68008,-30.76229,-52.18382,1000.83
2.799299717,5.708712,12.52712,-1.260677,-0.6481159,0.0134539,0.9330705,64.41354,-29.98124,-50.10946,1000.833
2.819117546,5.035144,0.9086823,-2.667413,-0.5827622,0.03606682,0.8811824,64.41354,-29.98124,-50.10946,1000.833
2.838935852,10.85232,-3.085156,2.714883,-0.5046517,-0.004239157,0.7584302,64.41354,-29.98124,-50.10946,1000.831
2.858753681,13.42413,10.10661,-12.88154,-0.4749969,-0.01827089,0.7316484,64.43221,-31.06689,-49.32999,1000.831
2.878571510,16.42457,23.41941,-9.028309,-0.5816124,0.04514197,0.8054422,64.43221,-31.06689,-49.32999,1000.835
2.898389816,14.40386,20.0307,-8.600172,-0.6410101,0.08096458,0.8460136,64.42882,-30.67614,-48.06974,1000.835
2.918207645,10.72986,12.28507,-8.905984,-0.6168655,0.1015002,0.8290932,64.42882,-30.67614,-48.06974,1000.833
2.938026428,5.708712,11.37738,-3.646013,-0.5594954,0.07978602,0.78764,64.42882,-30.67614,-48.06974,1000.833
2.957844257,4.667743,18.21531,-7.254598,-0.5709066,0.04373539,0.8048937,65.48162,-30.63478,-46.49027,1000.838
2.977661610,4.484043,15.06866,-8.783659,-0.590341,0.06026983,0.8379071,65.48162,-30.63478,-46.49027,1000.838
2.997480392,5.157611,8.351745,-2.728576,-0.5626562,0.05892089,0.8247163,66.22576,-30.59554,-44.8463,1000.836
3.019775391,1.973471,6.89944,-3.340201,-0.5324387,0.02685789,0.7905988,66.22576,-30.59554,-44.8463,1000.836
3.039593697,1.912237,6.717902,-5.052749,-0.5025058,0.03419007,0.7378607,66.22576,-30.59554,-44.8463,1000.84
3.059411526,6.504747,13.25327,-0.5878899,-0.5025505,0.04100233,0.7359652,66.20429,-29.11313,-44.04885,1000.84
3.079229355,4.79021,18.03378,-3.523688,-0.5540406,0.06131175,0.7879979,66.20429,-29.11313,-44.04885,1000.842
3.099048138,3.259373,12.64815,-3.095551,-0.5802868,0.07634198,0.8176621,66.21804,-29.82366,-42.8325,1000.842
3.118865967,5.463778,9.925075,0.9411715,-0.591372,0.06217852,0.8239249,66.21804,-29.82366,-42.8325,1000.844
3.138684273,4.60651,6.173287,-0.7102148,-0.5875795,0.0782613,0.8215734,66.21804,-29.82366,-42.8325,1000.844
3.158502102,2.157171,4.781495,1.675121,-0.5862361,0.09334125,0.8124726,66.5696,-28.38274,-41.21198,1000.843
3.178320408,2.157171,5.084059,2.531395,-0.5815088,0.102069,0.7869095,66.5696,-28.38274,-41.21198,1000.843
3.198138237,0.8712681,5.507648,4.916731,-0.5979676,0.09861592,0.8038756,66.94167,-28.36312,-40.39,1000.847
3.217956066,-1.333137,3.450216,8.647641,-0.6166707,0.05079682,0.8027671,66.94167,-28.36312,-40.39,1000.847
3.237774849,1.973471,3.510728,6.201143,-0.6302399,0.03658326,0.7935975,66.94167,-28.36312,-40.39,1000.845
3.257592678,5.035144,2.058424,5.89533,-0.6420873,0.03933074,0.7468566,66.19637,-27.98876,-39.57033,1000.845
3.277410984,4.055408,4.842008,0.3907094,-0.7060844,0.07986051,0.7300386,66.19637,-27.98876,-39.57033,1000.848
3.299705982,4.116642,11.49841,-4.808099,-0.7191173,0.1258166,0.8346046,65.82583,-27.99274,-39.56894,1000.848
3.319523811,5.402544,8.775333,1.185821,-0.7240209,0.1306513,0.8307948,65.82583,-27.99274,-39.56894,1000.848
3.339342594,-1.884238,1.211246,5.039056,-0.7244005,0.1062814,0.8219835,65.82583,-27.99274,-39.56894,1000.848
3.359160423,3.994175,2.845089,-0.7713773,-0.6635736,0.08022244,0.7886946,65.43946,-26.8822,-38.82696,1000.848
3.378978729,5.708712,-2.237978,2.89837,-0.6183445,0.07801251,0.7845742,65.43946,-26.8822,-38.82696,1000.848
3.398796558,1.667303,-9.802066,-1.138352,-0.569154,0.09801637,0.6951122,65.13151,-26.8771,-38.38245,1000.845
3.418614388,-11.06926,-6.836944,1.980933,-0.5310072,0.0955755,0.6104222,65.13151,-26.8771,-38.38245,1000.845
3.438432694,-9.171021,6.052262,6.323468,-0.5392296,0.0877431,0.6109096,65.13151,-26.8771,-38.38245,1000.847
3.458250523,-11.68159,16.52096,0.4518718,-0.5619777,0.08868068,0.6448265,65.12646,-26.50319,-38.00891,1000.847
3.478069306,-23.49965,24.3271,5.467194,-0.6601815,0.1087297,0.6893907,65.12646,-26.50319,-38.00891,1000.846
3.497886658,-15.3556,22.33018,4.549757,-0.6930302,0.09893962,0.7387534,64.75099,-26.13206,-37.57065,1000.846
3.517705441,-10.02829,25.2953,4.916731,-0.6868398,0.1213662,0.736904,64.75099,-26.13206,-37.57065,1000.846
3.537523270,2.034704,27.71581,4.733244,-0.7107788,0.1509863,0.754081,64.75099,-26.13206,-37.57065,1000.846
3.559818268,8.280518,19.60711,5.161381,-0.6721946,0.134192,0.7740559,64.36219,-24.69189,-35.56734,1000.843
3.579636574,-7.946352,13.3743,2.470233,-0.6424757,0.1128728,0.753994,64.36219,-24.69189,-35.56734,1000.843
3.599454403,-18.17234,8.412257,4.733244,-0.6143242,0.09586857,0.7093462,65.10551,-24.66107,-34.36673,1000.845
3.619273186,-19.15207,4.115856,3.571157,-0.5956706,0.05208945,0.6877813,65.10551,-24.66107,-34.36673,1000.845
3.639091015,-15.04943,9.440973,0.08489711,-0.6213887,0.04613053,0.6951317,65.10551,-24.66107,-34.36673,1000.843
3.658909321,-9.599655,7.383542,1.491634,-0.6061505,0.02725834,0.7113624,64.36021,-24.2867,-33.54706,1000.843
3.678727150,4.667743,13.8584,-2.912063,-0.5925507,0.03220509,0.7142094,64.36021,-24.2867,-33.54706,1000.844
3.698544979,0.07523298,13.55584,-3.462525,-0.6482044,0.0845646,0.7389169,64.34953,-23.54489,-33.11667,1000.844
3.718363285,-4.272344,5.326109,-0.2209152,-0.6328914,0.1001107,0.6911277,64.34953,-23.54489,-33.11667,1000.847
3.738181114,-7.517717,1.332271,-2.850901,-0.6616621,0.09257399,0.6564938,64.34953,-23.54489,-33.11667,1000.847
3.757999897,-8.374986,6.536364,-2.422764,-0.6774085,0.07608549,0.7182781,64.33945,-22.79707,-32.36959,1000.843
3.777817726,0.07523298,8.775333,4.427432,-0.7203461,0.0267325,0.7390148,64.33945,-22.79707,-32.36959,1000.843
3.797636032,4.912677,7.504567,-14.96107,-0.7203749,0.03453383,0.7433991,64.33945,-22.79707,-32.36959,1000.845
3.817453861,11.77083,0.9691951,-2.606251,-0.7095255,0.09937143,0.7513956,64.33369,-22.43037,-32.37608,1000.845
3.839748859,20.46598,0.9086823,1.002334,-0.672838,0.1546098,0.7616147,64.33369,-22.43037,-32.37608,1000.844
3.859567642,-10.39569,-8.349761,9.320428,-0.5947888,0.03100791,0.6263681,63.96143,-22.0975,-30.73334,1000.844
3.879385471,-13.886,6.415338,13.66296,-0.7186062,0.02757345,0.6801228,63.96143,-22.0975,-30.73334,1000.844
3.899203777,11.40342,17.6707,-3.523688,-0.7233585,-0.007714977,0.7972584,63.96143,-22.0975,-30.73334,1000.844
3.919021606,8.341751,11.55892,-1.016027,-0.7402095,-0.006214569,0.8499703,63.59498,-22.41428,-31.10657,1000.843
3.938839912,16.05717,5.205084,1.185821,-0.7358755,0.04574161,0.780225,63.59498,-22.41428,-31.10657,1000.843
3.958657742,37.12148,7.080978,-8.294359,-0.7248588,0.08185535,0.7900038,63.22739,-22.38819,-29.52178,1000.845
3.978475571,31.1206,-4.476948,-23.218,-0.6243585,0.04950047,0.6855116,63.22739,-22.38819,-29.52178,1000.845
3.998294353,12.50563,-0.3620844,-1.444164,-0.6694073,0.06078285,0.6148624,63.22739,-22.38819,-29.52178,1000.846
4.018112183,27.75276,17.06557,-18.56965,-0.7566398,0.06788211,0.7177043,62.11252,-22.07893,-28.69964,1000.846
4.037930489,3.38184,5.265597,-14.28828,-0.7376993,0.09827152,0.7597497,62.11252,-22.07893,-28.69964,1000.844
4.057748318,-1.945472,1.392784,-9.701096,-0.6885076,0.05115695,0.702765,63.23129,-22.3485,-27.43168,1000.844
4.077566624,-7.272783,-0.5436226,-8.294359,-0.6410518,0.04001334,0.6237715,63.23129,-22.3485,-27.43168,1000.842
4.097384453,-6.905383,-0.4225971,-6.153673,-0.6356897,0.001917956,0.5646597,63.23129,-22.3485,-27.43168,1000.842
4.119679451,2.769506,14.52404,-17.28524,-0.6739761,0.01550299,0.6267219,63.20995,-20.93562,-27.0765,1000.841
4.139498234,12.87303,22.75377,-13.24852,-0.6856239,0.05408071,0.6974548,63.20995,-20.93562,-27.0765,1000.841
4.159316063,0.3201669,20.15172,-12.39224,-0.7060999,0.06469437,0.7005175,62.8352,-20.55727,-26.25822,1000.837
4.179134369,-1.455604,13.97943,-12.39224,-0.7235194,0.05293398,0.70731,62.8352,-20.55727,-26.25822,1000.837
4.198952198,6.321046,7.504567,-10.1904,-0.7263321,0.04321671,0.7222385,62.8352,-20.55727,-26.25822,1000.84
4.218770504,8.892852,2.845089,-12.94271,-0.7324567,0.06889039,0.6799282,62.46114,-20.1717,-25.05993,1000.84
4.238588333,8.219284,-0.4225971,-11.90294,-0.6823685,0.07599118,0.6898267,62.46114,-20.1717,-25.05993,1000.838
4.258407116,15.26113,-2.237978,-7.132273,-0.7147914,0.112747,0.6554401,63.56783,-19.78464,-24.62722,1000.838
4.278224945,8.892852,-5.203101,-13.98247,-0.6173047,0.08260925,0.6692321,63.56783,-19.78464,-24.62722,1000.84
4.298042774,-4.884678,-1.572338,-2.973226,-0.6177914,0.05914061,0.6304999,63.56783,-19.78464,-24.62722,1000.84
4.317861080,-15.723,-0.846186,2.103258,-0.6997781,0.06423783,0.6995152,62.44471,-19.0632,-24.63601,1000.844
4.337678909,-8.313752,-1.693364,7.179742,-0.6733157,0.03616258,0.7117758,62.44471,-19.0632,-24.63601,1000.844
4.357497215,-3.598775,0.3035553,5.039056,-0.6846165,0.04433319,0.6916071,61.76539,-19.0705,-24.63347,1000.843
4.379792690,10.85232,5.810211,2.714883,-0.6959935,0.06320443,0.666667,61.76539,-19.0705,-24.63347,1000.843
4.399610996,13.97523,6.717902,3.265345,-0.7278315,0.0466024,0.7159892,61.76539,-19.0705,-24.63347,1000.843
4.419428825,4.177875,3.510728,0.5741968,-0.7305534,0.06495937,0.6610731,60.28394,-19.07922,-24.2479,1000.843
4.439247131,3.871708,8.412257,0.02373465,-0.8426782,0.1350748,0.6992132,60.28394,-19.07922,-24.2479,1000.842
4.459064961,-3.782475,7.988668,3.265345,-0.7647669,0.07932764,0.6352696,60.29627,-19.80419,-23.79158,1000.842
4.478883743,-4.272344,10.46969,4.243944,-0.7759719,0.05921211,0.5966133,60.29627,-19.80419,-23.79158,1000.844
4.498701573,-11.80406,11.61943,2.89837,-0.7488097,0.05196833,0.5631226,60.29627,-19.80419,-23.79158,1000.844
4.518519402,-3.476308,17.73121,1.002334,-0.7727106,0.0267181,0.6437311,60.67327,-20.15968,-23.40648,1000.846
4.538337708,2.585805,20.93839,-2.850901,-0.780772,0.08318686,0.6546841,60.67327,-20.15968,-23.40648,1000.846
4.558155537,3.443074,18.82044,-1.321839,-0.7609258,0.1267329,0.6987228,59.20415,-20.89337,-22.56459,1000.849
4.577973843,0.8100346,10.28815,2.714883,-0.7195523,0.09177349,0.6510143,59.20415,-20.89337,-22.56459,1000.849
4.597791672,3.136906,6.717902,6.690443,-0.6937648,0.1316579,0.5772282,59.20415,-20.89337,-22.56459,1000.847
4.617610455,-10.94679,12.58763,6.751605,-0.6926327,0.08582293,0.5485086,59.19994,-20.51103,-21.7477,1000.847
4.637428284,-18.84591,14.22148,9.932053,-0.7285041,-0.02686415,0.5404033,59.19994,-20.51103,-21.7477,1000.851
4.659723759,-7.762651,25.11376,-0.09859026,-0.8026839,-0.01486403,0.6282358,58.16312,-21.24007,-20.90743,1000.851
4.679541588,0.5038673,17.6707,3.204182,-0.8405873,0.03922615,0.7267048,58.16312,-21.24007,-20.90743,1000.853
4.699360371,-14.0697,6.717902,3.38767,-0.7747844,0.0623039,0.6646803,58.16312,-21.24007,-20.90743,1000.853
4.719177723,-3.782475,13.13225,0.8800091,-0.7482582,0.06179488,0.5984055,57.42275,-21.24082,-20.52464,1000.852
4.738995552,-2.374106,8.956872,4.243944,-0.7037836,-0.006750794,0.5490596,57.42275,-21.24082,-20.52464,1000.852
4.758814335,9.015319,12.28507,-4.624612,-0.7170998,-0.01281769,0.4849051,57.06525,-21.96256,-19.68692,1000.854
4.778632164,13.66906,26.14248,-10.55737,-0.7313655,0.03636955,0.5185406,57.06525,-21.96256,-19.68692,1000.854
4.798450470,24.50739,27.47376,-7.438085,-0.7888522,0.08537731,0.5707535,57.06525,-21.96256,-19.68692,1000.857
4.818268299,7.362016,7.383542,-2.606251,-0.7660823,0.07160078,0.6646804,56.69119,-21.57699,-18.48862,1000.857
4.838086605,-8.130052,1.453297,-6.459486,-0.8311303,0.01791843,0.7550216,56.69119,-21.57699,-18.48862,1000.861
4.857904434,10.72986,10.22764,-7.254598,-0.7736794,-0.03634862,0.5410846,56.33344,-22.2304,-17.27197,1000.861
4.877723217,20.71091,25.96094,-3.340201,-0.7864974,0.05488104,0.6405724,56.33344,-22.2304,-17.27197,1000.859
4.897541046,28.7325,25.47684,-30.67982,-0.8031297,0.09774677,0.6828766,56.33344,-22.2304,-17.27197,1000.859
4.919836521,16.73074,7.202003,-19.97639,-0.8154916,0.0770057,0.5891982,55.6329,-20.82361,-16.85091,1000.863
4.939654350,1.299902,3.99483,4.243944,-0.7982839,-0.0135021,0.7797797,55.6329,-20.82361,-16.85091,1000.863
4.959473133,-0.2309344,-5.142588,10.36019,-0.7491214,0.002081926,0.6748495,55.25815,-20.44526,-16.03263,1000.867
4.979290962,-4.517277,18.09429,10.23787,-0.7842066,0.2144529,0.5767006,55.25815,-20.44526,-16.03263,1000.867
4.999109268,-22.09128,19.90967,20.08502,-0.7990031,0.1387996,0.5344,55.25815,-20.44526,-16.03263,1000.865
5.018927097,-46.52344,-0.4225971,18.92293,-0.7488474,0.1273715,0.5335841,53.78246,-20.82068,-15.64058,1000.865
5.038744926,-65.13841,-18.87897,33.78541,-0.742848,0.06200968,0.473846,53.78246,-20.82068,-15.64058,1000.869
5.058563232,-72.05779,-53.18967,18.9841,-0.7817075,0.08887356,0.389728,53.05863,-21.92873,-15.61836,1000.869
5.078381062,-17.68247,-140.328,-19.67058,-0.4093488,0.2277083,0.4207423,53.05863,-21.92873,-15.61836,1000.872
5.098199844,-90.85647,-184.5022,38.8619,-0.7066686,0.1876275,0.5935147,53.05863,-21.92873,-15.61836,1000.872
5.118017674,9.137786,-122.1742,0.8800091,-0.7287936,0.119303,0.9813582,51.2498,-21.70517,-22.14177,1000.872
5.137835979,7.055848,-54.46044,-16.73478,-0.5585824,-0.04290101,0.9960045,51.2498,-21.70517,-22.14177,1000.872
5.157653809,-6.966616,-45.98866,6.996255,-0.5547667,-0.007448066,0.7471037,51.2498,-21.70517,-22.14177,1000.876
5.177472115,12.68933,-79.69424,4.916731,-0.7423858,0.1245705,0.5697352,46.5422,-21.47433,-26.62753,1000.876
5.199767590,21.75188,-93.49113,-17.22408,-0.8316407,0.1360046,0.6571645,46.5422,-21.47433,-26.62753,1000.872
5.219585896,18.32281,-83.14346,-23.09567,-0.6596159,-0.04612613,0.8855249,44.67423,-20.79934,-28.66031,1000.872
5.239403725,12.87303,-61.60094,-9.945745,-0.5948061,-0.07454336,0.8753707,44.67423,-20.79934,-28.66031,1000.875
5.259222031,13.5466,-66.1394,-10.43505,-0.5990788,0.002060216,0.7469125,44.67423,-20.79934,-28.66031,1000.875
5.279039860,20.58845,-71.10143,-9.150634,-0.5536506,-0.0285058,0.8971025,40.63834,-19.78811,-31.07149,1000.875
5.298858643,9.321486,-43.99174,4.733244,-0.5779226,-0.06052041,1.000364,40.63834,-19.78811,-31.07149,1000.875
5.318676472,2.585805,-25.95896,1.675121,-0.6047506,-0.01950679,0.9022551,38.47451,-19.8354,-32.33012,1000.877
5.338494778,8.892852,-19.12102,-9.150634,-0.5263938,0.04512576,0.8818857,38.47451,-19.8354,-32.33012,1000.877
5.358312607,16.97567,-33.09946,-14.83874,-0.4214224,0.0568593,0.87751,38.47451,-19.8354,-32.33012,1000.875
5.378130913,13.42413,-24.86973,4.427432,-0.3700048,-0.02636513,0.9858863,36.31303,-19.85863,-32.32202,1000.875
5.397948742,-1.578071,-32.01023,14.0911,-0.4584528,0.01540933,0.9320424,36.31303,-19.85863,-32.32202,1000.875
5.417767525,8.219284,-25.83793,2.40907,-0.5055946,0.0524863,0.8605718,35.57196,-19.8666,-32.31924,1000.878
5.437585354,16.73074,-32.55484,-10.55737,-0.4619245,0.08490726,0.8841505,35.57196,-19.8666,-32.31924,1000.878
5.457403660,14.71003,-41.63174,-15.14455,-0.3922292,0.03683234,0.9906766,35.57196,-19.8666,-32.31924,1000.882
5.479698658,0.8712681,-22.50973,-1.566489,-0.3088388,0.01298212,1.017128,33.40332,-19.53757,-33.07766,1000.88
5.499516487,-2.006705,-17.66872,2.225583,-0.4662382,0.1481381,0.8642264,33.40332,-19.53757,-33.07766,1000.88
5.519334793,12.44439,-31.58664,-15.8785,-0.4809942,0.1503882,0.8194296,32.64513,-18.51499,-33.5366,1000.878
5.539152622,15.9347,-44.89943,-18.63081,-0.4239564,0.03854144,0.9599677,32.64513,-18.51499,-33.5366,1000.878
5.558971405,3.810475,-39.57431,-10.80202,-0.4118883,0.005152874,1.02103,32.64513,-18.51499,-33.5366,1000.881
5.578789234,-10.33446,-33.64407,-4.318799,-0.3779517,0.009652786,0.9967337,31.16873,-18.89761,-33.52457,1000.881
5.598607540,-10.27322,-42.29739,-9.272959,-0.3601795,0.08306193,0.9096487,31.16873,-18.89761,-33.52457,1000.883
5.618425369,0.7488011,-43.87072,-7.132273,-0.3986632,0.09748372,0.9152429,29.74751,-18.9213,-33.9626,1000.883
5.638243675,1.667303,-40.30047,-5.113912,-0.38922,-0.008696312,1.085031,29.74751,-18.9213,-33.9626,1000.883
5.658061505,-13.08996,-37.03278,-10.92435,-0.3776235,-0.00868981,1.062765,29.74751,-18.9213,-33.9626,1000.881
5.677880287,-8.80362,-17.1241,6.13998,-0.3930129,0.1825888,0.8582103,28.25315,-18.21106,-34.35002,1000.881
5.697698116,-2.006705,-31.82869,-1.566489,-0.3886482,0.1267274,0.9052021,28.25315,-18.21106,-34.35002,1000.884
5.717516422,1.299902,-34.2492,-11.35248,-0.340186,0.06986035,1.046069,27.1845,-17.13789,-35.1889,1000.884
5.739811421,-6.660449,-21.96512,-1.199515,-0.2899539,0.05066486,1.054867,27.1845,-17.13789,-35.1889,1000.882
5.759630203,-7.762651,-17.18462,10.36019,-0.2617205,0.01611968,1.005302,27.1845,-17.13789,-35.1889,1000.884
5.779448032,-7.517717,-18.33436,8.953453,-0.282501,0.05731467,0.969426,25.6966,-16.78713,-35.18983,1000.884
5.799266338,-5.068378,-19.72615,8.402991,-0.2339235,0.1187796,0.9110718,25.6966,-16.78713,-35.18983,1000.887
5.819084167,4.116642,-19.18154,12.80669,-0.3194881,0.09914771,1.031144,25.33181,-17.15781,-35.18196,1000.887
5.838902473,-2.006705,-9.983604,17.76085,-0.3368349,0.01249803,1.078579,25.33181,-17.15781,-35.18196,1000.887
5.858720303,-7.272783,-6.836944,21.30827,-0.3857022,0.01941194,1.021926,25.33181,-17.15781,-35.18196,1000.885
5.878539085,-5.925647,-20.87589,5.344869,-0.3596285,0.09093259,0.9415429,24.27549,-16.80961,-35.56452,1000.885
5.898356914,0.9325016,-31.4051,-2.973226,-0.2523933,0.0657496,0.9697873,24.27549,-16.80961,-35.56452,1000.887
5.918175220,-3.904943,-32.31279,3.509995,-0.1596417,0.006690975,1.116193,22.79334,-16.82555,-35.55897,1000.887
5.937993050,-18.60098,-24.44614,11.52228,-0.2478938,0.0261173,1.082989,22.79334,-16.82555,-35.55897,1000.886
5.957811356,-20.07058,-21.96512,2.776045,-0.3002236,0.0932471,0.9658462,22.79334,-16.82555,-35.55897,1000.886
5.977629185,-13.08996,-23.65948,-4.379962,-0.1844655,0.07527737,0.9380903,22.05227,-16.83351,-35.55619,1000.884
5.997447968,-12.53886,-19.30256,3.448832,-0.1286537,0.02058635,0.9558457,22.05227,-16.83351,-35.55619,1000.884
6.019742966,-10.08952,-10.10463,13.96877,-0.2536049,0.0543297,0.8809224,22.04747,-16.52793,-35.56159,1000.882
6.039561272,0.4426338,-13.00924,4.610919,-0.2979504,0.06185864,0.8676888,22.04747,-16.52793,-35.56159,1000.883
6.059379101,-2.863973,-17.60821,-4.502287,-0.2328518,0.0497806,0.9691156,22.04747,-16.52793,-35.56159,1000.883
6.079197884,-9.293488,-21.60204,-14.71642,-0.1656861,0.03843237,0.9648282,20.25572,-16.5556,-35.99824,1000.883
6.099015713,-5.007145,-22.38871,-16.49013,-0.1575081,0.07214326,0.9939173,20.25572,-16.5556,-35.99824,1000.881
6.118834019,-3.476308,-24.68819,-17.71338,-0.1250322,0.03591423,1.044717,20.62626,-16.55162,-35.99963,1000.881
6.138651848,-5.252079,-16.33744,-5.052749,-0.1242175,-0.003936061,1.0754,20.62626,-16.55162,-35.99963,1000.885
6.158470154,-6.109347,-1.3908,2.65372,-0.1795526,0.02484033,1.012137,20.62626,-16.55162,-35.99963,1000.885
6.178287983,-0.1697009,2.663551,0.6965217,-0.2135484,0.04928537,0.9241183,19.87368,-15.82619,-36.00981,1000.889
6.198106766,6.872148,-3.871821,-3.58485,-0.06017499,0.003274849,0.8989086,19.87368,-15.82619,-36.00981,1000.889
6.217924595,8.035583,-1.14875,11.88925,-0.05009104,-0.0008192617,0.996816,19.50314,-15.83018,-36.00842,1000.888
6.237742901,8.402985,0.1825299,15.25319,-0.143298,0.07082578,1.022793,19.50314,-15.83018,-36.00842,1000.888
6.257560730,6.627214,-2.540542,13.47948,-0.1725234,0.01427806,1.059347,19.50314,-15.83018,-36.00842,1000.89
6.277379036,0.993735,0.364068,9.932053,-0.342858,-0.04158565,1.077368,19.51618,-16.54793,-35.17209,1000.89
6.299674511,-5.374546,3.026627,-10.37388,-0.2865843,-0.04237183,1.034098,19.51618,-16.54793,-35.17209,1000.89
6.319492817,-4.945911,-6.110791,-22.60637,-0.1169869,0.01037681,0.9373876,19.15197,-16.84186,-34.34193,1000.89
6.339310646,-2.006705,-8.228736,-14.77758,-0.03500469,0.05905222,0.9555306,19.15197,-16.84186,-34.34193,1000.892
6.359128952,4.60651,-7.805147,-4.441124,-0.05878039,0.04024684,1.083474,19.15197,-16.84186,-34.34193,1000.892
6.378946781,1.422369,1.150733,7.546717,-0.155725,-0.0006033028,1.11179,19.89233,-16.84111,-34.72472,1000.889
6.398765564,-2.61904,1.271759,3.754644,-0.1961375,-0.01502324,1.074771,19.89233,-16.84111,-34.72472,1000.889
6.418582916,-1.884238,-1.027724,0.8188466,-0.1506793,-0.002748299,1.019077,19.51771,-16.5323,-34.34872,1000.891
6.438401699,2.953206,-7.260533,-4.991587,-0.1518464,0.0005297577,0.9674539,19.51771,-16.5323,-34.34872,1000.891
6.458219528,-0.4146348,-2.964131,0.8188466,-0.06466712,-0.06702644,1.034687,19.51771,-16.5323,-34.34872,1000.894
6.478037834,-7.089083,3.752779,14.70272,-0.1401428,-0.0003649378,0.975108,19.51854,-16.52388,-33.90536,1000.894
6.497856617,-2.925207,1.271759,10.42135,-0.1882737,0.03376202,0.8939741,19.51854,-16.52388,-33.90536,1000.89
6.517673969,2.708272,-5.021563,2.470233,-0.1705587,-0.03947394,0.9765217,19.51854,-16.52388,-33.90536,1000.89
6.537492752,2.647039,-3.448232,2.103258,-0.2236221,-0.03636442,0.9666919,19.15421,-16.819,-33.13854,1000.891
6.559787750,2.891973,-8.591812,-5.970186,-0.114255,-0.08633649,1.008795,19.15421,-16.819,-33.13854,1000.891
6.579606056,-2.190405,-8.954888,-0.6490523,-0.1433063,-0.04518664,0.9719991,19.53132,-17.1733,-32.6901,1000.892
6.599423885,-0.9045025,-7.502584,-2.239276,-0.1693236,-0.02593797,0.9331435,19.53132,-17.1733,-32.6901,1000.892
6.619242668,0.3201669,-6.473867,-5.175074,-0.1663487,-0.02343786,0.9538952,19.53132,-17.1733,-32.6901,1000.888
6.639060497,-1.39437,-5.62669,-11.29132,-0.1132482,-0.0314096,0.9665958,18.79095,-17.17405,-32.3073,1000.888
6.658878803,-1.578071,-4.900537,-6.765298,-0.01282591,-0.05614206,0.9943971,18.79095,-17.17405,-32.3073,1000.891
6.678696633,-3.476308,-12.04104,1.491634,-0.0192824,-0.0808581,1.057054,18.78449,-16.81457,-32.6938,1000.891
6.698514939,-7.150316,-4.537461,10.60484,-0.126493,-0.05125766,1.043312,18.78449,-16.81457,-32.6938,1000.891
6.718332768,-8.252519,-0.3620844,9.503916,-0.2183258,0.05127704,0.9526327,18.78449,-16.81457,-32.6938,1000.891
6.738151550,3.075673,-9.075913,-6.82646,-0.09782202,0.02186055,1.014088,18.79753,-17.53232,-31.85747,1000.89
6.757969379,3.320607,-4.476948,7.974854,0.01014237,0.01019697,0.9931641,18.79753,-17.53232,-31.85747,1000.89
6.777787685,5.647479,-3.266694,21.79757,-0.1070885,0.02032735,1.003994,18.4837,-17.16173,-31.48277,1000.892
6.797605514,-0.7208021,0.364068,15.0697,-0.3150982,0.05273677,0.9584794,18.4837,-17.16173,-31.48277,1000.892
6.817423820,2.279638,-1.632851,-5.175074,-0.2962495,0.08599384,0.9783369,18.4837,-17.16173,-31.48277,1000.89
6.839719295,2.891973,1.453297,-9.823421,-0.07994004,0.04582821,1.020388,18.42348,-17.14676,-30.65917,1000.89
6.859537601,-5.129612,-1.693364,-6.092511,0.1251981,-0.02811731,1.011162,18.42348,-17.14676,-30.65917,1000.891
6.879355431,-13.3349,-2.782593,12.68436,0.06321304,-0.01378506,0.8281572,17.74416,-17.15406,-30.65663,1000.891
6.899173737,-6.905383,-8.107711,7.11858,-0.1370844,0.08817901,0.734207,17.74416,-17.15406,-30.65663,1000.889
6.918991566,9.688888,-15.97436,-6.092511,-0.1512618,0.1455963,0.949854,17.74416,-17.15406,-30.65663,1000.889
6.938810348,14.0977,-15.36924,2.470233,-0.202169,0.1031139,1.212009,18.12691,-17.87625,-30.26504,1000.89
6.958628654,4.667743,-2.601054,14.33575,-0.227353,-0.03900242,1.294437,18.12691,-17.87625,-30.26504,1000.89
6.978446484,-9.232254,9.743537,25.40615,-0.3216667,-0.08283202,1.091038,17.39816,-18.60918,-29.80595,1000.888
6.998264790,-9.232254,4.902521,-1.688814,-0.2586713,-0.006604564,0.8637435,17.39816,-18.60918,-29.80595,1000.888
7.018082619,-0.9045025,-9.499503,-20.09871,-0.01947535,0.03270994,0.9022157,17.39816,-18.60918,-29.80595,1000.889
7.037901402,4.667743,-11.8595,-6.642973,0.03843157,0.0584549,0.9536775,17.01107,-17.50587,-29.44398,1000.889
7.057719231,3.320607,-6.897457,13.23483,-0.04724986,-0.02397985,1.078737,17.01107,-17.50587,-29.44398,1000.891
7.077537537,-2.741507,0.9086823,15.98714,-0.2449274,-0.02076468,1.019983,17.00462,-17.14639,-29.83048,1000.891
7.099832535,-3.231374,-4.113872,-8.110872,-0.1380923,-0.02032346,0.9730636,17.00462,-17.14639,-29.83048,1000.888
7.119651318,-1.761771,-8.894376,-12.08643,0.04619238,0.002605315,0.9982373,17.00462,-17.14639,-29.83048,1000.888
7.139469147,-3.660008,-13.91693,-1.321839,0.09736412,0.004901654,1.032722,16.63479,-17.14315,-29.44907,1000.886
7.159287453,-4.884678,-9.43899,17.33271,-0.07308237,0.002388892,0.9631708,16.63479,-17.14315,-29.44907,1000.886
7.179105759,-8.742387,-1.874902,22.89849,-0.2539348,-0.01463582,0.9558678,17.38244,-17.49346,-29.00201,1000.887
7.198923588,-9.844589,3.99483,9.198103,-0.2774422,0.04784589,0.86847,17.38244,-17.49346,-29.00201,1000.887
7.218742371,-3.476308,0.7271442,-0.09859026,-0.1085139,0.04150912,0.906127,17.38244,-17.49346,-29.00201,1000.887
7.238560200,2.279638,-3.266694,1.552796,-0.06955234,0.0441943,0.9262,15.52471,-17.13946,-28.62154,1000.887
7.258378506,7.668183,-4.718999,3.020695,-0.1694219,0.04487818,1.020872,15.52471,-17.13946,-28.62154,1000.887
7.278196335,5.708712,0.4850934,-0.3432401,-0.2157763,-0.03886621,1.123989,15.88553,-16.45479,-28.19145,1000.887
7.298014641,-2.98644,6.2338,-5.603211,-0.2163902,0.02229293,1.044665,15.88553,-16.45479,-28.19145,1000.89
7.317832470,-3.047674,-0.9672114,-15.57269,-0.1325378,0.05674744,1.017353,15.88553,-16.45479,-28.19145,1000.89
7.337651253,-1.271903,-2.480029,-15.51153,-0.06402767,0.01340433,1.069367,16.26731,-17.11586,-27.80094,1000.886
7.357469082,-11.68159,5.749699,-1.383002,0.0390101,-0.03269453,1.115869,16.26731,-17.11586,-27.80094,1000.886
7.379764557,-22.70362,16.15788,25.89545,-0.06687477,0.04291603,0.9961671,16.26885,-17.10023,-26.97757,1000.889
7.399582386,-12.11023,15.43173,14.70272,-0.3965309,0.2196442,0.8859326,16.26885,-17.10023,-26.97757,1000.889
7.419401169,7.668183,-3.38772,-31.90307,-0.2246878,0.09863653,1.019038,16.26885,-17.10023,-26.97757,1000.89
7.439219475,4.851443,1.816373,-23.52381,-0.06906679,-0.01622264,1.111718,15.88694,-16.44035,-27.43142,1000.89
7.459037304,-4.333577,5.447135,-8.905984,0.09428527,-0.04768155,1.041639,15.88694,-16.44035,-27.43142,1000.888
7.478855610,-3.904943,3.631754,5.344869,-0.09998169,0.05410666,0.8617386,16.6238,-16.05005,-26.6173,1000.888
7.498673439,3.38184,0.2430426,-0.1597527,-0.1921612,-0.05195232,0.8964513,16.6238,-16.05005,-26.6173,1000.89
7.518492222,3.504307,4.055343,-7.499248,-0.2364882,-0.04832111,0.8822322,16.6238,-16.05005,-26.6173,1000.89
7.538310051,5.647479,3.08714,-17.71338,-0.1048332,-0.03551748,0.8603395,17.3549,-15.29306,-25.80967,1000.888
7.558128357,10.23999,-3.871821,-16.91827,0.03525184,-0.0559421,0.9738625,17.3549,-15.29306,-25.80967,1000.888
7.577946186,7.913117,-11.43591,-8.294359,-0.007365796,-0.09040026,1.11293,16.99434,-16.04607,-26.61869,1000.889
7.597764492,0.2589334,-7.986685,2.286746,-0.1023951,-0.09117427,1.198398,16.99434,-16.04607,-26.61869,1000.889
7.617583275,-10.15076,1.634835,12.43971,-0.204856,-0.09242878,1.100486,16.99434,-16.04607,-26.61869,1000.893
7.637401104,-12.72256,6.052262,4.488594,-0.1948539,-0.04691772,0.9708243,16.61887,-15.67494,-26.18043,1000.893
7.659696579,-4.517277,-1.753877,-8.905984,-0.06729531,-0.01325975,0.9229965,16.61887,-15.67494,-26.18043,1000.891
7.679514408,1.544836,-3.085156,-2.361601,0.007769669,-0.03034987,0.9437357,16.97369,-14.55523,-25.37788,1000.891
7.699333191,-0.9045025,-0.6646479,10.1767,-0.06925425,-0.0515554,0.9985911,16.97369,-14.55523,-25.37788,1000.894
7.719151020,-2.496573,0.364068,4.243944,-0.1695534,-0.04971191,0.9692234,16.97369,-14.55523,-25.37788,1000.894
7.738969326,-5.741947,0.7271442,-6.337161,-0.133858,-0.01746949,0.9358889,17.35069,-14.91073,-24.99277,1000.892
7.758787155,-4.02741,0.5456061,-7.499248,-0.0747401,0.01494998,0.9255955,17.35069,-14.91073,-24.99277,1000.892
7.778605461,0.07523298,-2.964131,-7.07111,-0.00703427,0.01635336,0.9580542,17.35069,-14.91073,-24.99277,1000.893
7.798424244,-0.965736,-0.3015717,4.488594,-0.003295571,-0.02396642,0.9896834,16.96865,-14.18132,-25.00434,1000.893
7.818242073,-1.823005,3.147652,8.953453,-0.08999927,-0.01815706,0.9602619,16.96865,-14.18132,-25.00434,1000.889
7.838060379,0.1976999,2.482013,3.509995,-0.1290762,-0.02141354,0.9054338,16.96865,-14.18132,-25.00434,1000.889
7.857878208,0.3201669,0.1825299,-7.438085,-0.07071371,-0.006932116,0.9293225,16.96865,-14.18132,-25.00434,1000.892
7.877696514,5.463778,-7.684122,-15.81734,0.04644628,0.02737419,0.9708504,16.96865,-14.18132,-25.00434,1000.892
7.897514343,9.872588,-7.139507,-6.031348,0.1024902,0.00120368,1.103628,16.95786,-13.44072,-24.63729,1000.896
7.917333126,-0.04723396,-1.814389,17.88317,0.05067118,-0.1017166,1.141515,16.95786,-13.44072,-24.63729,1000.896
7.939628124,-7.02785,1.75586,19.84037,-0.1209782,-0.0367908,0.9728854,16.96514,-13.79177,-23.80744,1000.894
7.959446430,-2.98644,-7.744634,5.773006,-0.1199156,-0.01213407,0.8972257,16.96514,-13.79177,-23.80744,1000.894
7.979265213,1.177435,-12.3436,-4.318799,-0.1034897,-0.0161814,1.000891,16.96514,-13.79177,-23.80744,1000.896
7.999082565,1.851004,-9.620528,0.3295469,-0.05497668,-0.03669187,1.073887,16.95939,-13.42508,-23.81392,1000.896
8.018901348,-5.925647,4.357906,17.27155,-0.05888781,-0.05481493,1.038097,16.95939,-13.42508,-23.81392,1000.899
8.038719177,-12.11023,7.444054,20.51316,-0.1526032,-0.07069632,0.9135149,17.31938,-12.74882,-23.82719,1000.899
8.058537483,-11.68159,5.144571,1.980933,-0.1783709,0.05510362,0.8380389,17.31938,-12.74882,-23.82719,1000.893
8.078355312,5.157611,-9.075913,-10.49621,0.04009687,0.08026408,0.9074433,17.31938,-12.74882,-23.82719,1000.893
8.098173618,16.73074,-13.73539,4.366269,-0.04541942,0.03950148,1.149524,17.31446,-12.37371,-23.39031,1000.894
8.117992401,6.38228,0.4850934,30.42148,-0.1141702,-0.1698156,1.324037,17.31446,-12.37371,-23.39031,1000.894
8.137810230,-12.4164,16.46045,35.06982,-0.3938452,-0.09669211,1.152662,17.30366,-11.6331,-23.02325,1000.894
8.157628536,-13.45736,6.173287,-1.811139,-0.2420982,0.005241021,0.8941223,17.30366,-11.6331,-23.02325,1000.894
8.177446365,0.6875677,-7.744634,-13.06503,-0.0927879,0.05162776,0.827899,17.30366,-11.6331,-23.02325,1000.891
8.199742317,12.75056,-9.681041,-2.667413,-0.20666,0.04595549,0.9419226,17.31024,-11.99137,-22.57342,1000.891
8.219560146,15.62853,1.150733,-1.07719,-0.2693197,0.02060938,1.066184,17.31024,-11.99137,-22.57342,1000.893
8.239378452,15.0162,2.118936,-11.71946,-0.09760397,-0.05488035,1.094299,17.67503,-11.6207,-22.58129,1000.893
8.259196758,7.239549,6.959952,-0.5267274,0.01807019,-0.1356295,1.081185,17.67503,-11.6207,-22.58129,1000.894
8.279014587,1.054968,5.870724,5.100219,-0.0125862,-0.1048579,0.984492,17.67503,-11.6207,-22.58129,1000.894
8.298833370,0.8712681,-0.3620844,1.736283,0.02128932,-0.08915759,0.9607361,17.67573,-11.61348,-22.20127,1000.895
8.318651199,-3.476308,0.9086823,8.280666,-0.05722266,-0.04180555,0.9773374,17.67573,-11.61348,-22.20127,1000.895
8.338469505,-3.415075,4.115856,7.60788,-0.1214435,-0.02406766,0.9999833,18.41188,-11.2304,-21.76717,1000.891
8.358287335,-4.272344,5.568161,3.815807,-0.08098585,-0.02477051,1.02534,18.41188,-11.2304,-21.76717,1000.891
8.378105640,-3.721242,5.931237,2.470233,-0.0776449,-0.02137605,1.012307,18.41188,-11.2304,-21.76717,1000.893
8.397924423,-6.109347,6.657389,0.8800091,-0.04115535,-0.01531021,1.026136,18.3963,-10.18421,-21.40552,1000.893
8.417742252,-6.905383,2.784576,-4.318799,-0.09539249,0.06650279,0.9443152,18.3963,-10.18421,-21.40552,1000.896
8.437560558,-1.21067,-6.897457,-13.37084,-0.07826858,0.04270932,0.9349283,18.71633,-10.84595,-21.01478,1000.896
8.457378388,0.3814003,-1.693364,-9.884583,-0.03738033,0.04050252,0.9414507,18.71633,-10.84595,-21.01478,1000.897
8.479674339,3.320607,0.0615045,-6.948785,0.0001532019,0.0692563,0.8709219,18.71633,-10.84595,-21.01478,1000.897
8.499492169,11.09726,-1.753877,-4.135312,0.006325006,0.01721722,0.8836532,18.39125,-9.810301,-21.03198,1000.901
8.519310475,12.38316,-2.782593,-3.217876,-0.0274686,-0.07825454,0.9427171,18.39125,-9.810301,-21.03198,1000.901
8.539128780,8.280518,-1.814389,0.207222,-0.08112681,-0.132078,0.9499746,18.70578,-10.17368,-21.02666,1000.897
8.558946610,2.524572,0.7876569,-6.58181,-0.1202,-0.07275625,0.9992436,18.70578,-10.17368,-21.02666,1000.897
8.578765392,2.034704,-2.964131,-21.87243,-0.1285565,-0.01649842,0.9233152,18.70578,-10.17368,-21.02666,1000.9
8.598583222,1.912237,-8.168223,-21.7501,0.01179167,-0.05775651,1.079688,19.07057,-9.802999,-21.03452,1000.9
8.618401528,0.0139995,-5.445152,-9.211796,-0.0318929,-0.06965515,1.085658,19.07057,-9.802999,-21.03452,1000.9
8.638219834,-8.681153,-2.359004,0.4518718,-0.1704699,-0.09870782,1.047653,19.0714,-9.794579,-20.59117,1000.9
8.658037663,-11.55913,-0.4831098,-9.945745,-0.2741187,-0.01638024,0.8816369,19.0714,-9.794579,-20.59117,1000.898
8.677856445,-6.721682,-3.448232,-26.45961,-0.1863246,0.02839717,0.8862131,19.0714,-9.794579,-20.59117,1000.898
8.697674275,-0.2309344,-3.690283,-24.31892,-0.03580987,0.03912312,0.9718437,19.43044,-9.057205,-20.60552,1000.901
8.717492581,-2.312872,-2.359004,-5.847861,0.05157925,-0.03268299,1.093597,19.43044,-9.057205,-20.60552,1000.901
8.739787579,-6.109347,6.838927,16.84341,-0.1751078,-0.003443092,0.9854199,19.41319,-7.95712,-20.62496,1000.9
8.759606361,-1.39437,0.6061188,1.736283,-0.2568846,-0.01956235,0.9384823,19.41319,-7.95712,-20.62496,1000.9
8.779424667,1.116202,-5.989766,-13.86014,-0.1801965,-0.02025102,0.8917218,19.41319,-7.95712,-20.62496,1000.898
8.799242496,6.38228,-8.168223,-17.71338,0.003012054,0.02264249,0.9194173,19.03185,-7.220495,-20.25651,1000.898
8.819060802,12.38316,-7.078995,-2.178114,0.1009688,0.03160538,0.9927769,19.03185,-7.220495,-20.25651,1000.899
8.838878632,16.42457,-3.690283,18.06666,0.03729249,-0.005021204,1.085612,19.77868,-7.579225,-20.25281,1000.899
8.858697414,14.0977,-3.085156,26.6294,-0.1134021,-0.02433035,1.075718,19.77868,-7.579225,-20.25281,1000.9
8.878515720,9.199019,-4.537461,14.21342,-0.2196567,-0.05158974,1.106086,19.77868,-7.579225,-20.25281,1000.9
8.898333549,4.79021,-12.76719,-6.58181,-0.1287644,-0.04284488,1.104185,19.03338,-7.204859,-19.43314,1000.892
8.918151855,0.8100346,-19,-11.90294,-0.01167909,-0.0325467,1.08429,19.03338,-7.204859,-19.43314,1000.892
8.937969685,-3.476308,-13.67488,-1.016027,0.01127647,-0.05142432,1.081654,18.37132,-8.312246,-19.41116,1000.89
8.957788467,-5.558246,-10.83078,-0.9548646,-0.1734659,0.05990349,1.000699,18.37132,-8.312246,-19.41116,1000.89
8.977606773,0.2589334,-13.85642,-14.8999,-0.09575725,0.08125332,1.004245,18.37132,-8.312246,-19.41116,1000.887
8.997424603,1.728537,-8.591812,-10.61853,0.03124965,0.08587475,1.032052,18.66859,-7.575537,-19.42527,1000.887
9.019720554,7.117082,-10.04412,-5.603211,0.1824923,0.02344503,1.068069,18.66859,-7.575537,-19.42527,1000.889
9.039538383,5.035144,-10.46771,10.1767,0.1609278,-0.03803713,1.061114,18.35406,-7.212161,-19.4306,1000.889
9.059356689,3.688008,-7.078995,17.39387,-0.06412159,-0.01599511,0.993436,18.35406,-7.212161,-19.4306,1000.886
9.079174995,12.38316,-20.63384,-7.743897,-0.1298305,-0.002196505,1.001107,18.35406,-7.212161,-19.4306,1000.886
9.098992825,7.423249,-24.62768,-12.33108,0.1410593,-0.08125413,1.153675,18.6801,-8.308928,-19.41231,1000.887
9.118811607,-0.8432691,-17.48718,12.25623,0.1879468,-0.05481567,1.112526,18.6801,-8.308928,-19.41231,1000.887
9.138629437,-3.782475,-14.76411,28.28079,-0.1092717,0.04899075,0.9814674,18.6801,-8.308928,-19.41231,1000.885
9.158447742,3.810475,-21.23897,5.161381,-0.3389913,0.1622197,0.977997,17.98928,-7.582839,-19.42273,1000.885
9.178266048,12.56686,-34.7333,-23.218,-0.123629,0.1053018,1.142567,17.98928,-7.582839,-19.42273,1000.885
9.198083878,10.05629,-28.68203,-10.86318,0.0160508,0.02626792,1.18339,17.62378,-7.960734,-19.79488,1000.885
9.217902660,1.60607,-10.28617,11.88925,-0.02971859,0.08088993,1.11538,17.62378,-7.960734,-19.79488,1000.888
9.237720490,4.422809,-18.93948,6.201143,0.05217694,0.07474973,1.017882,17.62378,-7.960734,-19.79488,1000.888
9.257538796,1.054968,-23.11486,15.559,0.07113216,0.02986335,0.9403194,17.25242,-7.973137,-20.23684,1000.886
9.277357102,2.279638,-18.93948,16.10946,-0.07364936,0.05722622,0.8871924,17.25242,-7.973137,-20.23684,1000.886
9.299652577,9.137786,-23.65948,-3.279038,-0.141473,0.0643945,0.9768959,16.51792,-8.339378,-19.78423,1000.889
9.319470882,10.36246,-16.94257,-10.43505,0.03075887,0.005061343,1.040327,16.51792,-8.339378,-19.78423,1000.889
9.339288712,4.545276,-15.49026,2.042096,0.137652,-0.02735419,1.098945,16.51792,-8.339378,-19.78423,1000.885
9.359107018,-6.354281,-8.107711,18.37247,0.02140619,-0.05974175,1.043424,16.51792,-8.339378,-19.78423,1000.885
9.378925800,-10.21199,-13.97744,5.467194,-0.128232,-0.03093273,0.9946758,16.51792,-8.339378,-19.78423,1000.886
9.398743630,-13.3349,-14.76411,-10.43505,-0.0812609,0.001432017,0.9878273,16.14009,-7.992302,-20.6127,1000.886
9.418561936,-12.29393,-17.72923,-15.8785,0.1098272,0.0009263954,0.9727811,16.14009,-7.992302,-20.6127,1000.888
9.438379765,-6.048114,-14.52206,-0.7102148,0.1753777,0.06733341,0.9080845,16.14009,-7.992302,-20.6127,1000.888
9.458198071,-2.557806,-16.51898,11.27763,0.1896604,0.01997002,1.025054,16.13659,-7.602754,-19.41579,1000.887
9.478016853,-5.864414,-8.349761,18.67828,0.09789062,0.02302115,1.074322,16.13659,-7.602754,-19.41579,1000.887
9.497834683,-7.089083,-8.228736,13.6018,0.05884191,0.04031745,1.061593,15.76534,-7.613953,-19.79442,1000.887
9.517652989,-6.782916,-10.34668,1.797446,0.133114,0.06211549,1.056471,15.76534,-7.613953,-19.79442,1000.887
9.537471295,-6.721682,-17.24513,-10.43505,0.2051014,0.07911725,1.086573,15.76534,-7.613953,-19.79442,1000.89
9.559766770,-5.43578,-15.61129,-1.749977,0.2568312,0.05506827,1.098716,15.77027,-7.989068,-20.23129,1000.89
9.579585076,-5.680713,-8.349761,12.07274,0.1307358,0.05725241,1.064182,15.77027,-7.989068,-20.23129,1000.887
9.599402905,-2.741507,-11.49642,4.121619,-0.03129556,0.050488,1.030764,15.38823,-7.259661,-20.24286,1000.887
9.619221211,0.9325016,-11.07283,-10.92435,0.008644028,-0.03055891,1.057159,15.38823,-7.259661,-20.24286,1000.887
9.639039993,-11.00803,-14.82462,-20.34336,0.3045678,-0.02480552,0.9889593,15.38823,-7.259661,-20.24286,1000.887
9.658857823,-11.43666,-12.46463,-0.8937021,0.4250553,0.02427342,0.8896028,15.0852,-7.629675,-20.23523,1000.884
9.678676129,-3.598775,-9.43899,21.55292,0.1768468,0.1271344,0.8668731,15.0852,-7.629675,-20.23523,1000.884
9.698493958,15.0162,-15.36924,11.52228,0.01338689,0.1125623,0.8295615,15.39398,-7.626356,-20.23638,1000.884
9.718312264,11.89329,-14.28001,5.467194,-0.0459901,-0.007493032,1.047441,15.39398,-7.626356,-20.23638,1000.884
9.738131046,7.668183,-16.94257,-18.26384,0.05064412,0.03103598,1.066899,15.39398,-7.626356,-20.23638,1000.887
9.757948875,9.811355,-22.08615,-23.64614,0.3207918,0.01988999,1.113631,15.06973,-6.582285,-19.81023,1000.887
9.777767181,4.667743,-25.89845,-5.480886,0.3147392,0.003428393,1.165709,15.06973,-6.582285,-19.81023,1000.889
9.797585487,-1.149436,-14.76411,18.0055,0.1173066,-0.05331261,1.080099,15.38426,-6.945662,-19.80491,1000.889
9.817403316,-8.313752,-8.349761,14.21342,-0.1480131,-0.07052133,0.9762388,15.38426,-6.945662,-19.80491,1000.889
9.839699268,-4.578511,-8.894376,-21.2608,-0.1204051,-0.009205669,0.9011049,15.38426,-6.945662,-19.80491,1000.889
9.859517097,2.708272,-14.64308,-29.76238,0.1767848,-0.0003042272,0.9241404,15.38752,-7.266877,-20.62288,1000.892
9.879335403,5.402544,-13.19078,-12.39224,0.3825868,-0.005534451,0.9374673,15.38752,-7.266877,-20.62288,1000.892
9.899154186,4.912677,-6.655406,15.80365,0.3025034,-0.06366542,1.032695,15.38273,-6.961298,-20.62828,1000.884
9.918972015,1.544836,-6.292329,20.81897,0.02933002,-0.02474586,1.00012,15.38273,-6.961298,-20.62828,1000.884
9.938790321,3.136906,-17.54769,-2.422764,0.03935419,-0.07728102,1.00076,15.38273,-6.961298,-20.62828,1000.887
9.958608627,-2.680273,-17.91077,-9.456446,0.1079955,-0.07394367,1.025501,15.0689,-6.590705,-20.25359,1000.887
9.978426456,-6.599215,-17.48718,-13.67666,0.2169912,-0.03799593,0.9575142,15.0689,-6.590705,-20.25359,1000.883
9.998245239,-4.21111,-13.06975,-2.912063,0.2655,0.03075292,0.8909922,15.09024,-8.003587,-20.60876,1000.883
10.018063068,0.3201669,-9.802066,9.932053,0.2273734,-0.006879335,0.9156241,15.09024,-8.003587,-20.60876,1000.884
10.037881374,-1.761771,-1.995928,17.08806,0.1074596,-0.0249506,0.9490099,15.09024,-8.003587,-20.60876,1000.884
10.057699680,-0.04723396,0.4245807,-0.8325397,-0.03478534,0.2273235,0.8690289,14.70258,-6.977019,-21.06909,1000.884
10.077517509,-2.80274,-6.715919,-3.156713,0.117432,0.005729278,0.9288404,14.70258,-6.977019,-21.06909,1000.884
10.099813461,-1.21067,-14.76411,-17.95803,0.2428717,0.01026583,0.9247983,14.70737,-7.282598,-21.06369,1000.883
10.119631767,6.137346,-3.992847,-6.398323,0.332977,0.04113755,1.013759,14.70737,-7.282598,-21.06369,1000.883
10.139449596,-1.516837,5.265597,20.63548,0.2162777,0.01317081,0.9751573,14.70737,-7.282598,-21.06369,1000.883
10.159268379,3.443074,7.383542,6.262305,0.09704442,0.006139788,0.941021,14.33683,-7.286582,-21.0623,1000.883
10.179086685,5.708712,-6.53438,-16.73478,0.12873,0.02982224,1.001304,14.33683,-7.286582,-21.0623,1000.882
10.198904514,6.014879,-5.505664,-15.08339,0.3050376,0.07065898,0.998618,13.9663,-7.290565,-21.06091,1000.882
10.218722820,6.627214,-6.655406,-10.25156,0.4150864,0.1228021,0.9809069,13.9663,-7.290565,-21.06091,1000.885
10.238540649,5.218844,-4.113872,12.80669,0.4350772,0.07831082,1.065038,13.9663,-7.290565,-21.06091,1000.885
10.258359432,3.504307,16.03686,33.78541,0.2172255,0.0649785,1.053129,13.9663,-7.290565,-21.06091,1000.886
10.278177738,-0.4146348,21.11992,32.501,0.08249468,0.021248,0.9778618,13.9663,-7.290565,-21.06091,1000.886
10.297995567,-1.455604,24.08505,12.74553,0.02052359,-0.02175163,0.8471744,12.86619,-8.035904,-21.04379,1000.883
10.317813873,0.1976999,3.450216,-21.56661,0.3316542,-0.01778237,0.8141176,12.86619,-8.035904,-21.04379,1000.883
10.337632656,0.6263342,-1.632851,-9.211796,0.545606,-0.008387854,0.8168561,12.86619,-8.035904,-21.04379,1000.884
10.357450485,6.688447,5.447135,12.1339,0.3522374,0.05639931,0.8394852,12.87123,-8.409817,-21.41732,1000.884
10.379745960,8.709152,8.835846,21.67525,0.167995,0.07931094,1.044784,12.87123,-8.409817,-21.41732,1000.88
10.399564743,-0.5983351,5.386622,26.87405,0.08253181,0.0494853,1.177836,12.18112,-7.676511,-21.04772,1000.88
10.419382572,-12.29393,10.83277,25.83429,-0.01118433,-0.017872,1.11091,12.18112,-7.676511,-21.04772,1000.881
10.439200878,-14.86573,9.198922,12.01158,0.05287077,-0.04746129,1.020147,12.18112,-7.676511,-21.04772,1000.881
10.459018707,-15.5393,2.905602,0.6353592,0.2633374,0.01088893,0.9372391,11.81633,-8.047189,-21.03985,1000.885
10.478837013,-12.66133,-6.957969,7.424392,0.2831279,0.1402355,0.8209869,11.81633,-8.047189,-21.03985,1000.885
10.498655796,5.769945,1.453297,18.06666,0.2182584,0.07641444,0.9469933,11.81633,-8.047189,-21.03985,1000.881
10.518473625,2.279638,9.804049,28.52544,0.1259742,-0.05137351,1.057858,11.43429,-7.317781,-21.05143,1000.881
10.538291931,0.4426338,4.720983,8.769966,0.02432426,-0.01313992,0.9775209,11.43429,-7.317781,-21.05143,1000.884
10.558110714,5.647479,-7.684122,-13.37084,0.2380589,-0.09022965,1.059458,11.05896,-7.016184,-21.05544,1000.884
10.577928066,-1.39437,-21.05743,-13.06503,0.3372154,-0.01921392,1.016322,11.05896,-7.016184,-21.05544,1000.884
10.597746849,-7.21155,-20.08923,-0.2209152,0.3162214,-0.01204758,1.004407,11.05896,-7.016184,-21.05544,1000.884
10.617565155,-14.68203,-14.09847,7.730205,0.2188863,-0.03313302,0.9507713,10.68842,-7.020167,-21.05405,1000.881
10.637382984,-8.864854,-8.773351,5.161381,0.1124448,0.01343748,0.905256,10.68842,-7.020167,-21.05405,1000.881
10.659678936,-0.4758682,-8.712837,-8.539009,0.1879147,-0.03513985,0.9929236,10.31213,-6.657455,-21.05914,1000.882
10.679497242,-0.5983351,-4.840024,-10.12923,0.2856013,-0.007304084,1.018114,10.31213,-6.657455,-21.05914,1000.882
10.699315071,3.01444,-11.8595,-17.10175,0.3451336,0.04266593,1.015631,10.31213,-6.657455,-21.05914,1000.881
10.719133854,7.913117,-11.67796,-14.22712,0.356514,0.02086378,1.036695,9.935843,-6.294743,-21.06423,1000.881
10.738952160,4.97391,-1.632851,-4.318799,0.2876523,0.01086984,1.079013,9.935843,-6.294743,-21.06423,1000.881
10.758769989,5.402544,-1.209262,-9.762259,0.2420433,0.04067392,1.017151,8.872243,-5.59549,-22.27665,1000.881
10.778588295,2.647039,-9.075913,-14.34944,0.2928603,0.002974316,1.024402,8.872243,-5.59549,-22.27665,1000.876
10.798406124,4.79021,-8.954888,-12.57573,0.2695405,-0.03819463,0.963983,8.872243,-5.59549,-22.27665,1000.876
10.818224907,7.239549,-8.047197,-14.04363,0.2066811,-0.1023042,0.9659285,8.491736,-4.850446,-21.46485,1000.871
10.838043213,7.423249,-15.36924,-26.33728,0.2171499,-0.05548185,0.9752825,8.491736,-4.850446,-21.46485,1000.871
10.857861042,9.137786,-12.04104,-25.29752,0.2628621,-0.06209151,0.9629315,8.484454,-4.499387,-22.2947,1000.87
10.877679348,3.075673,-4.718999,-13.61549,0.1486838,0.002069957,0.9595419,8.484454,-4.499387,-22.2947,1000.87
10.897498131,4.912677,-1.753877,-23.09567,0.0654046,0.1216173,0.8380114,8.484454,-4.499387,-22.2947,1000.871
10.917315960,13.1792,-18.5159,-27.98867,0.2377034,0.1504727,0.9236161,8.47391,-3.827113,-22.30658,1000.871
10.939611435,14.95497,-7.321045,-1.872301,0.2462204,0.1261064,1.099139,8.47391,-3.827113,-22.30658,1000.872
10.959430218,15.87347,1.695347,9.565078,0.1017571,0.04795646,1.108217,8.104079,-3.823879,-21.92517,1000.872
10.979248047,8.280518,7.80713,9.809728,0.04223349,-0.07401527,1.137359,8.104079,-3.823879,-21.92517,1000.865
10.999066353,-0.4146348,15.37122,-3.951825,0.06624062,-0.03436806,0.968977,8.104079,-3.823879,-21.92517,1000.865
11.018884659,6.627214,4.781495,-17.59105,0.2518699,0.0513497,0.7787085,7.722039,-3.094471,-21.93675,1000.865
11.038702488,14.77127,-7.018482,-13.98247,0.4106241,0.04156566,0.8221956,7.722039,-3.094471,-21.93675,1000.865
11.058521271,16.73074,-0.3620844,5.650681,0.3835941,-0.0255484,0.9146731,8.098329,-3.457183,-21.93165,1000.862
11.078339577,14.52633,9.380461,16.84341,0.2291056,-0.01156526,0.9879924,8.098329,-3.457183,-21.93165,1000.862
11.098157406,14.71003,13.19276,14.45807,0.2188052,-0.01216949,0.9614983,8.098329,-3.457183,-21.93165,1000.864
11.117975712,12.93426,0.364068,6.13998,0.2723033,0.03748478,1.043033,7.351501,-3.098454,-21.93536,1000.864
11.137794495,2.095937,-3.145669,4.733244,0.278621,0.02040366,1.013468,7.351501,-3.098454,-21.93536,1000.859
11.157612324,0.7488011,-1.14875,4.488594,0.2689282,0.05474233,0.9374337,8.457364,-2.71981,-21.946,1000.859
11.177430630,-3.292608,-3.690283,2.89837,0.2526654,0.03774096,0.9895646,8.457364,-2.71981,-21.946,1000.86
11.199726582,-4.762211,3.026627,7.669042,0.3154624,0.02784256,0.9901355,8.457364,-2.71981,-21.946,1000.86
11.219544411,1.851004,16.88404,14.82505,0.2886152,0.01834476,0.9458272,8.087649,-2.715374,-21.50126,1000.86
11.239362717,-0.04723396,9.925075,11.39995,0.2744641,0.01970443,0.9343274,8.087649,-2.715374,-21.50126,1000.86
11.259181023,8.219284,2.784576,8.464154,0.2324742,0.02083625,0.8882259,8.081075,-2.357098,-21.95109,1000.857
11.278998852,11.52589,1.695347,-3.707175,0.248399,0.0545628,0.9071364,8.081075,-2.357098,-21.95109,1000.857
11.298817635,-4.088643,-2.782593,-4.808099,0.2930995,0.06845285,0.9170993,8.081075,-2.357098,-21.95109,1000.858
11.318635941,-6.354281,-6.655406,-2.973226,0.2587032,0.05419201,0.9331427,8.440936,-1.611305,-21.52209,1000.858
11.338453770,-5.925647,-3.992847,0.5130343,0.2443015,0.03225177,0.952416,8.440936,-1.611305,-21.52209,1000.853
11.358272076,-6.537982,0.6061188,4.121619,0.2251819,0.04622169,0.9308719,7.699861,-1.61927,-21.51931,1000.853
11.378090859,-6.476748,-4.597974,-0.7713773,0.2811635,0.06219349,0.9721578,7.699861,-1.61927,-21.51931,1000.855
11.397908688,-4.088643,-9.983604,2.714883,0.3177104,0.06390045,0.9956178,7.699861,-1.61927,-21.51931,1000.855
11.417726994,-6.354281,-11.19386,9.993216,0.2682311,0.06520058,1.035475,8.064647,-1.248592,-21.52718,1000.852
11.437545300,2.953206,8.412257,22.28687,0.128027,0.05117526,0.9729395,8.064647,-1.248592,-21.52718,1000.852
11.457363129,3.810475,13.01122,15.98714,0.05356351,0.1325362,0.9491484,7.677815,-0.2136054,-21.54415,1000.851
11.479659081,20.52721,-0.3015717,4.305107,0.2352135,0.1699735,0.9386928,7.677815,-0.2136054,-21.54415,1000.851
11.499477387,30.5695,9.259436,15.80365,0.2178156,0.1018644,1.001669,7.677815,-0.2136054,-21.54415,1000.847
11.519295216,19.54748,-0.3620844,7.057417,0.1577791,0.02142521,1.091363,8.426175,-0.5566981,-20.71708,1000.847
11.539113999,3.994175,-28.50049,-16.24548,0.4095613,0.08046223,1.00244,8.426175,-0.5566981,-20.71708,1000.842
11.558932305,-11.31419,-28.43998,0.4518718,0.606615,0.199163,0.936327,8.425349,-0.5651178,-21.16043,1000.842
11.578750134,-6.537982,-2.298491,44.36652,0.3989891,0.2074031,0.9635706,8.425349,-0.5651178,-21.16043,1000.843
11.598568440,2.218405,1.513809,48.03626,0.003166517,0.04475212,1.001103,8.425349,-0.5651178,-21.16043,1000.843
11.618387222,2.830739,3.631754,14.76389,-0.118265,0.009520793,0.9890367,8.407388,0.527751,-21.55989,1000.838
11.638205052,5.280077,-12.88821,-17.8357,0.1845285,0.008508886,0.927522,8.407388,0.527751,-21.55989,1000.838
11.658023358,11.34219,-12.76719,-14.34944,0.378801,0.1077375,0.8695295,8.407388,0.527751,-21.55989,1000.838
11.677841664,18.26157,-14.21949,-0.3432401,0.4344463,0.05620569,0.986251,8.413846,0.1682725,-21.17339,1000.838
11.697660446,17.34307,7.867643,10.23787,0.2485808,0.03855992,0.9340832,8.413846,0.1682725,-21.17339,1000.839
11.717478275,19.73118,-10.77027,-2.545089,0.1343098,0.04531332,0.9516371,8.419599,-0.1984224,-21.16691,1000.839
11.739773750,15.81223,-19.84718,-12.02527,0.2265337,0.04112015,1.033649,8.419599,-0.1984224,-21.16691,1000.836
11.759592533,2.095937,-20.39179,-9.517609,0.3063134,-0.01188248,1.09424,8.04906,-0.2024055,-21.16552,1000.836
11.779410362,-8.130052,-15.85334,-13.43201,0.3197607,0.03220887,0.9742059,8.04906,-0.2024055,-21.16552,1000.835
11.799228668,-8.007585,-14.64308,-19.7929,0.3959319,0.07563816,0.8485157,8.04906,-0.2024055,-21.16552,1000.835
11.819046974,-6.966616,-13.97744,-8.905984,0.4414192,0.04525808,0.8736926,7.660562,0.8864803,-21.56359,1000.834
11.838864803,-7.02785,-7.381558,-4.624612,0.3470473,0.0496414,0.8751971,7.660562,0.8864803,-21.56359,1000.834
11.858683586,-16.58027,-19.4841,-8.600172,0.2858576,0.04156511,0.8885229,7.660562,0.8864803,-21.56359,1000.83
11.878501892,-19.64194,-23.59896,-13.30968,0.2883365,0.04992221,0.9160649,8.025348,1.257159,-21.57146,1000.83
11.898319721,-20.92785,-22.20717,-16.79594,0.3124523,0.08559237,0.9156334,8.025348,1.257159,-21.57146,1000.831
11.918138027,-14.49833,-20.75487,-13.67666,0.3741145,0.08437273,0.8829501,8.00401,2.670041,-21.21628,1000.831
11.937956810,-15.3556,-21.23897,-7.988547,0.3666053,0.08012708,0.9558539,8.00401,2.670041,-21.21628,1000.83
11.957774639,-10.76309,-18.33436,-1.811139,0.36539,0.07393833,1.017129,8.00401,2.670041,-21.21628,1000.83
11.977592945,-12.23269,-13.49334,-0.4044026,0.2760881,0.04818444,1.029552,7.245681,3.762161,-21.23295,1000.826
11.997411251,-13.3349,-14.15898,-8.661334,0.233211,-0.008458357,1.056044,7.245681,3.762161,-21.23295,1000.826
12.019706726,-23.86705,-13.00924,-16.49013,0.2804862,0.03648926,1.016436,7.617045,3.774563,-20.79098,1000.829
12.039525032,-16.21287,-10.34668,-16.8571,0.4034186,0.06994648,0.8952653,7.617045,3.774563,-20.79098,1000.829
12.059343338,-6.537982,-7.744634,-9.517609,0.4748136,0.04077207,0.9608516,7.617045,3.774563,-20.79098,1000.825
12.079162121,0.3814003,1.574322,-1.688814,0.4719748,-0.0008843474,1.058154,6.863641,4.491568,-21.24452,1000.825
12.098979950,3.688008,10.0461,1.185821,0.4015472,0.03513546,1.002251,6.863641,4.491568,-21.24452,1000.828
12.118798256,4.728976,6.294313,-2.422764,0.3200162,0.1265425,0.919181,7.594041,5.241344,-20.8169,1000.828
12.138617039,20.40475,17.97326,9.993216,0.3052381,0.1105448,0.98048,7.594041,5.241344,-20.8169,1000.824
12.158434391,21.87435,37.03477,16.29295,0.2150653,0.0589484,0.9802259,7.594041,5.241344,-20.8169,1000.824
12.178253174,18.56774,30.43888,10.54368,0.1203301,0.0301738,0.9632201,7.593215,5.232924,-21.26025,1000.821
12.198071480,5.586245,11.0143,-10.98551,0.1334801,0.02829992,0.965552,7.593215,5.232924,-21.26025,1000.821
12.217889309,4.97391,11.92199,-26.09263,0.3485525,0.06728134,0.9177551,7.971038,4.885849,-20.43179,1000.818
12.237708092,-10.33446,12.46661,-29.08959,0.4643908,0.07982282,0.8211325,7.971038,4.885849,-20.43179,1000.818
12.257526398,-1.761771,9.925075,-19.67058,0.4597262,0.06429574,0.8539004,7.971038,4.885849,-20.43179,1000.82
12.277344704,-4.884678,16.82352,-14.41061,0.3380716,0.09392496,0.8831965,8.330325,5.554889,-20.82508,1000.82
12.299639702,-12.90626,13.31379,-14.22712,0.2698066,0.07863479,0.9491359,8.330325,5.554889,-20.82508,1000.82
12.319458485,-12.90626,18.21531,-13.86014,0.2571976,0.08103913,0.9636977,7.954036,5.917602,-20.83017,1000.82
12.339276791,-8.252519,20.27275,-10.25156,0.3379436,0.04431357,0.9065936,7.954036,5.917602,-20.83017,1000.819
12.359094620,118.9294,31.70965,116.5382,0.3221492,0.08136548,0.7572401,7.954036,5.917602,-20.83017,1000.819
12.378913403,16.54704,3.631754,18.37247,0.2230544,0.177588,1.093738,8.999675,6.311219,-20.01721,1000.815
12.398731709,7.851883,12.58763,12.01158,0.2537464,0.08294343,0.9531074,8.999675,6.311219,-20.01721,1000.815
12.418549538,-3.782475,19.00198,12.07274,0.3446328,0.0980394,0.9599276,9.752254,5.585793,-20.00703,1000.816
12.438367844,-12.29393,26.02145,21.73641,0.2584105,0.106781,0.9338971,9.752254,5.585793,-20.00703,1000.816
12.458186627,-16.8252,25.71889,-8.722497,0.1950081,0.08530398,0.8467692,9.752254,5.585793,-20.00703,1000.813
12.478004933,5.402544,15.31071,-8.905984,0.2120282,0.06080365,0.9483953,9.747211,5.959706,-19.63349,1000.813
12.497822762,3.075673,9.561998,-9.089471,0.2586912,0.08840445,0.9859305,9.747211,5.959706,-19.63349,1000.815
12.517641068,1.483603,3.510728,-8.416684,0.2888063,0.08168966,0.963528,10.49404,5.600976,-19.62979,1000.815
12.537459850,1.728537,-6.776431,-3.034388,0.2921853,0.0753339,0.9456177,10.49404,5.600976,-19.62979,1000.818
12.559754849,3.443074,-4.29541,3.14302,0.254302,0.07615127,0.9622403,10.49404,5.600976,-19.62979,1000.818
12.579573155,6.688447,-5.747715,6.506955,0.2297257,0.05907429,1.000901,10.49486,5.609396,-19.18643,1000.814
12.599391937,-0.4758682,5.265597,3.204182,0.2519617,0.08598147,1.005262,10.49486,5.609396,-19.18643,1000.814
12.619210243,-5.190845,3.752779,5.528356,0.2707522,0.1270188,1.020816,10.49812,5.28818,-20.0044,1000.815
12.639028073,-6.966616,-3.508745,6.506955,0.2339337,0.1239962,1.058168,10.49812,5.28818,-20.0044,1000.815
12.658846378,-13.57983,-20.33128,-0.09859026,0.1650943,0.1047296,1.091751,10.49812,5.28818,-20.0044,1000.81
12.678665161,-7.334017,-7.744634,-5.664374,0.1711614,0.06288192,1.090537,10.86528,5.612175,-19.25116,1000.81
12.698482990,-13.1512,-3.448232,-10.37388,0.125458,0.07306375,0.9687219,10.86528,5.612175,-19.25116,1000.806
12.718301296,3.19814,-14.40103,-17.8357,0.2714622,0.1410134,0.9668236,10.48829,5.967672,-19.63627,1000.806
12.738119602,3.443074,-8.470787,-3.8295,0.4660822,0.1650603,1.029595,10.48829,5.967672,-19.63627,1000.805
12.757938385,-6.844149,3.389703,20.57432,0.3500375,0.1641042,1.084768,10.48829,5.967672,-19.63627,1000.805
12.777756214,-8.374986,18.82044,27.05754,0.1548227,0.1207675,1.10106,10.47608,6.693844,-20.02924,1000.804
12.797574520,-10.45692,27.1712,13.1125,0.03123321,0.08292978,1.022383,10.47608,6.693844,-20.02924,1000.804
12.817392826,-0.2309344,26.74761,-7.866222,0.1112276,0.07387788,0.9330857,10.85236,6.331132,-20.02415,1000.802
12.839688301,1.912237,19.36506,-10.1904,0.2670629,0.03880049,0.7920759,10.85236,6.331132,-20.02415,1000.802
12.859506607,44.53073,44.7804,3.938132,0.2966808,0.1033069,1.026344,10.85236,6.331132,-20.02415,1000.801
12.879324913,13.97523,13.73738,-2.728576,0.4017558,0.02858415,0.9100249,10.86457,5.604959,-19.63117,1000.801
12.899143696,-0.6595686,5.810211,11.03298,0.2641917,0.09455023,0.8976018,10.86457,5.604959,-19.63117,1000.802
12.918961525,-1.39437,-1.14875,15.31435,0.2124864,0.07496332,0.9634285,12.28976,5.314648,-19.6311,1000.802
12.938779831,-13.76353,10.71174,13.1125,0.1881536,0.08069228,0.9684179,12.28976,5.314648,-19.6311,1000.797
12.958598137,-17.13137,16.76301,10.78833,0.129875,0.09134714,0.8679118,12.28976,5.314648,-19.6311,1000.797
12.978415966,-6.966616,9.683024,6.201143,0.1337076,0.08497045,0.8403454,11.60636,5.620142,-19.25393,1000.799
12.998234749,8.709152,25.90043,2.470233,0.1750458,0.09090716,0.9921933,11.60636,5.620142,-19.25393,1000.799
13.018053055,-6.048114,23.54043,1.613959,0.160937,0.06736454,0.9520873,11.60636,5.620142,-19.25393,1000.8
13.037871361,1.238669,35.21939,-0.1597527,0.09133948,0.07136703,0.9442834,11.9769,5.624125,-19.25532,1000.8
13.057689190,3.871708,18.33634,-1.444164,0.1323663,0.05117096,0.9618142,11.9769,5.624125,-19.25532,1000.797
13.077507973,17.83294,20.69634,5.467194,0.1774212,0.09185726,0.9772222,11.98744,4.95185,-19.24344,1000.797
13.097326279,9.260253,10.5302,20.02386,0.1254335,0.1180225,1.035563,11.98744,4.95185,-19.24344,1000.799
13.119622231,-11.19173,-12.04104,2.225583,0.1141809,0.05421951,1.053638,12.66183,5.334267,-18.80911,1000.799
13.139440060,-17.74371,-3.448232,-3.768338,0.0689183,0.04711694,1.032612,12.66183,5.334267,-18.80911,1000.799
13.159258366,-16.0904,2.300474,-18.325,0.07357461,0.05677162,0.9877467,12.66183,5.334267,-18.80911,1000.799
13.179077148,-7.089083,-5.082076,-20.46569,0.2664329,0.0388966,1.03535,11.61115,5.314562,-19.24853,1000.8
13.198894501,-16.2741,19.42557,-8.722497,0.3158002,0.107914,1.078392,11.61115,5.314562,-19.24853,1000.8
13.218713284,-2.925207,55.00704,5.100219,0.2028659,0.1150763,1.060705,11.61115,5.314562,-19.24853,1000.797
13.238531590,7.484482,46.89834,-0.6490523,0.02311415,0.04046127,0.9961447,11.24144,5.319,-18.80379,1000.797
13.258350372,9.260253,-29.65023,-18.44733,0.06985198,0.03130639,1.137749,11.24144,5.319,-18.80379,1000.798
13.278168202,3.626774,-20.27076,-17.71338,0.1567147,0.179548,1.039569,11.60718,5.628561,-18.81058,1000.798
13.297986507,0.1976999,1.332271,-0.4044026,0.2179209,0.09069562,1.014161,11.60718,5.628561,-18.81058,1000.794
13.317804813,3.626774,19.72813,4.733244,0.1093516,0.06267324,0.9349692,11.60718,5.628561,-18.81058,1000.794
13.337623596,14.6488,23.35889,6.751605,0.01328531,0.03691575,0.960462,11.24061,5.31058,-19.24714,1000.791
13.357441425,19.11884,20.21223,-4.318799,-0.03817499,0.02986952,0.9761532,11.24061,5.31058,-19.24714,1000.791
13.379736900,29.0999,23.29838,-21.44429,0.07350988,0.04157032,0.9437452,11.24144,5.319,-18.80379,1000.787
13.399555683,26.16069,71.64803,10.78833,-0.007735484,0.1959009,0.905403,11.24144,5.319,-18.80379,1000.787
13.419373512,36.38668,49.74244,-12.57573,0.1140073,0.06890539,0.8842945,11.24144,5.319,-18.80379,1000.788
13.439191818,15.07743,1.876886,-9.272959,0.1197933,0.05374484,0.8446054,11.61844,4.963503,-18.41868,1000.788
13.459010124,4.545276,-9.499503,-1.933464,0.107078,0.1474923,0.9783756,11.61844,4.963503,-18.41868,1000.79
13.478828907,0.7488011,15.55276,-5.970186,0.1335176,0.1223339,0.9887206,11.62348,4.589592,-18.79222,1000.79
13.498646736,-6.905383,13.25327,-4.685774,0.09352282,0.1298668,0.9677404,11.62348,4.589592,-18.79222,1000.787
13.518465042,-7.272783,26.68709,-5.970186,0.1002732,0.1073723,0.913528,11.62348,4.589592,-18.79222,1000.787
13.538283348,-6.048114,27.1712,-2.055789,0.1071121,0.08934091,0.8926427,11.25211,4.577189,-19.23418,1000.787
13.558102131,-10.64062,13.67686,5.344869,0.09410136,0.08544786,0.9216547,11.25211,4.577189,-19.23418,1000.787
13.577919960,-7.02785,14.70558,8.280666,0.01872872,0.09826329,0.9462669,10.8824,4.581626,-18.78944,1000.784
13.597738266,-0.4758682,3.32919,6.201143,0.001482062,0.095915,1.019234,10.8824,4.581626,-18.78944,1000.784
13.617556572,-5.986881,-9.923092,7.302067,0.01325259,0.1121787,1.074761,10.8824,4.581626,-18.78944,1000.787
13.637375355,-5.374546,-1.814389,3.693482,0.01713649,0.1004611,1.053442,10.87736,4.955538,-18.4159,1000.787
13.659670353,-10.21199,-0.5436226,2.592558,0.02730179,0.09608003,1.032126,10.87736,4.955538,-18.4159,1000.787
13.679488659,-11.55913,13.97943,-0.03742781,-0.008678229,0.1061661,1.051682,10.50529,4.935918,-19.23789,1000.787
13.699307442,-10.94679,12.8902,-5.847861,-0.01595486,0.08903089,1.028947,10.50529,4.935918,-19.23789,1000.786
13.719125748,-9.967056,8.835846,-5.480886,0.03278027,0.08837786,1.057155,10.50529,4.935918,-19.23789,1000.786
13.738943577,-10.82432,3.692266,-1.749977,0.06042325,0.07624392,1.013983,10.49474,5.608193,-19.24977,1000.786
13.758761883,-5.497013,-8.833863,2.714883,0.0228132,0.08717791,0.9848019,10.49474,5.608193,-19.24977,1000.786
13.778580666,-4.639744,-17.72923,4.121619,0.03809915,0.1147827,1.091532,9.742166,6.333618,-19.25995,1000.784
13.798398972,-6.660449,4.297394,2.286746,0.06500377,0.1272547,1.157576,9.742166,6.333618,-19.25995,1000.784
13.818216801,-17.43754,24.3271,-0.5267274,-0.004271646,0.1482529,1.129585,9.742166,6.333618,-19.25995,1000.785
13.838035107,-20.19304,35.46144,-9.701096,-0.04418173,0.1177142,1.07076,10.48758,5.960454,-20.01628,1000.785
13.857853889,-16.70274,19.36506,-15.69502,0.0372174,0.05617795,1.02173,10.48758,5.960454,-20.01628,1000.786
13.877672195,-23.31595,17.6707,-11.90294,0.01635573,-0.0006033455,0.9433588,9.736415,6.700312,-19.26643,1000.786
13.897490025,-12.11023,1.695347,-14.10479,-2.838369E-05,0.0200955,0.8793586,9.736415,6.700312,-19.26643,1000.784
13.917308807,-9.599655,-3.871821,-7.499248,0.1030807,0.06316611,0.9509344,9.736415,6.700312,-19.26643,1000.784
13.939604282,-14.68203,21.05941,6.017655,0.004706878,0.04593939,0.8842922,9.724914,7.433703,-19.27939,1000.785
13.959423065,-6.415515,6.657389,12.99018,-0.1194925,0.03328835,0.9534473,9.724914,7.433703,-19.27939,1000.785
13.979240417,-6.415515,1.029708,6.13998,-0.1296061,0.05726119,1.022166,9.724206,7.426486,-19.65941,1000.783
13.999059200,-4.762211,12.82968,-0.5878899,-0.06457316,0.04528004,0.9618966,9.724206,7.426486,-19.65941,1000.783
14.018877506,-5.007145,21.72505,-3.707175,-0.004582576,0.00513621,0.9454336,9.724206,7.426486,-19.65941,1000.787
14.038696289,-6.170581,27.1712,-3.951825,0.04614237,-0.0155187,0.9537381,9.711995,8.15266,-20.05239,1000.787
14.058514118,-6.048114,31.52811,-2.850901,0.07281779,-0.0159211,0.9313868,9.711995,8.15266,-20.05239,1000.784
14.078332424,-4.21111,29.04709,0.2683845,0.02929242,-0.01289599,0.8659963,9.336665,8.454256,-20.0564,1000.784
14.098150730,0.8100346,12.82968,6.62928,0.009008967,0.005677202,0.9386045,9.336665,8.454256,-20.0564,1000.788
14.117969513,-7.456484,15.18968,8.097179,-0.03713777,0.06951933,1.060337,9.336665,8.454256,-20.0564,1000.788
14.137787342,-11.19173,20.33326,4.243944,-0.09225056,0.02267946,0.9377981,9.342872,8.163111,-19.29096,1000.79
14.157605648,-2.435339,14.3425,3.020695,-0.07174093,0.03457799,0.9816707,9.342872,8.163111,-19.29096,1000.79
14.177423954,-4.149877,6.778414,2.347908,-0.01528834,0.04271932,1.005537,10.0727,8.836136,-19.68564,1000.791
14.199719906,-12.17146,-3.508745,6.017655,-0.04407854,0.04103506,0.9747948,10.0727,8.836136,-19.68564,1000.791
14.219537735,-11.43666,-5.203101,2.959532,-0.09712594,0.01922355,0.9286361,10.0727,8.836136,-19.68564,1000.789
14.239356041,-4.333577,-10.10463,-1.199515,-0.08685607,0.02616131,0.9566109,10.07774,8.462223,-20.05918,1000.789
14.259174824,-1.578071,-8.228736,-2.422764,-0.03087584,0.01915509,0.9596472,10.07774,8.462223,-20.05918,1000.79
14.278993130,0.3814003,-20.21025,0.3295469,-0.07858616,0.03402771,0.970121,10.441,8.817265,-20.89042,1000.79
14.298811436,2.095937,-25.05127,1.491634,-0.002301523,0.05134019,1.119905,10.441,8.817265,-20.89042,1000.791
14.318629265,-6.782916,-14.28001,3.754644,-0.01399195,0.05517754,1.120954,10.441,8.817265,-20.89042,1000.791
14.338448048,-10.21199,-8.5313,2.89837,-0.0680765,0.03282602,1.055009,9.689124,9.549906,-20.52058,1000.787
14.358266354,-8.068818,-5.324126,0.3907094,-0.04671399,0.004067602,0.9968226,9.689124,9.549906,-20.52058,1000.787
14.378084660,-3.353841,7.262516,1.002334,-0.05210843,-0.0311909,0.9257174,9.689124,9.549906,-20.52058,1000.789
14.397902489,9.137786,1.029708,0.8800091,-0.1262724,-0.09495468,0.8934563,9.68184,9.900963,-21.35043,1000.789
14.417721272,18.38404,-13.06975,-5.664374,-0.1625886,-0.06080914,0.996641,9.68184,9.900963,-21.35043,1000.792
14.437539578,21.32325,-10.64924,-14.59409,-0.07645689,-0.05543816,1.019366,8.945807,9.519087,-21.72119,1000.792
14.457357884,23.77259,-13.73539,-15.93967,0.008057524,-0.04089933,1.010772,8.945807,9.519087,-21.72119,1000.792
14.479653359,18.87391,-11.3754,-11.84178,0.05990842,0.03061211,1.073121,8.945807,9.519087,-21.72119,1000.796
14.499471665,9.076552,7.928156,-5.297399,0.03337376,0.05570253,1.034781,8.945807,9.519087,-21.72119,1000.794
14.519289971,-0.5371017,15.12917,3.326507,-0.04984792,-0.001479437,0.9244096,8.945807,9.519087,-21.72119,1000.794
14.539108753,0.993735,9.804049,7.546717,-0.1778219,-0.03592314,0.8491526,8.260737,9.878479,-21.72513,1000.796
14.558926582,2.647039,5.810211,0.7576842,-0.2434035,-0.02398903,0.8910833,8.260737,9.878479,-21.72513,1000.796
14.578744888,5.280077,14.58455,-11.65829,-0.1178788,-0.002281228,0.9402235,8.260737,9.878479,-21.72513,1000.797
14.598563194,4.60651,26.98966,-11.47481,-0.01377988,-0.009058201,0.9347921,8.944276,9.50345,-22.54457,1000.797
14.618381977,4.239109,21.11992,-3.156713,-0.01447481,0.002034257,0.8918945,8.944276,9.50345,-22.54457,1000.794
14.638200283,7.300782,5.810211,3.020695,-0.06845649,0.022777,0.9270494,8.618949,10.60743,-22.18283,1000.794
14.658018112,6.137346,5.023546,0.8188466,-0.09037806,0.04952545,0.9606116,8.618949,10.60743,-22.18283,1000.794
14.677836895,8.035583,5.326109,-1.811139,-0.06899708,0.04864594,0.9537326,8.618949,10.60743,-22.18283,1000.796
14.697655201,7.117082,5.084059,-2.422764,-0.04945326,0.0434338,0.9714578,8.927024,10.60354,-22.564,1000.796
14.717473507,7.851883,4.297394,-1.444164,-0.03247473,0.05473522,0.9772151,8.927024,10.60354,-22.564,1000.794
14.739768982,6.38228,6.959952,-0.2209152,-0.01958532,0.05546452,1.050033,9.674558,10.25202,-22.18028,1000.797
14.759587288,-2.680273,7.080978,1.919771,-0.02888363,0.04755325,1.020117,9.674558,10.25202,-22.18028,1000.797
14.779405594,-4.21111,4.115856,3.632319,-0.05169997,0.02155414,0.9896996,9.674558,10.25202,-22.18028,1000.793
14.799224377,-8.068818,1.09022,1.246984,-0.08486708,0.02278049,0.9638228,8.933482,10.24406,-22.17751,1000.793
14.819042683,-4.21111,-0.846186,1.552796,-0.07032362,0.02526718,0.9541024,8.933482,10.24406,-22.17751,1000.796
14.838860512,-5.497013,-1.995928,4.060457,-0.07267398,0.01602412,0.962756,9.656596,11.34489,-22.57974,1000.796
14.858678818,-4.700978,0.5456061,5.283706,-0.1086523,0.03051123,0.9900573,9.656596,11.34489,-22.57974,1000.798
14.878497601,-1.884238,1.271759,2.65372,-0.1323775,-0.004247014,0.963944,9.656596,11.34489,-22.57974,1000.798
14.898315907,3.01444,-5.687202,-0.03742781,-0.07834812,0.01855392,1.014447,9.297561,10.60752,-22.56539,1000.798
14.918133736,2.279638,-5.021563,0.8800091,-0.006464102,0.06579187,1.064012,9.297561,10.60752,-22.56539,1000.796
14.937952042,-1.516837,-3.085156,8.525316,0.05772268,0.1047388,1.124678,9.650979,11.64205,-23.0285,1000.796
14.957770824,-12.60009,10.46969,20.20735,-0.009422194,0.0867696,1.086821,9.650979,11.64205,-23.0285,1000.797
14.977589130,-12.66133,7.262516,22.22571,-0.1872441,0.07536187,0.9791336,9.650979,11.64205,-23.0285,1000.797
14.997407436,-2.925207,3.692266,15.13086,-0.1840976,0.04425247,0.994885,9.657304,11.35211,-22.19972,1000.799
15.019702911,1.912237,16.33942,4.794406,-0.2210207,0.02404455,0.9732627,9.657304,11.35211,-22.19972,1000.796
15.039521217,8.647919,17.24711,-2.912063,-0.1278294,0.0718169,0.9966492,9.652513,11.65769,-22.20512,1000.796
15.059339523,7.055848,31.9517,-0.5878899,0.01098493,0.07903999,1.068328,9.652513,11.65769,-22.20512,1000.798
15.079158306,-1.088203,46.89834,9.198103,-0.07392921,0.05003819,0.9359075,9.652513,11.65769,-22.20512,1000.798
15.098976612,-4.823445,40.72604,13.6018,-0.2191713,0.008831061,0.9200799,11.12245,12.39979,-22.60365,1000.798
15.118794441,5.831179,41.75476,0.2683845,-0.2872851,0.01579194,0.9243499,11.12245,12.39979,-22.60365,1000.797
15.138612747,6.259813,41.9363,-10.00691,-0.20283,0.0066787,1.002035,11.87727,11.69722,-21.39008,1000.797
15.158431530,-2.067938,49.86346,-15.08339,-0.1654636,0.03956909,1.031925,11.87727,11.69722,-21.39008,1000.799
15.178249836,-7.701417,55.00704,-16.97943,-0.1289992,0.008951547,0.977991,11.87727,11.69722,-21.39008,1000.799
15.198068619,-10.02829,44.11475,-12.14759,-0.09667635,0.01137786,0.9049421,12.17959,12.06002,-21.77774,1000.796
15.217886448,-9.354721,36.55067,-3.401363,-0.1185373,-0.0009401496,0.8919662,12.17959,12.06002,-21.77774,1000.796
15.237704754,-9.599655,35.58246,0.2683845,-0.1516985,-0.007531544,0.8549476,12.90566,13.19092,-20.59656,1000.798
15.257523060,-5.680713,32.73837,2.531395,-0.1961529,-0.01083563,0.7919431,12.90566,13.19092,-20.59656,1000.798
15.277341843,2.953206,18.75993,3.938132,-0.2176141,0.0002528895,0.7921175,12.90566,13.19092,-20.59656,1000.796
15.299636841,6.627214,4.66047,5.956493,-0.1902276,0.04205662,0.9051291,12.89569,13.93995,-19.78615,1000.796
15.319455147,8.892852,6.778414,5.834168,-0.1892002,0.04845612,0.9317036,12.89569,13.93995,-19.78615,1000.793
15.339273930,4.116642,9.561998,6.017655,-0.2270817,0.06834088,0.980281,13.63523,13.93228,-20.6123,1000.793
15.359092236,3.443074,11.31687,1.858608,-0.2247086,0.06146739,0.9517546,13.63523,13.93228,-20.6123,1000.795
15.378910542,1.728537,19.60711,-0.465565,-0.2150285,0.06246228,0.9396398,13.63523,13.93228,-20.6123,1000.795
15.398728371,1.973471,17.73121,0.207222,-0.231224,0.04711935,0.871592,14.0073,13.9519,-19.79032,1000.799
15.418547154,7.97435,7.383542,4.427432,-0.2403255,0.04374859,0.9068601,14.0073,13.9519,-19.79032,1000.799
15.438365460,9.872588,1.876886,7.11858,-0.2216374,0.04350378,0.9670913,14.74333,14.33378,-19.41956,1000.798
15.458183766,8.647919,-3.448232,8.402991,-0.2659882,0.05787311,0.9635464,14.74333,14.33378,-19.41956,1000.798
15.478002548,7.423249,-8.107711,5.589519,-0.2784293,0.06675276,1.037993,14.74333,14.33378,-19.41956,1000.8
15.497820377,2.708272,-1.3908,0.08489711,-0.2326028,0.03529238,1.018273,15.10812,14.70445,-19.42742,1000.8
15.517638683,9.321486,10.10661,-0.5878899,-0.2241656,0.05368849,0.9555732,15.10812,14.70445,-19.42742,1000.797
15.537456989,10.23999,5.265597,5.834168,-0.2294957,0.07518508,0.9967404,15.11316,14.33054,-19.80096,1000.797
15.557275772,17.64924,-1.209262,9.748566,-0.297201,0.06987108,0.9579868,15.11316,14.33054,-19.80096,1000.797
15.579571247,24.38492,-12.64616,10.97181,-0.3018331,0.1105876,1.092888,15.11316,14.33054,-19.80096,1000.797
15.599389076,18.99638,-0.3620844,7.424392,-0.3527037,0.1050843,1.141407,15.10812,14.70445,-19.42742,1000.798
15.619207859,15.9347,1.937398,-3.217876,-0.3878921,0.1130906,1.104474,15.10812,14.70445,-19.42742,1000.798
15.639026165,10.17875,4.781495,-8.844821,-0.2108785,0.1164437,1.104488,15.10741,14.69724,-19.80744,1000.796
15.658844471,3.565541,11.25635,0.9411715,-0.1678788,0.0832217,0.9660357,15.10741,14.69724,-19.80744,1000.796
15.678663254,-0.5371017,11.67994,12.25623,-0.2793613,0.0493212,0.8786243,15.10741,14.69724,-19.80744,1000.793
15.698481083,-0.7208021,4.720983,15.62016,-0.4099866,0.01163086,0.8762497,15.42195,14.33386,-19.80212,1000.793
15.718299389,5.218844,3.692266,5.283706,-0.4634789,0.02211205,0.8954207,15.42195,14.33386,-19.80212,1000.798
15.738118172,4.422809,12.76917,-4.196475,-0.3798483,0.05430871,0.9419481,15.42195,14.33386,-19.80212,1000.798
15.757936478,6.137346,18.45737,-7.254598,-0.3246581,0.06272687,0.8813545,15.78194,15.01012,-19.81539,1000.797
15.777754784,7.97435,8.533283,-6.704135,-0.2513429,0.07817581,0.8704136,15.78194,15.01012,-19.81539,1000.797
15.797573566,6.137346,1.09022,-0.9548646,-0.2192514,0.09887008,0.902201,16.53427,14.35303,-19.42627,1000.793
15.817391396,0.8100346,2.118936,1.858608,-0.2599897,0.1075393,0.9502537,16.53427,14.35303,-19.42627,1000.793
15.839686871,-6.660449,7.988668,0.6353592,-0.3320442,0.1022226,0.9197294,16.15798,14.71574,-19.43136,1000.797
15.859505653,0.4426338,5.023546,-6.214836,-0.3491462,0.09327728,0.8816454,16.15798,14.71574,-19.43136,1000.797
15.879323959,3.688008,3.873805,-8.416684,-0.2770565,0.07906431,0.8903487,16.15798,14.71574,-19.43136,1000.8
15.899142265,5.096377,0.1220172,-6.642973,-0.2567219,0.07959367,0.8641756,16.52851,14.71972,-19.43275,1000.8
15.918960094,3.871708,-3.38772,-3.890663,-0.2472798,0.05827539,0.8881482,16.52851,14.71972,-19.43275,1000.798
15.938778877,0.5651007,-8.712837,-2.728576,-0.245333,0.08859664,0.9384919,16.52851,14.71972,-19.43275,1000.798
15.958597183,-6.844149,-9.196939,-1.627652,-0.2356268,0.1096539,0.9670249,16.8878,15.38876,-19.82603,1000.799
15.978415489,-4.21111,4.781495,-0.9548646,-0.2478076,0.09833075,0.9419341,16.8878,15.38876,-19.82603,1000.799
15.998234272,-5.864414,1.816373,0.5130343,-0.2994393,0.1092503,0.9369634,17.25188,15.75223,-20.21392,1000.795
16.018052101,-2.98644,-10.22566,-1.811139,-0.3321587,0.1212068,0.9174141,17.25188,15.75223,-20.21392,1000.795
16.037870407,0.9325016,-23.53845,-11.59713,-0.3228113,0.1535967,1.001998,17.25188,15.75223,-20.21392,1000.798
16.057688713,-7.762651,-47.44096,-1.994627,-0.2007162,0.1311265,1.113678,16.87126,16.49607,-19.46545,1000.798
16.077507496,-18.47851,-29.65023,2.714883,-0.1816788,0.135675,1.141593,16.87126,16.49607,-19.46545,1000.794
16.097325802,-18.66221,4.599957,7.546717,-0.2272345,0.1200521,1.02061,16.87055,16.48885,-19.84547,1000.794
16.119621754,-27.23489,17.24711,15.49784,-0.352013,0.08058808,0.8758039,16.87055,16.48885,-19.84547,1000.798
16.139439583,-18.72344,14.3425,14.5804,-0.4166034,-0.05475383,0.823333,16.87055,16.48885,-19.84547,1000.798
16.159257889,-1.39437,-15.91385,-2.973226,-0.4674683,0.0332654,0.884881,17.23534,16.85953,-19.85334,1000.795
16.179076195,5.096377,-37.39586,-7.254598,-0.2614138,0.06732544,1.036937,17.23534,16.85953,-19.85334,1000.795
16.198894978,-1.088203,-12.3436,2.837208,-0.1233099,0.138428,1.148045,16.85905,17.22224,-19.85843,1000.797
16.218713284,-9.722122,18.21531,13.05134,-0.1822878,0.1562612,0.9968984,16.85905,17.22224,-19.85843,1000.797
16.238532066,-14.74327,6.778414,18.12782,-0.315423,0.07694825,0.9030975,16.85905,17.22224,-19.85843,1000.798
16.258349896,-16.94767,0.4850934,11.03298,-0.4002317,0.0425004,0.9352416,17.21808,17.95961,-19.87278,1000.798
16.278168202,-12.72256,-3.145669,0.08489711,-0.434501,0.04069588,0.8663969,17.21808,17.95961,-19.87278,1000.8
16.297986507,-2.006705,7.988668,-6.58181,-0.278063,0.007027077,0.9044647,17.58862,17.9636,-19.87417,1000.8
16.317805290,0.5651007,6.2338,0.08489711,-0.1587444,-0.01619098,0.9138285,17.58862,17.9636,-19.87417,1000.8
16.337623596,6.749681,7.383542,5.283706,-0.171475,0.0003037013,0.9159136,17.58862,17.9636,-19.87417,1000.8
16.357441425,3.565541,-1.088237,8.525316,-0.2430163,0.03167404,0.9536325,17.95437,18.27316,-19.88096,1000.803
16.377259731,-2.251639,2.4215,5.039056,-0.3056196,0.02313375,0.9795133,17.95437,18.27316,-19.88096,1000.803
16.399555683,-1.761771,13.31379,-1.321839,-0.3628026,0.02801499,0.9055189,19.00493,18.29166,-19.50487,1000.799
16.419373989,1.973471,7.56508,-6.765298,-0.3459427,0.04167603,0.8803975,19.00493,18.29166,-19.50487,1000.799
16.439192772,7.178315,4.66047,-11.96411,-0.3086447,0.06620669,0.8764579,19.00493,18.29166,-19.50487,1000.799
16.459011078,9.750121,0.1825299,-13.86014,-0.2328199,0.1012788,0.9206294,19.38027,17.99006,-19.50086,1000.799
16.478828907,8.341751,-1.753877,-10.61853,-0.1331424,0.04199423,0.9583936,19.38027,17.99006,-19.50086,1000.802
16.498647213,6.994615,6.112775,-1.994627,-0.178546,0.06656754,0.9481494,19.73955,18.6591,-19.89415,1000.802
16.518465996,4.300342,1.392784,-0.9548646,-0.2583547,0.0778515,0.9529883,19.73955,18.6591,-19.89415,1000.804
16.538284302,3.38184,6.415338,-4.991587,-0.3001348,0.07473343,0.9614065,19.73955,18.6591,-19.89415,1000.804
16.558102608,-0.04723396,4.357906,-5.909023,-0.2876807,0.09177326,0.9334305,20.46912,19.40046,-19.90988,1000.802
16.577921391,-0.04723396,4.176368,-4.318799,-0.2575425,0.09387466,0.932311,20.46912,19.40046,-19.90988,1000.802
16.597739220,0.3201669,0.364068,0.3907094,-0.2774197,0.09088273,0.9459195,20.84037,19.41166,-19.53125,1000.805
16.617557526,-1.761771,-13.55385,1.246984,-0.3084684,0.08295429,0.9557022,20.84037,19.41166,-19.53125,1000.805
16.637375832,-7.946352,-2.661567,0.08489711,-0.3063068,0.0728526,1.002458,20.84037,19.41166,-19.53125,1000.805
16.659671784,-4.578511,1.997911,-4.808099,-0.4351119,0.008683901,0.9198132,21.52473,19.04505,-19.90734,1000.805
16.679490566,11.95453,-4.355923,-21.19964,-0.4175971,-0.003931228,0.900828,21.52473,19.04505,-19.90734,1000.807
16.699308872,15.62853,-13.61437,-24.44125,-0.2323058,0.05324784,0.9922989,21.88448,19.78964,-19.54167,1000.807
16.719126702,10.97479,-5.142588,-11.78062,-0.1018194,0.1231045,1.006907,21.88448,19.78964,-19.54167,1000.811
16.738945007,2.708272,7.625592,7.669042,-0.1684739,0.1158959,0.9879272,21.88448,19.78964,-19.54167,1000.811
16.758763790,-3.108907,6.052262,16.78225,-0.3664902,0.04671711,0.995896,21.88295,19.77401,-20.36504,1000.811
16.778582096,-5.190845,10.83277,6.506955,-0.4620851,0.006285273,0.9928329,21.88295,19.77401,-20.36504,1000.811
16.798400402,-0.1697009,3.32919,-3.951825,-0.4799597,0.03966473,0.9404902,22.24352,20.52701,-19.55602,1000.812
16.818219185,4.422809,7.928156,-7.438085,-0.3123374,0.06583907,0.933915,22.24352,20.52701,-19.55602,1000.812
16.838037014,7.545716,1.634835,0.02373465,-0.2399308,0.06128507,0.9088786,22.24352,20.52701,-19.55602,1000.814
16.857855320,5.525012,-9.620528,4.794406,-0.2422066,0.06431708,0.9595879,23.71991,20.90964,-19.56805,1000.814
16.877673626,5.157611,-7.381558,8.158341,-0.28702,0.06207923,0.9356878,23.71991,20.90964,-19.56805,1000.813
16.897492409,3.749241,1.876886,4.916731,-0.3308111,0.08334771,0.9649974,23.71991,20.90964,-19.56805,1000.813
16.917310715,4.60651,15.79481,0.2683845,-0.3254387,0.07312538,0.9547793,23.74221,19.43564,-19.92215,1000.815
16.939606667,4.484043,10.71174,-1.505327,-0.2444494,0.08804914,0.9114543,23.74221,19.43564,-19.92215,1000.815
16.959424973,4.116642,11.43789,1.002334,-0.2099473,0.05692053,0.8517361,24.10042,20.1646,-20.37985,1000.813
16.979242802,2.830739,3.026627,3.14302,-0.2722691,0.05410282,0.8269635,24.10042,20.1646,-20.37985,1000.813
16.999061108,6.443513,0.6666315,1.980933,-0.2649385,0.06247688,0.8511003,25.51589,20.55498,-19.9483,1000.814
17.018879890,5.096377,7.383542,5.773006,-0.2337541,0.07734647,0.8925163,25.51589,20.55498,-19.9483,1000.814
17.038698196,3.994175,-2.601054,5.89533,-0.2344105,0.1065547,0.8907392,25.51589,20.55498,-19.9483,1000.814
17.058516502,2.830739,-9.136427,9.198103,-0.2558378,0.1171786,0.9000819,25.89793,19.82557,-19.93672,1000.814
17.078335285,2.830739,-14.28001,9.565078,-0.3028662,0.09503926,0.9069832,25.89793,19.82557,-19.93672,1000.816
17.098153591,0.5038673,-12.10155,8.464154,-0.3188418,0.0915864,0.9229812,25.89793,19.82557,-19.93672,1000.816
17.117971420,7.545716,-3.871821,2.592558,-0.2798581,0.07619914,0.9197927,26.63243,20.19181,-20.38934,1000.818
17.137790203,7.300782,-10.28617,-0.9548646,-0.2292023,0.07407197,0.938329,26.63243,20.19181,-20.38934,1000.818
17.157608509,9.38272,-21.17845,-1.627652,-0.1839878,0.1197611,1.008787,27.3728,20.19256,-20.77213,1000.817
17.177426815,4.239109,-23.7805,4.855569,-0.1442754,0.1187268,1.100273,27.3728,20.19256,-20.77213,1000.817
17.197245598,-6.599215,-10.89129,16.78225,-0.2401492,0.1372492,1.112478,27.3728,20.19256,-20.77213,1000.821
17.219541073,-12.04899,9.319948,14.88621,-0.3997842,0.03695377,1.057328,27.38276,19.44353,-21.58254,1000.821
17.239359856,-4.762211,6.354825,2.531395,-0.4223576,0.03033807,0.9874294,27.38276,19.44353,-21.58254,1000.825
17.259177685,-2.067938,3.32919,-10.98551,-0.3528475,0.034584,0.9832094,28.42758,19.82873,-21.21294,1000.825
17.278995991,3.565541,-2.601054,-13.43201,-0.2496877,0.1096113,0.9796513,28.42758,19.82873,-21.21294,1000.822
17.298814297,1.912237,-4.113872,-5.358562,-0.1515488,0.2104112,0.9723917,28.42758,19.82873,-21.21294,1000.822
17.318633080,-0.7820356,-4.355923,10.36019,-0.2244353,0.1802574,0.942227,28.42112,20.18821,-21.59943,1000.826
17.338451386,-1.39437,-0.1805463,17.45503,-0.3470578,0.0805351,1.045197,28.42112,20.18821,-21.59943,1000.826
17.358269692,-3.904943,10.46969,11.82809,-0.4585113,0.05496622,0.9800311,28.7852,20.55167,-21.98732,1000.824
17.378087521,-0.4146348,17.24711,3.938132,-0.4100724,0.08944406,0.8365875,28.7852,20.55167,-21.98732,1000.824
17.397906303,6.321046,5.205084,-2.728576,-0.3032711,0.09474983,0.7877623,28.7852,20.55167,-21.98732,1000.826
17.417724609,12.19946,-21.90461,-7.31576,-0.1853675,0.09013282,0.8406705,29.15069,20.92957,-21.61517,1000.826
17.437542915,10.72986,-24.08307,-0.7713773,-0.1386108,0.1021567,0.880056,29.15069,20.92957,-21.61517,1000.825
17.457361698,3.38184,-17.97128,4.305107,-0.18569,0.08438095,0.879257,30.25681,21.23988,-22.00475,1000.825
17.479657173,-0.1697009,-32.67587,2.959532,-0.2621398,0.08587256,0.8545839,30.25681,21.23988,-22.00475,1000.827
17.499475956,4.60651,-35.64099,0.1460596,-0.28819,0.09322097,0.9290966,30.25681,21.23988,-22.00475,1000.827
17.519294262,1.912237,-23.35691,-0.5267274,-0.322626,0.1219524,1.004248,30.62581,21.22822,-22.82951,1000.823
17.539112091,-9.967056,-36.42765,-13.55433,-0.2764015,0.1428846,0.9022573,30.62581,21.22822,-22.82951,1000.823
17.558930874,-46.52344,-76.91065,-9.578771,0.01731195,0.1473169,0.8968108,30.25291,21.20018,-24.09485,1000.827
17.578749180,-25.58159,-16.94257,22.59268,-0.1561325,0.1547106,1.10535,30.25291,21.20018,-24.09485,1000.827
17.598567486,-6.537982,-6.352842,-1.321839,-0.1676097,0.06498069,0.8723009,30.25291,21.20018,-24.09485,1000.83
17.618386269,-1.271903,-6.413355,5.406031,-0.2438456,0.1238233,1.004791,29.85209,23.01404,-24.94923,1000.83
17.638204575,0.993735,0.2430426,6.13998,-0.180976,0.07095602,0.9559081,29.85209,23.01404,-24.94923,1000.828
17.658022881,-9.722122,-5.566177,7.179742,-0.230253,0.1587299,0.9122222,30.59892,22.65531,-24.94553,1000.828
17.677840710,-11.86529,-27.83485,-8.539009,-0.1797765,0.1108656,0.9454876,30.59892,22.65531,-24.94553,1000.831
17.697659493,-6.109347,-11.07283,-4.318799,-0.1670693,0.09826515,0.9429399,30.59892,22.65531,-24.94553,1000.831
17.717477799,-9.844589,-19.4841,-3.890663,-0.1971205,0.1050256,0.9841667,30.5867,23.38149,-25.33851,1000.829
17.737296105,-3.353841,-8.5313,-35.57281,-0.250898,0.1151592,1.061742,30.5867,23.38149,-25.33851,1000.829
17.759592056,4.300342,-13.13027,-29.45657,-0.2169339,0.09621288,1.006916,29.8278,24.39685,-26.17746,1000.831
17.779410362,3.504307,-9.378477,-44.13556,-0.1478748,0.04313965,1.061291,29.8278,24.39685,-26.17746,1000.831
17.799229145,10.79109,-11.19386,-42.36185,-0.1058176,0.05393269,1.00416,29.8278,24.39685,-26.17746,1000.835
17.819047451,8.954085,-35.76201,-41.87255,-0.08014005,0.08186179,1.021056,30.18038,25.4937,-26.57831,1000.835
17.838865280,-1.884238,-43.08405,-25.6645,-0.1194778,0.06360891,1.007663,30.18038,25.4937,-26.57831,1000.833
17.858683586,-2.61904,-41.75277,-12.57573,-0.1861108,0.07254847,1.021589,28.30808,26.54982,-27.85753,1000.833
17.878502369,-3.476308,-35.88304,-20.89383,-0.2590722,0.1802031,1.196305,28.30808,26.54982,-27.85753,1000.836
17.898320675,-116.697,-3.145669,-18.99779,-0.1458717,-0.07965971,1.018656,28.30808,26.54982,-27.85753,1000.836
17.918139458,3.38184,42.78347,-22.60637,-0.1083167,-0.1522309,0.9302301,27.60518,27.93255,-28.7032,1000.84
17.937957764,-16.4578,14.70558,-9.578771,-0.03068958,-0.02778733,1.079592,27.60518,27.93255,-28.7032,1000.84
17.957776070,-60.7296,-1.027724,1.919771,-0.03727577,-0.1292052,0.8353545,26.46564,29.76249,-28.28808,1000.837
17.977594852,24.01752,15.97635,11.58344,-0.1374454,-0.01712908,0.8828156,26.46564,29.76249,-28.28808,1000.837
17.997412682,-3.598775,-5.566177,-0.3432401,-0.1359662,-0.01808483,0.8871467,26.46564,29.76249,-28.28808,1000.841
18.019708157,-17.62124,-29.16613,14.27459,-0.2382602,0.1292532,1.225373,27.19196,30.82507,-27.48584,1000.841
18.039526939,-102.797,-40.30047,-4.441124,-0.1830172,-0.02425138,1.05631,27.19196,30.82507,-27.48584,1000.845
18.059345245,-95.75514,-37.39586,-15.32804,-0.01934029,-0.1840515,0.8702102,27.19266,30.83228,-27.10583,1000.845
18.079163551,-34.33797,-9.499503,6.445793,0.04003201,-0.1293071,0.828656,27.19266,30.83228,-27.10583,1000.843
18.098982334,-42.29832,-10.16514,13.1125,-0.07460154,-0.001572644,0.9390249,27.19266,30.83228,-27.10583,1000.843
18.118800640,-60.11726,-0.4225971,2.225583,-0.0657839,-0.1277546,0.8924741,25.31275,32.66148,-26.30791,1000.845
18.138618946,-10.70186,30.31786,2.164421,-0.05706344,-0.2818718,0.7714479,25.31275,32.66148,-26.30791,1000.845
18.158437729,55.00166,34.00913,11.46111,-0.07321393,-0.1689542,0.7851486,26.40935,33.79637,-25.12813,1000.847
18.178255558,83.90385,36.55067,7.424392,-0.09476655,-0.1390088,0.9321546,26.40935,33.79637,-25.12813,1000.847
18.198073864,85.31223,32.01221,3.571157,-0.05911761,-0.03640202,1.001027,26.40935,33.79637,-25.12813,1000.85
18.217892170,38.40739,12.28507,3.14302,0.0191898,-0.02425789,1.022381,26.77765,33.7775,-26.3329,1000.85
18.237710953,34.05981,19.66762,12.86785,-0.008558355,0.0123883,0.9324603,26.77765,33.7775,-26.3329,1000.85
18.257529259,33.20254,21.60403,15.68132,-0.1437746,0.02732058,0.9540324,26.77765,33.7775,-26.3329,1000.85
18.277348042,31.91664,12.22456,12.99018,-0.260784,0.01316567,0.9898355,27.55099,31.56244,-27.50019,1000.854
18.299643517,17.4043,18.75993,12.19506,-0.3092455,0.0008146907,1.020446,27.55099,31.56244,-27.50019,1000.854
18.319462299,-16.51904,15.00814,-1.872301,-0.2777393,-0.09065977,0.9811895,28.24507,30.51514,-28.30775,1000.852
18.339280605,-31.03137,-17.91077,-29.21192,-0.1517381,-0.09472284,0.842433,28.24507,30.51514,-28.30775,1000.852
18.359098435,-7.578951,-20.02871,-30.37401,0.01796988,-0.03407326,0.7911344,29.00564,29.44587,-27.08769,1000.855
18.378916741,57.08359,-11.13335,-1.811139,0.003800767,0.07286988,0.948149,29.00564,29.44587,-27.08769,1000.855
18.398735523,74.04527,22.99582,18.4948,-0.3469606,0.1431802,1.176806,29.00564,29.44587,-27.08769,1000.855
18.418553829,12.81179,22.81428,7.179742,-0.5587214,0.08312862,1.162694,28.25,30.14002,-28.74462,1000.855
18.438372135,-32.62344,-7.744634,-28.72262,-0.3947108,-0.01308091,0.8938982,28.25,30.14002,-28.74462,1000.855
18.458190918,-3.782475,-28.01639,-40.34349,-0.06041358,0.01825936,0.853615,28.25,30.14002,-28.74462,1000.855
18.478009224,-4.884678,-28.43998,-27.80518,0.1268546,0.06261656,1.075815,28.26571,29.0243,-29.54855,1000.859
18.497827530,-31.46,-7.986685,1.491634,0.08524621,0.03175551,1.088917,28.26571,29.0243,-29.54855,1000.859
18.517646313,-40.64502,14.8266,30.11566,-0.1287972,-0.005081379,1.014119,27.88942,29.38701,-29.55364,1000.861
18.537464142,-28.94943,23.35889,17.27155,-0.3727016,-0.06225482,0.8491188,27.88942,29.38701,-29.55364,1000.861
18.557282448,8.341751,-11.67796,-8.783659,-0.3392819,-0.1239207,0.8495845,27.88942,29.38701,-29.55364,1000.864
18.579578400,39.08095,-26.56409,-16.3678,-0.156109,-0.06359719,1.038101,27.58064,29.38369,-29.55249,1000.864
18.599396706,27.75276,-22.3282,-15.75618,-0.08510337,-0.03438518,1.085648,27.58064,29.38369,-29.55249,1000.865
18.619215012,25.73206,-11.61745,-6.092511,-0.1443261,-0.01882627,1.001583,28.25926,29.38378,-29.93505,1000.865
18.639033795,29.71223,-4.537461,-1.749977,-0.2179612,0.09861318,0.9948668,28.25926,29.38378,-29.93505,1000.868
18.658852101,9.443954,-19.78666,-18.69198,-0.1988539,0.1390431,0.9597344,28.25926,29.38378,-29.93505,1000.868
18.678670883,-6.293048,-20.33128,-19.42593,-0.1448455,0.1098648,1.061134,27.90865,27.88174,-31.55448,1000.869
18.698489189,-1.333137,-1.209262,-15.69502,-0.1725664,0.03150168,0.9324908,27.90865,27.88174,-31.55448,1000.869
18.718307495,16.60827,-6.836944,-7.927384,-0.1850009,0.1158161,0.9904307,26.4981,27.18698,-31.9173,1000.872
18.738125324,16.97567,-18.45538,-13.86014,-0.06870592,0.1497055,1.062853,26.4981,27.18698,-31.9173,1000.872
18.757944107,9.015319,-18.27384,-9.701096,0.03635614,0.08509599,1.102008,26.4981,27.18698,-31.9173,1000.87
18.777762413,5.647479,-15.00616,8.953453,0.07557502,0.009745523,1.069067,26.86781,27.18254,-32.36204,1000.87
18.797580719,-11.43666,-0.5436226,29.68753,-0.1293315,0.0393692,1.073237,26.86781,27.18254,-32.36204,1000.872
18.817399502,-10.45692,8.956872,18.25015,-0.2863103,0.1234942,0.9596506,25.77274,26.06329,-32.71846,1000.872
18.839694977,0.2589334,-3.750796,0.5741968,-0.1530251,0.1110064,0.9463072,25.77274,26.06329,-32.71846,1000.875
18.859513760,5.647479,-14.46154,-0.4044026,-0.05863765,0.08693554,1.059579,25.77274,26.06329,-32.71846,1000.875
18.879332066,7.239549,-13.7959,3.509995,-0.04899699,0.03838229,1.096926,26.52602,25.34509,-32.32825,1000.873
18.899150372,7.055848,-13.13027,11.1553,-0.1597531,-0.01929882,1.040762,26.52602,25.34509,-32.32825,1000.873
18.918969154,-9.967056,-4.658486,13.78529,-0.217752,0.01697725,1.064435,26.52532,25.33787,-32.70827,1000.877
18.938787460,-13.45736,11.37738,2.347908,-0.2277325,-0.00476493,0.9543271,26.52532,25.33787,-32.70827,1000.877
18.958605289,8.280518,3.208165,-11.96411,-0.1703472,0.03625109,0.8779604,26.52532,25.33787,-32.70827,1000.875
18.978423595,28.3651,-14.82462,-14.04363,-0.03400278,0.07765531,0.9947177,26.90736,24.60846,-32.6967,1000.875
18.998242378,21.26201,-20.63384,-8.477847,0.01758064,0.05433564,1.107745,26.90736,24.60846,-32.6967,1000.878
19.018060684,-4.578511,-24.38563,-0.3432401,-0.04807265,0.01865409,1.192872,26.54654,23.92378,-33.12679,1000.878
19.037879467,-31.58247,-10.10463,7.546717,-0.1082814,0.01953226,1.080742,26.54654,23.92378,-33.12679,1000.874
19.057697773,-10.08952,12.28507,1.552796,-0.1633328,-0.04960807,0.7968738,26.54654,23.92378,-33.12679,1000.874
19.077516079,17.71047,-19.90769,-4.808099,-0.172298,0.03413785,1.015524,26.91484,23.90491,-34.33156,1000.878
19.097334862,6.137346,-18.39487,-10.1904,-0.1179852,0.04100855,1.122899,26.91484,23.90491,-34.33156,1000.878
19.119630337,-10.57939,-3.932334,-5.175074,-0.1021053,0.03510438,1.063412,26.5565,23.17476,-33.9372,1000.875
19.139449120,-0.6595686,-10.83078,-0.6490523,-0.06840757,0.07609902,1.029168,26.5565,23.17476,-33.9372,1000.875
19.159267426,4.60651,-16.88205,7.913692,-0.04467356,0.04032217,1.084362,26.5565,23.17476,-33.9372,1000.881
19.179085732,-2.863973,-10.34668,12.50088,-0.1189929,0.04048964,1.1118,26.55075,23.54145,-33.94368,1000.881
19.198903561,-3.231374,-3.206182,11.95041,-0.1792505,0.0618655,1.019083,26.55075,23.54145,-33.94368,1000.881
19.218722343,-0.2921678,-9.802066,5.711843,-0.140132,0.1063608,1.011374,26.55733,23.18318,-33.49384,1000.881
19.238540649,6.321046,-15.6718,4.366269,-0.1010739,0.09444876,1.035716,26.55733,23.18318,-33.49384,1000.885
19.258358955,8.831619,-19.60512,1.980933,-0.07339787,0.057751,1.104399,26.55733,23.18318,-33.49384,1000.885
19.278177738,3.075673,-17.91077,3.14302,-0.06875677,0.03351883,1.141898,27.30838,22.44211,-34.30703,1000.881
19.297996044,-1.455604,-4.05336,11.39995,-0.1199604,0.05075454,1.1302,27.30838,22.44211,-34.30703,1000.881
19.317814827,2.157171,5.628673,6.568118,-0.1118105,0.03946918,1.077003,26.9471,21.68189,-35.49607,1000.879
19.337633133,2.095937,4.478932,7.913692,-0.03829266,0.0139977,1.058128,26.9471,21.68189,-35.49607,1000.879
19.357451439,-4.700978,-0.4831098,11.39995,-0.007373273,0.03649988,1.034423,26.9471,21.68189,-35.49607,1000.883
19.377270222,-7.762651,-2.177466,13.47948,-0.02006481,0.03835636,1.023883,26.5822,21.31001,-35.55154,1000.883
19.399565697,-6.721682,-7.86566,10.29903,-0.06591044,0.03411541,0.979223,26.5822,21.31001,-35.55154,1000.885
19.419384480,-6.721682,-9.075913,8.341829,-0.1213738,0.03919051,0.981966,26.95203,21.30677,-35.93295,1000.885
19.439202786,1.361136,3.147652,7.852529,-0.1384483,0.000788715,1.046058,26.95203,21.30677,-35.93295,1000.888
19.459020615,4.851443,5.507648,4.916731,-0.09848091,0.03004552,0.9769669,26.95203,21.30677,-35.93295,1000.888
19.478838921,7.300782,-2.480029,5.222544,-0.01366361,0.01693511,1.011671,27.32665,20.99796,-36.30895,1000.886
19.498657704,1.054968,-2.116953,9.932053,-0.001112491,-0.02231981,1.062082,27.32665,20.99796,-36.30895,1000.886
19.518476009,-3.843709,0.5456061,11.76693,-0.08364491,0.007319944,1.011522,27.33311,20.63848,-35.92245,1000.888
19.538294315,-6.476748,-0.241059,4.427432,-0.1302103,0.03859735,0.956912,27.33311,20.63848,-35.92245,1000.888
19.558113098,-0.5983351,-6.594893,-4.196475,-0.08595856,0.04371203,0.9634536,27.33311,20.63848,-35.92245,1000.889
19.577931404,-0.1084674,-15.06667,-3.523688,0.007665897,0.04437339,1.036312,28.07994,20.27975,-35.91875,1000.889
19.597749710,0.3201669,-15.42975,1.063496,0.01487024,0.05265722,1.023282,28.07994,20.27975,-35.91875,1000.887
19.617568493,-0.2921678,-12.88821,7.057417,-0.0352285,0.07097024,1.052129,27.7094,20.27577,-35.91736,1000.887
19.637386799,0.8100346,-1.572338,8.586479,-0.03649676,0.03541135,1.04954,27.7094,20.27577,-35.91736,1000.888
19.659682751,2.463338,3.510728,7.546717,-0.03519949,0.03872542,1.007557,27.7094,20.27577,-35.91736,1000.888
19.679501057,2.463338,2.845089,2.103258,-0.03400275,0.07912193,0.9971385,26.96679,20.25216,-36.73796,1000.892
19.699319840,1.422369,-5.384639,-4.991587,0.008813309,0.07593495,0.9968877,26.96679,20.25216,-36.73796,1000.892
19.719138146,1.054968,-3.629771,-5.542049,0.03818359,0.06204483,1.029478,28.08415,19.89742,-36.73564,1000.89
19.738955975,1.912237,-4.96105,-2.789738,0.04796973,0.06115999,1.045348,28.08415,19.89742,-36.73564,1000.89
19.758774280,-0.9045025,-0.7856733,1.797446,0.07122552,0.05877353,1.015282,28.08415,19.89742,-36.73564,1000.893
19.778593063,1.238669,-3.508745,0.3295469,0.0326522,0.0765534,1.000139,26.96679,20.25216,-36.73796,1000.893
19.798411369,3.810475,-4.96105,-1.016027,0.007066572,0.05308981,1.017535,26.96679,20.25216,-36.73796,1000.889
19.818229675,0.9325016,-3.508745,0.6353592,-0.03482279,0.05331575,0.9994238,26.96679,20.25216,-36.73796,1000.889
19.838048458,1.728537,-7.684122,-6.214836,0.01698955,0.02981465,1.036668,28.02814,19.53006,-36.72893,1000.893
19.857866764,-1.516837,-1.14875,-0.03742781,0.04333872,0.02610203,1.055812,28.02814,19.53006,-36.72893,1000.893
19.877685070,-0.4146348,-1.935415,-0.5878899,0.003618369,0.04179676,0.9861221,27.33087,20.61563,-37.12584,1000.894
19.897503853,0.2589334,-5.021563,-0.3432401,0.02805222,0.03418455,1.00767,27.33087,20.61563,-37.12584,1000.894
19.917322159,-3.231374,-4.718999,0.08489711,-0.02461703,0.04994139,0.9916278,27.33087,20.61563,-37.12584,1000.892
19.939618111,-1.700538,-4.779512,-6.153673,-0.00638994,0.0198909,1.010198,26.97758,19.51156,-37.10501,1000.892
19.959436417,-2.006705,-2.480029,-5.847861,0.03410858,0.008950922,1.030675,26.97758,19.51156,-37.10501,1000.895
19.979255199,-0.965736,0.0009917939,-4.318799,0.02080892,0.01609543,0.993136,26.97183,19.87825,-37.11149,1000.895
19.999073505,-0.7208021,-2.661567,-0.7102148,0.03009178,0.01470709,1.003214,26.97183,19.87825,-37.11149,1000.897
20.018891811,-2.435339,-3.811309,1.797446,0.0642271,0.008104996,1.018922,26.97183,19.87825,-37.11149,1000.897
20.038710594,-5.252079,2.239962,7.485555,0.01987508,0.01709589,1.006179,26.59625,20.24818,-36.73657,1000.9
20.058528900,-2.741507,1.029708,1.124659,-0.02730362,0.06783486,0.9463626,26.59625,20.24818,-36.73657,1000.9
20.078346729,-0.3534013,0.0009917939,-5.358562,0.03486741,0.0356911,1.011984,26.23075,19.87029,-37.10872,1000.898
20.098165035,-0.8432691,2.4215,-1.383002,0.08361647,0.01695977,1.014517,26.23075,19.87029,-37.10872,1000.898
20.117983818,-1.578071,0.0615045,-1.505327,0.01274351,0.05447298,0.9731049,26.23075,19.87029,-37.10872,1000.9
20.137802124,-1.516837,-4.355923,-5.603211,0.008896541,0.05106195,0.9803485,26.58979,20.60766,-37.12307,1000.9
20.157620430,-1.945472,0.4850934,-5.175074,0.006998794,0.0525525,0.9967776,26.58979,20.60766,-37.12307,1000.898
20.177439213,-2.680273,0.4245807,-6.214836,-0.01901729,0.0771796,0.9671205,26.23568,19.49517,-37.54559,1000.898
20.197257519,0.7488011,-4.597974,-11.41364,0.05730032,0.07608235,0.9536648,26.23568,19.49517,-37.54559,1000.901
20.219553471,-0.9045025,-1.451313,-6.092511,0.07959738,0.05106888,1.033056,26.23568,19.49517,-37.54559,1000.901
20.239371777,-2.435339,4.357906,3.448832,0.05462473,0.05864108,0.9960656,26.58979,20.60766,-37.12307,1000.899
20.259190559,-2.067938,4.176368,2.959532,0.04725271,0.05708162,0.9709986,26.58979,20.60766,-37.12307,1000.899
20.279008865,0.07523298,1.029708,1.185821,0.05078417,0.04496831,0.9882934,26.58896,20.59924,-37.56642,1000.901
20.298827171,1.78977,0.0009917939,1.797446,0.05183922,0.0367214,0.9988642,26.58896,20.59924,-37.56642,1000.901
20.318645954,3.136906,1.211246,-2.116951,0.03000534,0.04397763,1.026051,26.58896,20.59924,-37.56642,1000.898
20.338464260,0.6263342,0.0615045,-2.667413,0.06506462,0.03343479,1.020978,26.21843,20.59526,-37.56503,1000.898
20.358282566,1.238669,2.905602,5.283706,0.07022378,0.0519035,0.9954628,26.21843,20.59526,-37.56503,1000.899
20.378101349,0.6263342,3.873805,12.19506,0.02837817,0.05313845,0.9918369,26.21925,20.60368,-37.12168,1000.899
20.397919655,1.667303,2.300474,6.812768,-0.01061559,0.05531899,0.9703409,26.21925,20.60368,-37.12168,1000.899
20.417737961,4.60651,-0.9066988,1.552796,0.0007419595,0.04376686,1.001593,26.21925,20.60368,-37.12168,1000.899
20.437556744,4.361576,-0.1805463,-2.178114,0.02325934,0.02834324,1.018767,26.58251,20.95872,-37.95292,1000.897
20.457375050,4.97391,2.300474,4.182782,0.03543958,0.03771045,1.040469,26.58251,20.95872,-37.95292,1000.897
20.479671002,8.096817,7.020465,1.308146,0.02442753,0.06089739,0.9870716,26.971,19.86983,-37.55485,1000.899
20.499489308,7.851883,1.75586,3.081857,0.06826099,0.05236981,0.9911319,26.971,19.86983,-37.55485,1000.899
20.519307137,6.749681,1.997911,5.650681,0.02522413,0.09059779,0.9843236,26.971,19.86983,-37.55485,1000.898
20.539125443,9.137786,0.364068,4.182782,0.02746077,0.05708389,1.014548,26.97676,19.50314,-37.54837,1000.898
20.558944225,7.178315,7.56508,3.14302,0.006237445,0.004789026,0.9801254,26.97676,19.50314,-37.54837,1000.898
20.578762531,0.4426338,3.873805,-2.973226,0.03214433,0.06186932,0.9696579,26.97676,19.50314,-37.54837,1000.898
20.598581314,9.076552,-0.1805463,4.427432,0.08270682,0.03229862,0.915652,26.97676,19.50314,-37.54837,1000.895
20.618399620,3.443074,-5.505664,-6.948785,0.01091779,0.04868193,0.9986671,26.97676,19.50314,-37.54837,1000.895
20.638217926,4.728976,-3.750796,1.491634,0.06633157,0.09099201,1.059399,27.71866,19.51952,-37.10779,1000.896
20.658036709,4.728976,2.360987,4.243944,0.0256714,0.03420829,1.022646,27.71866,19.51952,-37.10779,1000.896
20.677855015,5.586245,11.92199,5.773006,0.02227966,0.03371078,1.025558,26.61701,18.75855,-37.91404,1000.896
20.697673321,1.78977,12.8902,2.714883,0.02897833,0.02780097,0.9834979,26.61701,18.75855,-37.91404,1000.896
20.717492104,1.299902,10.65123,3.081857,-0.004258878,0.05537632,0.9804426,26.61701,18.75855,-37.91404,1000.893
20.737310410,1.361136,6.294313,0.7576842,0.01018489,0.07832439,0.975172,27.3588,18.77373,-37.5368,1000.893
20.759606361,0.9325016,6.536364,-0.09859026,0.001168383,0.05741498,1.006488,27.3588,18.77373,-37.5368,1000.897
20.779424667,-0.04723396,7.080978,-3.646013,-0.02836522,0.03682351,1.011853,27.72441,19.15283,-37.10131,1000.897
20.799242973,-3.537542,6.717902,0.7576842,0.06297626,0.04309994,0.9949747,27.72441,19.15283,-37.10131,1000.895
20.819061756,-2.680273,3.99483,-1.321839,0.02889417,0.06342849,1.017469,27.72441,19.15283,-37.10131,1000.895
20.838880062,-2.312872,4.236881,-3.034388,-0.02184465,0.07038506,0.9825467,28.1007,18.79012,-37.09622,1000.897
20.858698845,-1.02697,8.351745,1.613959,0.07476328,0.03053194,1.007878,28.1007,18.79012,-37.09622,1000.897
20.878517151,-2.006705,10.5302,6.935092,0.03153907,0.07547023,0.9571813,28.09412,19.14839,-37.54605,1000.898
20.898335457,2.463338,5.870724,1.797446,-0.158904,0.1251228,0.9570309,28.09412,19.14839,-37.54605,1000.898
20.918154240,6.076113,12.8902,-18.14152,0.02708,0.02733562,0.9965382,28.09412,19.14839,-37.54605,1000.895
20.937972546,0.5651007,4.720983,-5.725536,0.09863493,0.06896078,0.9403697,28.0899,19.53072,-36.72916,1000.895
20.957790852,6.19858,2.905602,-1.872301,0.01204414,0.0963612,0.9795986,28.0899,19.53072,-36.72916,1000.894
20.977609634,5.953646,-2.540542,-5.909023,-0.0107506,0.08944355,0.986928,28.41019,18.80065,-36.71736,1000.894
20.997427940,4.851443,3.510728,-3.462525,0.004588796,0.03383443,1.114951,28.41019,18.80065,-36.71736,1000.896
21.017246246,1.728537,18.6389,7.60788,0.007331343,0.07444436,0.9877173,28.41019,18.80065,-36.71736,1000.896
21.039542198,10.79109,11.55892,10.84949,-0.005967941,0.1457752,0.9133413,28.09495,19.15681,-37.1027,1000.894
21.059360504,16.1184,9.077897,5.956493,-0.1153139,0.1040557,1.011709,28.09495,19.15681,-37.1027,1000.894
21.079179287,3.994175,-1.572338,-6.58181,-0.1294243,0.04859146,1.061218,29.14551,19.17531,-36.72662,1000.897
21.098997593,-5.986881,-3.085156,-16.06199,-0.008773531,0.0174683,1.020335,29.14551,19.17531,-36.72662,1000.897
21.118816376,-5.43578,-8.228736,-6.704135,0.09894582,0.1035478,0.945855,29.14551,19.17531,-36.72662,1000.893
21.138634682,11.03602,-8.773351,-0.465565,-0.01149964,0.1352073,0.9852365,28.41101,18.80907,-36.27401,1000.893
21.158452988,8.709152,-14.64308,-6.092511,-0.136872,0.06408842,1.042031,28.41101,18.80907,-36.27401,1000.894
21.178271771,-0.04723396,5.810211,-4.869262,-0.08905784,0.04831227,1.060512,28.41101,18.80907,-36.27401,1000.894
21.198090076,-1.149436,7.444054,-10.74086,-0.05843459,0.07549153,0.957674,29.15548,18.42629,-37.53703,1000.896
21.217908382,6.627214,-1.027724,-12.82038,0.07230119,0.1212266,0.863071,29.15548,18.42629,-37.53703,1000.896
21.237726212,13.85276,-10.16514,-5.664374,0.05791799,0.1271652,0.9336513,28.41594,18.43396,-36.71088,1000.896
21.257545471,9.321486,-3.206182,-6.58181,-0.140524,0.009830203,1.165338,28.41594,18.43396,-36.71088,1000.896
21.277363300,-6.537982,4.781495,1.002334,-0.01072015,0.03945655,1.056177,28.41594,18.43396,-36.71088,1000.899
21.299659252,-6.048114,8.291232,6.13998,0.007445538,0.07257049,1.018116,28.1007,18.79012,-37.09622,1000.899
21.319477558,-4.517277,-5.989766,-5.847861,-0.1695273,0.1270772,0.982681,28.1007,18.79012,-37.09622,1000.897
21.339295864,0.2589334,-1.511826,-4.746937,0.1021245,0.1022826,1.020164,28.10645,18.42342,-37.08974,1000.897
21.359114647,2.279638,-3.750796,3.14302,-0.07093504,0.1754028,1.021969,28.10645,18.42342,-37.08974,1000.895
21.378932953,-0.4758682,-6.957969,-1.383002,0.0409067,0.07805345,0.9986538,28.10645,18.42342,-37.08974,1000.895
21.398751259,3.994175,5.144571,11.58344,0.05008449,0.1025002,1.02045,27.73016,18.78613,-37.09483,1000.896
21.418570042,-0.9045025,8.47277,-5.542049,-0.2257995,0.08127781,1.092322,27.73016,18.78613,-37.09483,1000.896
21.438388348,-8.374986,10.46969,-7.193435,-0.07431112,0.1279848,0.9522384,28.41441,18.41832,-37.53425,1000.897
21.458207131,-7.578951,-0.9672114,-11.23016,0.02144144,0.1137756,0.911579,28.41441,18.41832,-37.53425,1000.897
21.478025437,-4.456044,-13.49334,-11.29132,-0.04239115,0.1534452,0.9415755,28.41441,18.41832,-37.53425,1000.895
21.497843742,1.728537,-11.92001,-3.951825,0.1895105,0.04528423,1.022771,28.78072,18.80464,-36.71875,1000.895
21.517662525,9.750121,6.838927,13.6018,0.01482767,0.09173657,1.07513,28.78072,18.80464,-36.71875,1000.897
21.537480831,9.260253,17.24711,11.03298,-0.2092339,0.06623005,1.076225,28.40443,19.16735,-36.72384,1000.897
21.557299137,-4.762211,13.55584,5.039056,-0.09788179,0.08355952,0.9555179,28.40443,19.16735,-36.72384,1000.895
21.579595089,-3.231374,6.596876,-1.383002,0.08253884,0.0893766,0.9603524,28.40443,19.16735,-36.72384,1000.895
21.599413395,0.3814003,-7.502584,1.246984,-0.0619572,0.1693966,0.935007,28.41594,18.43396,-36.71088,1000.898
21.619232178,-1.21067,-15.00616,0.6965217,0.02563713,0.04445011,1.029456,28.41594,18.43396,-36.71088,1000.898
21.639050484,2.157171,5.205084,12.68436,-0.02185034,0.01597238,1.033914,29.15044,18.8002,-37.16349,1000.895
21.658868790,-8.497453,13.67686,-2.606251,-0.09233283,-0.0009890147,1.017319,29.15044,18.8002,-37.16349,1000.895
21.678687573,-8.313752,7.080978,-1.749977,-0.002565974,0.09578238,0.9729181,29.15044,18.8002,-37.16349,1000.897
21.698505879,-0.5983351,-5.566177,-12.08643,0.04649701,0.131684,1.014827,29.15126,18.80862,-36.72013,1000.897
21.718324661,0.4426338,-10.95181,3.326507,0.04036533,0.1280203,0.9221675,29.15126,18.80862,-36.72013,1000.895
21.738142967,13.60783,-9.862579,1.552796,-0.1705194,0.1010042,1.076675,28.78072,18.80464,-36.71875,1000.895
21.757961273,-5.741947,9.017385,-1.016027,-0.06563383,-0.07645962,1.163519,28.78072,18.80464,-36.71875,1000.896
21.777780056,-11.55913,17.1866,5.039056,-0.01888681,0.1087045,0.9146698,28.78072,18.80464,-36.71875,1000.896
21.797598362,2.218405,0.0615045,8.158341,0.1249201,0.1391659,0.9198312,28.41594,18.43396,-36.71088,1000.892
21.817416668,6.19858,1.211246,-3.646013,-0.07311938,0.007107342,1.102689,28.41594,18.43396,-36.71088,1000.892
21.839712620,-10.51816,1.513809,-5.419724,-0.07630906,0.03769701,1.07342,29.5333,18.07921,-36.70856,1000.895
