Time (s),Gyroscope X (deg/s),Gyroscope Y (deg/s),Gyroscope Z (deg/s),Accelerometer X (g),Accelerometer Y (g),Accelerometer Z (g),Magnetometer X (uT),Magnetometer Y (uT),Magnetometer Z (uT),Barometer (hPa)
0.000000000,0.0139995,0.1220172,-0.1597527,-0.009729535,-0.001101972,0.9946629,34.20924,5.509406,-21.86667,1005.684
0.002478123,-0.04723396,0.1220172,-0.1597527,-0.009723022,-0.004030549,0.9917518,34.20924,5.509406,-21.86667,1005.684
0.004955292,0.0139995,0.2430426,-0.03742781,-0.01606052,0.001303446,0.996158,34.215,5.14271,-21.86019,1005.684
0.007432461,0.0139995,0.1825299,-0.09859026,-0.0131262,-0.001602999,0.996127,34.215,5.14271,-21.86019,1005.684
0.009910107,0.0139995,0.1220172,-0.09859026,-0.01411689,-0.001620923,0.9908228,34.215,5.14271,-21.86019,1005.683
0.012387276,0.07523298,0.1825299,-0.2209152,-0.01799875,0.0003207014,0.9966462,34.215,5.14271,-21.86019,1005.683
0.014864445,0.0139995,0.1825299,-0.2209152,-0.01509712,0.00325735,0.9966454,34.215,5.14271,-21.86019,1005.683
0.017342567,-0.1084674,0.364068,-0.09859026,-0.009241588,-0.002564916,0.992722,34.215,5.14271,-21.86019,1005.683
0.019819736,0.0139995,0.1220172,-0.03742781,-0.01166885,-0.001596621,0.9956363,34.215,5.14271,-21.86019,1005.683
0.022297382,0.07523298,-0.05952091,-0.09859026,-0.01359943,-0.003062774,0.9975702,34.215,5.14271,-21.86019,1005.683
0.024774551,-0.04723396,0.1220172,-0.2209152,-0.01215903,-0.003557381,0.9912848,34.215,5.14271,-21.86019,1005.683
0.027251720,0.0139995,0.1220172,-0.09859026,-0.01410213,-0.001610377,0.995167,34.215,5.14271,-21.86019,1005.683
0.029729366,0.1364664,0.0615045,-0.1597527,-0.01117596,-0.001589416,0.9975644,34.215,5.14271,-21.86019,1005.683
0.032206535,0.07523298,0.1825299,-0.2209152,-0.0116803,-0.0001381903,0.9946785,34.215,5.14271,-21.86019,1005.683
0.034684658,-0.04723396,0.1825299,-0.1597527,-0.01654521,0.001302101,0.9966432,34.215,5.14271,-21.86019,1005.683
0.037161827,0.0139995,0.1220172,-0.1597527,-0.01361419,-0.00307332,0.993226,34.215,5.14271,-21.86019,1005.683
0.039638996,-0.04723396,0.1825299,-0.2209152,-0.01408796,-0.003555731,0.9961222,34.215,5.14271,-21.86019,1005.683
0.042116165,-0.04723396,0.1825299,-0.2820776,-0.01362068,0.00132189,0.9985581,34.215,5.14271,-21.86019,1005.683
0.044593811,0.07523298,0.3035553,-0.2820776,-0.01361518,0.003281306,1.003395,34.215,5.14271,-21.86019,1005.683
0.047070980,0.2589334,0.0615045,-0.09859026,-0.01263881,-0.003555211,0.9932181,34.215,5.14271,-21.86019,1005.683
0.049548149,-0.04723396,0.1220172,0.02373465,-0.01749607,-0.002598329,0.9966284,34.215,5.14271,-21.86019,1005.686
0.052026272,0.1364664,0.2430426,-0.09859026,-0.01411135,0.003271758,1.000501,34.215,5.14271,-21.86019,1005.686
0.054503441,0.0139995,0.1825299,-0.1597527,-0.009751336,0.002793424,0.994683,34.215,5.14271,-21.86019,1005.686
0.056981087,0.0139995,0.1220172,-0.03742781,-0.008726832,-0.002053211,1.001893,34.215,5.14271,-21.86019,1005.686
0.059458256,0.1364664,0.1220172,0.08489711,-0.009727295,0.002321733,1.000955,34.215,5.14271,-21.86019,1005.686
0.061935425,0.0139995,0.1220172,-0.1597527,-0.01312834,0.000839826,0.9995183,34.215,5.14271,-21.86019,1005.686
0.064412594,-0.04723396,0.1220172,-0.09859026,-0.01846873,-0.002603362,0.9966337,34.215,5.14271,-21.86019,1005.686
0.066890717,0.0139995,0.1825299,-0.09859026,-0.01506172,-0.004539301,0.9941918,34.215,5.14271,-21.86019,1005.686
0.069367886,0.1364664,0.2430426,-0.2209152,-0.008789623,0.001812891,0.9898459,34.215,5.14271,-21.86019,1005.686
0.071845531,0.0139995,0.1220172,-0.09859026,-0.01217973,0.001316551,0.9932407,34.215,5.14271,-21.86019,1005.686
0.074322701,0.07523298,0.1220172,-0.03742781,-0.01556002,-0.0006393909,0.9971105,34.215,5.14271,-21.86019,1005.686
0.076799870,-0.04723396,0.1825299,-0.03742781,-0.01506445,-0.004052376,0.9941943,34.215,5.14271,-21.86019,1005.686
0.079277515,0.0139995,0.1825299,-0.1597527,-0.0136147,-0.0006293235,0.9971,34.215,5.14271,-21.86019,1005.686
0.081754684,0.0139995,0.0615045,-0.09859026,-0.01116562,-0.004026383,0.9965864,34.215,5.14271,-21.86019,1005.686
0.084232807,-0.1697009,-0.1200336,-0.03742781,-0.01603817,-0.002102682,0.9971057,34.215,5.14271,-21.86019,1005.686
0.086709976,0.07523298,0.0009917939,-0.09859026,-0.01411465,0.001802782,0.9971152,34.215,5.14271,-21.86019,1005.686
0.089187145,0.1364664,0.0009917939,-0.1597527,-0.01265622,0.001321065,0.9961394,34.215,5.14271,-21.86019,1005.686
0.091664791,0.07523298,0.1825299,-0.1597527,-0.01116996,-0.002073998,0.9985273,34.215,5.14271,-21.86019,1005.683
0.094141960,-0.04723396,0.1825299,-0.03742781,-0.01017333,-0.006940552,0.9975315,34.215,5.14271,-21.86019,1005.683
0.096619129,0.1364664,0.1220172,-0.2209152,-0.01166499,0.0003616237,0.9999905,34.215,5.14271,-21.86019,1005.683
0.099097252,0.0139995,0.0615045,-0.2820776,-0.01895393,-0.0001607104,1.000993,34.215,5.14271,-21.86019,1005.683
0.101574421,-0.04723396,0.2430426,-0.09859026,-0.01603598,-0.001612242,0.9985563,34.215,5.14271,-21.86019,1005.683
0.104051590,-0.04723396,0.1825299,-0.1597527,-0.01264751,-0.001117073,0.9946787,34.20924,5.509406,-21.86667,1005.683
0.106529236,0.0139995,0.1220172,-0.1597527,-0.01653104,-0.0006432529,0.9975986,34.20924,5.509406,-21.86667,1005.683
0.109006405,-0.04723396,0.3035553,0.02373465,-0.008750872,-0.001581519,0.9956204,34.20924,5.509406,-21.86667,1005.683
0.111483574,-0.1084674,0.1825299,-0.09859026,-0.01505133,-0.004043003,0.9980556,34.20924,5.509406,-21.86667,1005.683
0.113961220,0.1364664,0.1220172,-0.2820776,-0.01697423,-0.0030593,1.006277,34.20924,5.509406,-21.86667,1005.683
0.116438866,0.07523298,0.2430426,-0.09859026,-0.01362779,0.0008279346,0.9956595,34.20924,5.509406,-21.86667,1005.683
0.118916512,-0.04723396,0.3035553,-0.09859026,-0.01267319,-0.0006465537,0.9879239,34.20924,5.509406,-21.86667,1005.683
0.121393681,-0.04723396,0.3035553,-0.1597527,-0.01213991,-0.004032588,0.9961091,34.20924,5.509406,-21.86667,1005.683
0.123870850,0.0139995,0.3035553,-0.09859026,-0.01651685,-0.002588608,0.9985539,34.20924,5.509406,-21.86667,1005.683
0.126348019,-0.1084674,0.3035553,-0.09859026,-0.01362837,-0.001127966,0.9922707,34.20924,5.509406,-21.86667,1005.683
0.128825665,0.0139995,0.1220172,-0.03742781,-0.01214756,-0.003549179,0.9946635,34.20924,5.509406,-21.86667,1005.683
0.131302834,-0.04723396,0.3035553,-0.03742781,-0.01118358,0.0003606251,0.9985399,34.20924,5.509406,-21.86667,1005.682
0.133780956,0.07523298,0.2430426,-0.1597527,-0.0141098,-0.0025936,0.9913005,34.20924,5.509406,-21.86667,1005.682
0.136258125,-0.04723396,0.1220172,-0.2209152,-0.01899707,0.00225282,0.9923175,34.20924,5.509406,-21.86667,1005.682
0.138735294,0.07523298,0.1825299,-0.1597527,-0.01652662,0.001804259,1.002921,34.20924,5.509406,-21.86667,1005.682
0.141212940,-0.04723396,0.2430426,0.02373465,-0.01409828,0.0003478674,0.999521,34.20924,5.509406,-21.86667,1005.682
0.143690109,0.0139995,0.1220172,-0.09859026,-0.01116506,-0.003537114,0.9975544,34.20924,5.509406,-21.86667,1005.682
0.146167278,0.1364664,0.1220172,-0.2209152,-0.01309564,-0.005003268,0.9994881,34.20924,5.509406,-21.86667,1005.682
0.148644447,0.07523298,0.0615045,-0.1597527,-0.01558237,0.002766737,0.9961629,34.20924,5.509406,-21.86667,1005.682
0.151122570,0.0139995,0.0615045,-0.2209152,-0.01557583,0.001304791,0.9956726,34.20924,5.509406,-21.86667,1005.682
0.153599739,0.0139995,0.1825299,-0.2820776,-0.01264259,-0.001113558,0.9961268,34.20924,5.509406,-21.86667,1005.682
0.156077385,-0.04723396,0.0615045,-0.1597527,-0.01117596,-0.001589416,0.9975644,34.52378,5.14603,-21.86134,1005.682
0.158554554,0.07523298,0.1825299,-0.03742781,-0.009247549,0.0008529299,0.996601,34.52378,5.14603,-21.86134,1005.682
0.161031723,-0.1084674,0.1825299,-0.1597527,-0.01361472,-0.002095956,0.994679,34.52378,5.14603,-21.86134,1005.682
0.163509369,-0.1084674,0.3035553,-0.09859026,-0.01459174,-0.001615237,0.9942043,34.52378,5.14603,-21.86134,1005.682
0.165987015,-0.04723396,0.0009917939,-0.09859026,-0.01266659,0.002291398,0.9946964,34.52378,5.14603,-21.86134,1005.682
0.168464661,-0.1084674,0.0615045,-0.03742781,-0.01166991,0.0003581082,0.9985425,34.52378,5.14603,-21.86134,1005.682
0.170941830,0.0139995,0.1825299,-0.1597527,-0.00776893,-0.002058723,0.9975434,34.52378,5.14603,-21.86134,1005.685
0.173418999,0.1364664,0.1825299,-0.2209152,-0.01266495,0.00229257,0.9951791,34.52378,5.14603,-21.86134,1005.685
0.175896645,0.0139995,0.1220172,-0.09859026,-0.01507041,-0.0006345306,0.9980733,34.52378,5.14603,-21.86134,1005.685
0.178373814,-0.04723396,0.1220172,-0.03742781,-0.01698956,-0.005025747,0.998544,34.52378,5.14603,-21.86134,1005.685
0.180850983,0.0139995,0.0615045,-0.09859026,-0.01361744,-0.001609032,0.9946815,34.52378,5.14603,-21.86134,1005.685
0.183329105,0.0139995,0.0009917939,-0.2820776,-0.01458902,-0.002102162,0.9942018,34.52378,5.14603,-21.86134,1005.685
0.185806274,-0.04723396,0.1825299,-0.09859026,-0.01460426,0.001797921,0.9961525,34.52378,5.14603,-21.86134,1005.685
0.188283443,0.0139995,0.0615045,-0.09859026,-0.01651304,-0.003563628,0.9980661,34.52378,5.14603,-21.86134,1005.685
0.190761089,0.1364664,0.1825299,-0.09859026,-0.01751353,-0.0006553174,0.9947078,34.52378,5.14603,-21.86134,1005.685
0.193238258,0.0139995,0.1220172,-0.1597527,-0.01703485,-0.0001693915,0.9932596,34.52378,5.14603,-21.86134,1005.685
0.195716381,-0.04723396,0.0009917939,-0.03742781,-0.01169123,0.000342875,0.9922677,34.52378,5.14603,-21.86134,1005.685
0.198193550,0.07523298,0.1825299,-0.03742781,-0.01654196,-0.0001621873,0.9951877,34.52378,5.14603,-21.86134,1005.685
0.200670719,0.1364664,0.1825299,-0.1597527,-0.01262403,-0.002078033,0.9999833,34.52378,5.14603,-21.86134,1005.685
0.203148365,0.07523298,0.3035553,-0.2209152,-0.01169885,0.002292917,0.993243,34.52378,5.14603,-21.86134,1005.685
0.205625534,-0.04723396,0.1220172,-0.09859026,-0.008285235,0.00329493,0.9975737,34.21417,5.13429,-22.30354,1005.685
0.208102703,-0.1697009,0.0615045,-0.2209152,-0.0160387,-0.001125317,0.9985588,34.21417,5.13429,-22.30354,1005.685
0.210579872,-0.04723396,0.364068,-0.03742781,-0.0126262,-0.00110184,1.000954,34.21417,5.13429,-22.30354,1005.684
0.213057518,0.07523298,0.1220172,0.02373465,-0.01168139,0.0003499058,0.9951637,34.21417,5.13429,-22.30354,1005.684
0.215535164,-0.04723396,0.1825299,-0.2820776,-0.009754106,0.0003470837,0.9898437,34.21417,5.13429,-22.30354,1005.684
0.218012810,-0.04723396,0.1825299,-0.1597527,-0.01557202,0.0003297708,0.995185,34.21417,5.13429,-22.30354,1005.684
0.220489979,-0.1084674,0.1220172,0.08489711,-0.01215952,0.0003532479,0.9975798,34.21417,5.13429,-22.30354,1005.684
0.222967148,0.0139995,0.0615045,0.02373465,-0.009267201,0.002305501,0.9932298,34.21417,5.13429,-22.30354,1005.684
0.225444794,0.1976999,0.0615045,-0.2209152,-0.01265188,-0.0006313203,0.9941987,34.21417,5.13429,-22.30354,1005.684
0.227921963,0.1364664,0.0009917939,-0.2820776,-0.01558128,0.00227864,0.9956776,34.21417,5.13429,-22.30354,1005.684
0.230399132,-0.1697009,0.0615045,-0.1597527,-0.01750644,-0.001627995,0.9951855,34.21417,5.13429,-22.30354,1005.684
0.232877255,-0.04723396,0.2430426,-0.09859026,-0.01458685,-0.003078354,0.9932312,34.21417,5.13429,-22.30354,1005.684
0.235354424,-0.04723396,0.1825299,-0.09859026,-0.01458518,-0.00161055,0.9961349,34.21417,5.13429,-22.30354,1005.684
0.237832069,0.07523298,0.1220172,-0.1597527,-0.01071416,0.002795421,0.9975844,34.21417,5.13429,-22.30354,1005.684
0.240309238,0.07523298,0.0009917939,-0.03742781,-0.008750895,-0.003048151,0.9931995,34.21417,5.13429,-22.30354,1005.684
0.242786408,0.1364664,0.1220172,0.02373465,-0.01411306,-0.001129311,0.9927561,34.21417,5.13429,-22.30354,1005.684
0.245263577,0.1976999,0.364068,-0.1597527,-0.01021533,-0.002081854,0.9932125,34.21417,5.13429,-22.30354,1005.684
0.247741222,0.07523298,0.1825299,-0.2820776,-0.01655341,0.001296243,0.99423,34.21417,5.13429,-22.30354,1005.684
0.252696514,0.0139995,0.2430426,0.02373465,-0.01115467,-0.003040816,1.001418,34.21417,5.13429,-22.30354,1005.683
0.252696514,0.0139995,0.2430426,0.02373465,-0.01115467,-0.003040816,1.001418,34.21417,5.13429,-22.30354,1005.683
0.255173683,0.1364664,0.3035553,-0.03742781,-0.01120977,0.003275141,0.9956588,33.83366,5.879334,-21.49174,1005.683
0.257650852,0.07523298,0.1220172,0.02373465,-0.01170157,0.002779841,0.9932455,33.83366,5.879334,-21.49174,1005.683
0.260128498,0.0139995,0.2430426,-0.2209152,-0.01361576,0.001325405,1.000006,33.83366,5.879334,-21.49174,1005.683
0.262605667,0.1364664,0.1825299,-0.2209152,-0.01117869,-0.001102492,0.9975669,33.83366,5.879334,-21.49174,1005.683
0.267560959,0.0139995,0.2430426,-0.09859026,-0.0107049,0.0008465514,0.9970916,33.83366,5.879334,-21.49174,1005.683
0.270038128,0.07523298,0.1825299,-0.2820776,-0.01020711,-0.0006093618,0.9980468,33.83366,5.879334,-21.49174,1005.683
0.272515297,0.07523298,0.1220172,-0.2209152,-0.01214102,-0.005011124,0.9941734,33.83366,5.879334,-21.49174,1005.683
0.274992943,0.07523298,0.0615045,-0.1597527,-0.01020494,-0.001585554,0.9970764,33.83366,5.879334,-21.49174,1005.683
0.277470112,0.07523298,0.364068,-0.1597527,-0.01264911,0.00181502,0.9990379,33.83366,5.879334,-21.49174,1005.683
0.279947281,0.07523298,0.3035553,-0.09859026,-0.009247526,0.002319562,0.9990219,33.83366,5.879334,-21.49174,1005.683
0.282425404,0.1364664,0.1220172,-0.1597527,-0.008749742,0.0008636496,0.9999772,33.83366,5.879334,-21.49174,1005.683
0.284902573,0.07523298,0.1220172,-0.1597527,-0.01509821,0.003745446,0.9971306,33.83366,5.879334,-21.49174,1005.683
0.287380219,-0.04723396,0.0615045,-0.09859026,-0.01701953,0.0003304225,0.9985716,33.83366,5.879334,-21.49174,1005.683
0.289857388,0.1364664,0.0615045,-0.2209152,-0.01163282,-0.004504106,1.001413,33.83366,5.879334,-21.49174,1005.683
0.292334557,0.1364664,0.1825299,-0.09859026,-0.01021259,-0.001102145,0.9956309,33.83366,5.879334,-21.49174,1005.682
0.294811726,0.07523298,0.1220172,0.02373465,-0.01168356,0.001326098,0.9961342,33.83366,5.879334,-21.49174,1005.682
0.297289848,0.0139995,0.1220172,0.02373465,-0.01604145,-0.002105026,0.9961404,33.83366,5.879334,-21.49174,1005.682
0.299767017,0.1976999,0.2430426,-0.09859026,-0.01266007,-0.0006371792,0.9917853,33.83366,5.879334,-21.49174,1005.682
0.302244663,0.07523298,0.1220172,-0.1597527,-0.01166776,-0.002084717,0.9951512,33.83366,5.879334,-21.49174,1005.682
0.304721832,-0.04723396,0.1220172,-0.3432401,-0.01604036,-0.002593122,0.9956551,33.83941,5.51264,-21.48526,1005.682
0.307199001,0.07523298,0.1825299,-0.03742781,-0.01412015,-0.0001566338,0.9922784,33.83941,5.51264,-21.48526,1005.682
0.309676647,0.1976999,0.0009917939,-0.09859026,-0.01409283,-0.0006259815,0.999516,33.83941,5.51264,-21.48526,1005.682
0.312153816,0.07523298,0.1220172,-0.1597527,-0.0131349,0.0008351388,0.9975876,33.83941,5.51264,-21.48526,1005.682
0.314631939,-0.1084674,0.0615045,-0.2209152,-0.01265786,0.001319893,0.9956567,33.83941,5.51264,-21.48526,1005.682
0.317109108,0.0139995,0.0009917939,-0.09859026,-0.01263763,0.001823222,1.002417,33.83941,5.51264,-21.48526,1005.682
0.319586277,-0.04723396,0.0009917939,0.08489711,-0.01215074,0.002315007,1.003382,33.83941,5.51264,-21.48526,1005.682
0.322063923,-0.1084674,0.1220172,-0.03742781,-0.01314202,0.0003411833,0.994689,33.83941,5.51264,-21.48526,1005.682
0.324541092,-0.1697009,0.3035553,-0.1597527,-0.01701739,-0.002112403,0.9951803,33.83941,5.51264,-21.48526,1005.682
0.327018261,0.0139995,0.1220172,0.02373465,-0.01314908,0.002780493,0.9966323,33.83941,5.51264,-21.48526,1005.682
0.329496384,0.07523298,0.1825299,-0.09859026,-0.01265405,0.000344872,0.995169,33.83941,5.51264,-21.48526,1005.682
0.331973553,-0.1084674,0.2430426,0.02373465,-0.01117107,-0.003052534,0.9965914,33.83941,5.51264,-21.48526,1005.681
0.334450722,0.07523298,0.1825299,-0.09859026,-0.01508514,0.0008215557,0.9961502,33.83941,5.51264,-21.48526,1005.681
0.336928368,0.07523298,0.1220172,-0.09859026,-0.01217044,0.0008343136,0.9951689,33.83941,5.51264,-21.48526,1005.681
0.339405537,0.07523298,0.0615045,-0.1597527,-0.0102006,-0.003537939,0.9951357,33.83941,5.51264,-21.48526,1005.681
0.341882706,0.0139995,0.1220172,-0.1597527,-0.009217017,-0.004013971,0.9975412,33.83941,5.51264,-21.48526,1005.681
0.344360352,0.2589334,0.0615045,-0.09859026,-0.01361855,-0.002587568,0.9927459,33.83941,5.51264,-21.48526,1005.681
0.346837998,0.07523298,0.1220172,-0.2820776,-0.01507154,-0.003079699,0.9937167,33.83941,5.51264,-21.48526,1005.681
0.349315643,-0.04723396,0.1220172,-0.2209152,-0.01313984,-0.0006350093,0.9937186,33.83941,5.51264,-21.48526,1005.681
0.351792812,0.1364664,0.0615045,-0.09859026,-0.01505844,-0.004536957,0.9951571,33.83941,5.51264,-21.48526,1005.681
0.354269981,0.1364664,0.1220172,-0.1597527,-0.01702117,0.0003292507,0.9980889,33.83941,5.51264,-21.48526,1005.681
0.356747151,0.0139995,0.4245807,-0.2209152,-0.01511135,0.002269439,0.9908482,33.47392,5.134745,-21.85741,1005.681
0.359224796,0.1976999,0.0615045,-0.1597527,-0.0102224,0.0003574565,0.9951558,33.47392,5.134745,-21.85741,1005.681
0.361702442,-0.04723396,0.1220172,-0.1597527,-0.008265074,-0.0006016379,0.9970708,33.47392,5.134745,-21.85741,1005.681
0.364180088,0.07523298,0.3035553,-0.2820776,-0.01313601,-0.0001433976,0.9956518,33.47392,5.134745,-21.85741,1005.681
0.366657257,0.1976999,0.0615045,-0.1597527,-0.01359454,-0.004525892,0.9965972,33.47392,5.134745,-21.85741,1005.681
0.369134426,0.1364664,0.1220172,-0.09859026,-0.01165631,-0.003543146,0.996109,33.47392,5.134745,-21.85741,1005.681
0.371612072,0.07523298,0.0615045,-0.2209152,-0.01554092,-0.00258123,0.9995139,33.47392,5.134745,-21.85741,1005.681
0.374089241,-0.04723396,-0.05952091,-0.09859026,-0.01020931,-0.001099802,0.9965962,33.47392,5.134745,-21.85741,1005.681
0.376566410,0.07523298,0.0009917939,-0.09859026,-0.01072344,0.003277658,0.9956562,33.47392,5.134745,-21.85741,1005.681
0.379044533,-0.1084674,0.1220172,-0.03742781,-0.01119885,0.002794076,0.9980697,33.47392,5.134745,-21.85741,1005.681
0.381521702,-0.1084674,0.1220172,-0.03742781,-0.01164811,-0.003537287,0.9985224,33.47392,5.134745,-21.85741,1005.681
0.383999348,0.07523298,0.0615045,-0.09859026,-0.01215516,-0.0001325049,0.9980599,33.47392,5.134745,-21.85741,1005.681
0.386476517,0.1364664,0.0615045,0.02373465,-0.01310327,-0.003053227,1.000463,33.47392,5.134745,-21.85741,1005.681
0.388953686,0.07523298,0.0009917939,-0.09859026,-0.01068363,-0.002071481,0.9985246,33.47392,5.134745,-21.85741,1005.681
0.391430855,0.0139995,0.1825299,-0.09859026,-0.01071312,-0.00062594,0.9922574,33.47392,5.134745,-21.85741,1005.681
0.393908978,0.07523298,0.1220172,-0.09859026,-0.01217538,-0.0006358344,0.9912999,33.47392,5.134745,-21.85741,1005.681
0.396386147,0.07523298,0.0009917939,-0.1597527,-0.009241544,0.0003683493,0.9975639,33.47392,5.134745,-21.85741,1005.681
0.398863793,0.0139995,0.0615045,-0.1597527,-0.01505242,-0.003554906,0.9985409,33.47392,5.134745,-21.85741,1005.681
0.401340962,-0.04723396,0.0615045,-0.09859026,-0.01361636,-0.002097128,0.9941965,33.47392,5.134745,-21.85741,1005.681
0.403818131,0.0139995,0.0615045,0.02373465,-0.00973607,0.0003599734,0.9951531,33.47392,5.134745,-21.85741,1005.681
0.406295776,0.0139995,-0.05952091,-0.09859026,-0.009720184,0.002815688,1.003854,34.52378,5.14603,-21.86134,1005.681
0.408772945,0.0139995,0.1825299,-0.03742781,-0.01263495,-0.001596967,0.9975724,34.52378,5.14603,-21.86134,1005.681
0.411251068,0.07523298,0.1220172,-0.03742781,-0.009698959,-0.003035608,1.000445,34.52378,5.14603,-21.86134,1005.682
0.413728237,0.07523298,0.1220172,-0.2820776,-0.01458191,-0.001608206,0.9971002,34.52378,5.14603,-21.86134,1005.682
0.416205406,-0.04723396,0.2430426,0.02373465,-0.01312562,0.0003529012,0.9995158,34.52378,5.14603,-21.86134,1005.682
0.418682575,0.0139995,0.1220172,-0.03742781,-0.0116994,0.001803649,0.9922752,34.52378,5.14603,-21.86134,1005.682
0.421160221,0.07523298,0.0615045,-0.2209152,-0.01362017,-0.001122107,0.994684,34.52378,5.14603,-21.86134,1005.682
0.423637390,0.0139995,0.2430426,-0.2209152,-0.008232927,-0.006934,0.9960728,34.52378,5.14603,-21.86134,1005.682
0.426114559,0.07523298,0.1825299,-0.03742781,-0.01167428,0.000843861,0.9980623,34.52378,5.14603,-21.86134,1005.682
0.428592682,0.07523298,0.0615045,-0.1597527,-0.007296782,-0.0001108516,0.9965854,34.52378,5.14603,-21.86134,1005.682
0.431069851,0.07523298,0.0615045,-0.2209152,-0.009235584,-0.003049497,0.9936848,34.52378,5.14603,-21.86134,1005.682
0.433547497,0.1976999,0.0615045,-0.1597527,-0.01457863,-0.001605863,0.9980656,34.52378,5.14603,-21.86134,1005.682
0.436024666,-0.04723396,0.0615045,-0.2209152,-0.01361467,0.0008373091,0.9995209,34.52378,5.14603,-21.86134,1005.682
0.438501835,-0.1084674,0.1220172,-0.2209152,-0.007783111,-0.0001133685,0.996588,34.52378,5.14603,-21.86134,1005.682
0.440979004,-0.04723396,0.1220172,-0.1597527,-0.007759071,-0.0005850596,1.00286,34.52378,5.14603,-21.86134,1005.682
0.443457127,0.1364664,0.1220172,-0.03742781,-0.01311474,-0.003061429,0.9970847,34.52378,5.14603,-21.86134,1005.682
0.445934296,0.07523298,0.1220172,-0.1597527,-0.0126213,-0.002564957,0.9999807,34.52378,5.14603,-21.86134,1005.682
0.448411942,0.07523298,0.0615045,-0.09859026,-0.01217476,0.004253331,0.9995306,34.52378,5.14603,-21.86134,1005.682
0.450889111,0.0139995,0.1220172,0.02373465,-0.01263823,-0.001599311,0.9966069,34.52378,5.14603,-21.86134,1005.682
0.453366280,0.0139995,0.364068,-0.09859026,-0.01165194,-0.0040289,0.9965891,34.52378,5.14603,-21.86134,1005.682
0.455843926,0.0139995,0.2430426,-0.2209152,-0.007763457,-0.001565939,0.9999593,33.84446,5.138728,-21.8588,1005.682
0.458321095,0.1976999,0.1220172,-0.1597527,-0.01265405,0.000344872,0.995169,33.84446,5.138728,-21.8588,1005.682
0.460799217,-0.04723396,0.2430426,-0.03742781,-0.01167539,-0.0001346751,0.9961266,33.84446,5.138728,-21.8588,1005.682
0.463276386,-0.04723396,0.1220172,-0.03742781,-0.01460971,0.002771771,0.9961576,33.84446,5.138728,-21.8588,1005.682
0.465753555,0.0139995,0.1220172,-0.09859026,-0.01408793,-0.002089099,0.9985431,33.84446,5.138728,-21.8588,1005.682
0.468231201,0.0139995,0.1825299,-0.09859026,-0.01167756,0.0008415176,0.9970969,33.84446,5.138728,-21.8588,1005.682
0.470708370,-0.04723396,0.1825299,-0.1597527,-0.00873503,-0.002059069,0.9994793,33.84446,5.138728,-21.8588,1005.682
0.473185539,-0.04723396,0.1825299,-0.03742781,-0.008243781,-0.002053037,1.000925,33.84446,5.138728,-21.8588,1005.682
0.475663662,0.2589334,0.0615045,0.02373465,-0.01260712,-0.004510311,1.000936,33.84446,5.138728,-21.8588,1005.682
0.478140831,0.1976999,0.1220172,-0.2209152,-0.01261911,-0.002074518,1.001431,33.84446,5.138728,-21.8588,1005.682
0.480618000,-0.1084674,0.1825299,-0.09859026,-0.01409232,-0.003069978,0.995642,33.84446,5.138728,-21.8588,1005.682
0.483095646,0.07523298,0.0615045,0.02373465,-0.01266495,0.00229257,0.9951791,33.84446,5.138728,-21.8588,1005.682
0.485572815,0.07523298,0.0615045,-0.03742781,-0.01360982,-0.003559073,0.9937062,33.84446,5.138728,-21.8588,1005.682
0.488049984,0.07523298,0.0615045,-0.09859026,-0.01021148,-0.0001236089,0.9975667,33.84446,5.138728,-21.8588,1005.682
0.490527630,0.07523298,0.0615045,-0.09859026,-0.01170481,0.005710763,0.997122,33.84446,5.138728,-21.8588,1005.682
0.493005276,0.0139995,0.1220172,-0.09859026,-0.01314749,-0.0001516,0.9922731,33.84446,5.138728,-21.8588,1005.683
0.495482922,0.07523298,0.0009917939,-0.1597527,-0.01312181,-0.0006221198,0.999028,33.84446,5.138728,-21.8588,1005.683
0.497960091,0.0139995,0.0615045,-0.09859026,-0.01263001,-0.0001268194,1.001441,33.84446,5.138728,-21.8588,1005.683
0.500437260,-0.04723396,0.1825299,0.02373465,-0.01119016,-0.001110694,0.9941882,33.84446,5.138728,-21.8588,1005.683
0.502914429,0.07523298,0.1825299,-0.1597527,-0.01654799,-0.001144239,0.991804,33.84446,5.138728,-21.8588,1005.683
0.505392552,0.07523298,0.2430426,-0.1597527,-0.0136153,-0.004051857,0.9912903,33.84446,5.138728,-21.8588,1005.683
0.507869721,0.0139995,0.3035553,-0.09859026,-0.01362892,-0.001617234,0.9913028,34.52295,5.13761,-22.3047,1005.683
0.510347366,-0.1084674,0.3035553,-0.03742781,-0.01609055,0.003726351,0.9913438,34.52295,5.13761,-22.3047,1005.683
0.512824535,-0.1084674,0.1825299,-0.09859026,-0.009228472,-0.002555542,0.9965834,34.52295,5.13761,-22.3047,1005.683
0.515301705,0.07523298,0.1220172,-0.03742781,-0.01163774,-0.004507621,0.9999654,34.52295,5.13761,-22.3047,1005.683
0.517779350,0.0139995,0.1220172,-0.1597527,-0.01506713,-0.0006321871,0.9990386,34.52295,5.13761,-22.3047,1005.683
0.520256519,0.1364664,0.1825299,-0.1597527,-0.009727895,-0.0011008,0.9951456,34.52295,5.13761,-22.3047,1005.683
0.522733688,0.07523298,0.1220172,-0.03742781,-0.009238219,0.003303958,1.003371,34.52295,5.13761,-22.3047,1005.683
0.525211811,0.1364664,0.1220172,-0.1597527,-0.01069402,-0.002567779,0.9946606,34.52295,5.13761,-22.3047,1005.683
0.527688980,0.07523298,0.2430426,-0.2209152,-0.01507204,-0.0006357022,0.9975907,34.52295,5.13761,-22.3047,1005.683
0.530166626,-0.04723396,0.1825299,-0.2209152,-0.0121579,-0.001112213,0.9956415,34.52295,5.13761,-22.3047,1005.683
0.532643795,-0.1697009,0.2430426,-0.2209152,-0.01218026,0.002293915,0.9946937,34.52295,5.13761,-22.3047,1005.684
0.535120964,0.0139995,0.1825299,-0.2209152,-0.009230621,-0.0001127161,0.9999748,34.52295,5.13761,-22.3047,1005.684
0.537598133,-0.1084674,0.2430426,-0.09859026,-0.01216174,-0.001603825,0.9937083,34.52295,5.13761,-22.3047,1005.684
0.540076256,-0.1084674,0.1825299,-0.1597527,-0.01358142,-0.004516517,1.000458,34.52295,5.13761,-22.3047,1005.684
0.545031071,0.0139995,-0.05952091,-0.09859026,-0.01263001,-0.0001268194,1.001441,34.52295,5.13761,-22.3047,1005.684
0.547508240,0.1364664,0.1220172,-0.03742781,-0.008738309,-0.002061413,0.998514,34.52295,5.13761,-22.3047,1005.684
0.549985409,0.1364664,0.1220172,-0.2209152,-0.01457537,-0.003070152,0.99661,34.52295,5.13761,-22.3047,1005.684
0.552463055,0.0139995,0.0615045,-0.2209152,-0.01407759,-0.004526065,0.9975652,34.52295,5.13761,-22.3047,1005.684
0.554940224,-0.04723396,0.0615045,-0.09859026,-0.01700318,-0.002591125,0.9985566,34.52295,5.13761,-22.3047,1005.684
0.557418347,0.0139995,0.0009917939,-0.09859026,-0.01263823,-0.001599311,0.9966069,33.46242,5.868135,-21.87037,1005.684
0.559895516,-0.04723396,0.0615045,-0.1597527,-0.01266222,0.001805646,0.9951766,33.46242,5.868135,-21.87037,1005.684
0.562372685,-0.04723396,0.1220172,-0.09859026,-0.00970277,-0.002060588,1.000933,33.46242,5.868135,-21.87037,1005.684
0.564849854,0.1364664,0.1825299,-0.2820776,-0.01117871,-0.002569124,0.995146,33.46242,5.868135,-21.87037,1005.684
0.567327500,0.07523298,0.1220172,-0.03742781,-0.01215026,-0.001595622,0.997087,33.46242,5.868135,-21.87037,1005.684
0.569804669,0.0139995,0.1220172,0.02373465,-0.01121247,0.005228698,0.9980823,33.46242,5.868135,-21.87037,1005.684
0.572281838,0.07523298,0.1825299,-0.03742781,-0.01213989,-0.002565956,0.99853,33.46242,5.868135,-21.87037,1005.682
0.574759960,-0.1084674,0.2430426,0.02373465,-0.01508244,-0.001132001,0.9937267,33.46242,5.868135,-21.87037,1005.682
0.577237129,0.07523298,0.1220172,-0.09859026,-0.01118746,-0.003064251,0.9917648,33.46242,5.868135,-21.87037,1005.682
0.579714775,0.0139995,0.1220172,-0.1597527,-0.01312511,-0.002091096,0.9956417,33.46242,5.868135,-21.87037,1005.682
0.582191944,0.0139995,0.1825299,-0.2209152,-0.01703812,-0.000171735,0.9922943,33.46242,5.868135,-21.87037,1005.682
0.584669113,0.0139995,0.0615045,-0.1597527,-0.01313878,-0.002589738,0.9908124,33.46242,5.868135,-21.87037,1005.682
0.587146282,0.0139995,-0.241059,-0.2209152,-0.01556875,0.0003321143,0.9961503,33.46242,5.868135,-21.87037,1005.682
0.589624405,-0.04723396,0.1825299,-0.1597527,-0.01120598,0.0008334884,0.9927502,33.46242,5.868135,-21.87037,1005.682
0.592101574,0.0139995,0.1825299,-0.09859026,-0.01266661,0.0008247659,0.9922755,33.46242,5.868135,-21.87037,1005.682
0.594579220,0.0139995,0.1220172,-0.09859026,-0.01215735,-0.0006229449,0.9966093,33.46242,5.868135,-21.87037,1005.682
0.597056389,0.0139995,0.1825299,-0.09859026,-0.01508022,0.0008250712,0.9975982,33.46242,5.868135,-21.87037,1005.682
0.599533558,0.0139995,0.2430426,-0.03742781,-0.01116834,-0.003539458,0.9965889,33.46242,5.868135,-21.87037,1005.682
0.602011204,-0.1697009,0.1825299,-0.09859026,-0.01406722,-0.005496399,0.9990081,33.46242,5.868135,-21.87037,1005.682
0.604488373,-0.1084674,-0.05952091,0.02373465,-0.01554203,-0.003559766,0.9975782,33.46242,5.868135,-21.87037,1005.682
0.606966496,0.1364664,0.0009917939,-0.1597527,-0.0101842,-0.003526221,0.9999624,34.2042,5.883317,-21.49313,1005.682
0.609443665,0.0139995,0.0615045,-0.09859026,-0.0102082,-0.0001212654,0.9985321,34.2042,5.883317,-21.49313,1005.682
0.611920834,0.0139995,0.0615045,-0.03742781,-0.01704027,0.00227109,0.9956856,34.2042,5.883317,-21.49313,1005.685
0.614398480,0.1364664,0.1825299,-0.03742781,-0.01604854,-0.001132348,0.9956627,34.2042,5.883317,-21.49313,1005.685
0.616875649,0.1364664,0.0615045,-0.09859026,-0.01556928,0.001309479,0.9976034,34.2042,5.883317,-21.49313,1005.685
0.619352818,-0.1084674,0.2430426,-0.03742781,-0.01021693,0.0008502401,0.9975717,34.2042,5.883317,-21.49313,1005.685
0.621830940,-0.2309344,0.0615045,-0.03742781,-0.01166393,-0.001593105,0.9970843,34.2042,5.883317,-21.49313,1005.685
0.624308109,-0.04723396,0.0009917939,-0.09859026,-0.01313929,-0.000145741,0.9946864,34.2042,5.883317,-21.49313,1005.685
0.626785278,-0.04723396,0.0615045,-0.09859026,-0.01510858,0.00471578,0.9956875,34.2042,5.883317,-21.49313,1005.685
0.629262924,-0.04723396,-0.1200336,-0.09859026,-0.01458241,0.0008357905,1.000974,34.2042,5.883317,-21.49313,1005.685
0.631740093,0.1364664,0.1825299,-0.1597527,-0.01165682,-0.00109915,0.999983,34.2042,5.883317,-21.49313,1005.685
0.634217262,0.0139995,0.1825299,-0.1597527,-0.01215024,-0.0001289893,0.9995079,34.2042,5.883317,-21.49313,1005.685
0.636695385,0.07523298,0.0615045,-0.1597527,-0.01313758,0.004255328,1.002432,34.2042,5.883317,-21.49313,1005.685
0.639172554,0.07523298,0.0009917939,-0.2209152,-0.01069072,-0.001098803,0.9980469,34.2042,5.883317,-21.49313,1005.685
0.641650200,-0.04723396,0.0009917939,-0.2209152,-0.01019293,-0.002554717,0.999002,34.2042,5.883317,-21.49313,1005.685
0.644127369,-0.04723396,0.1825299,-0.03742781,-0.008738863,-0.002550681,0.9975461,34.2042,5.883317,-21.49313,1005.685
0.646604538,0.0139995,0.0009917939,-0.09859026,-0.01165192,-0.002562267,0.99901,34.2042,5.883317,-21.49313,1005.685
0.649081707,0.0139995,0.1220172,-0.1597527,-0.01312349,-0.003556556,0.9937035,34.2042,5.883317,-21.49313,1005.685
0.651559353,-0.04723396,0.3035553,-0.1597527,-0.01069834,0.0008512383,0.9990222,34.2042,5.883317,-21.49313,1005.685
0.654036999,0.0139995,0.3035553,-0.09859026,-0.0121486,-0.0001278175,0.9999906,34.2042,5.883317,-21.49313,1005.687
0.656514645,-0.04723396,0.0009917939,-0.03742781,-0.008739373,-0.0001066842,1.00142,34.2042,5.883317,-21.49313,1005.687
0.658991814,0.1364664,0.1220172,0.02373465,-0.01164213,-0.0054885,0.9970642,34.20842,5.500986,-22.31002,1005.687
0.661468983,0.07523298,0.1825299,-0.09859026,-0.01215192,-0.003063426,0.9941835,34.20842,5.500986,-22.31002,1005.687
0.663946629,-0.04723396,0.0615045,-0.03742781,-0.01263878,-0.002088579,0.9956391,34.20842,5.500986,-22.31002,1005.687
0.666423798,0.1364664,0.0615045,-0.1597527,-0.01360872,-0.002580537,0.9956419,34.20842,5.500986,-22.31002,1005.687
0.668901920,0.0139995,0.2430426,-0.1597527,-0.01313439,-0.001608858,0.9937136,34.20842,5.500986,-22.31002,1005.687
0.671379090,-0.04723396,0.0009917939,-0.1597527,-0.01122182,0.001311038,0.9888913,34.20842,5.500986,-22.31002,1005.687
0.673856259,0.0139995,0.0009917939,-0.1597527,-0.01072242,-0.001610335,0.9879082,34.20842,5.500986,-22.31002,1005.687
0.676333904,0.0139995,0.2430426,-0.1597527,-0.01457641,0.0003512097,1.001937,34.20842,5.500986,-22.31002,1005.687
0.678811073,0.0139995,0.0009917939,-0.1597527,-0.01411685,0.001312342,0.9956647,34.20842,5.500986,-22.31002,1005.687
0.681288242,0.1364664,0.1220172,-0.09859026,-0.01800697,-0.001151789,0.9918119,34.20842,5.500986,-22.31002,1005.687
0.683765412,0.2589334,0.1825299,-0.1597527,-0.01166668,-0.002572813,0.9946659,34.20842,5.500986,-22.31002,1005.687
0.686243534,0.07523298,0.1825299,-0.03742781,-0.009222977,-0.0005961256,1.00142,34.20842,5.500986,-22.31002,1005.687
0.688720703,0.1364664,0.1825299,-0.1597527,-0.01750755,-0.002606531,0.9932497,34.20842,5.500986,-22.31002,1005.687
0.691198349,0.0139995,0.1825299,-0.09859026,-0.01411634,-0.001131654,0.9917908,34.20842,5.500986,-22.31002,1005.687
0.693675518,-0.04723396,0.1825299,-0.09859026,-0.01266934,0.00131169,0.992278,34.20842,5.500986,-22.31002,1005.688
0.696152687,0.07523298,0.1220172,-0.03742781,-0.01360428,0.001333608,1.003385,34.20842,5.500986,-22.31002,1005.688
0.698630333,0.0139995,0.1825299,-0.03742781,-0.01020332,-0.003051015,0.9951382,34.20842,5.500986,-22.31002,1005.688
0.701107979,0.07523298,0.1220172,-0.3432401,-0.009232837,-0.002069789,0.9961033,34.20842,5.500986,-22.31002,1005.688
0.703585625,0.1364664,0.1220172,-0.03742781,-0.01604528,-0.002596637,0.9942072,34.20842,5.500986,-22.31002,1005.688
0.706062794,0.1364664,0.0009917939,-0.03742781,-0.01557258,-0.0001594969,0.9942172,34.20842,5.500986,-22.31002,1005.688
0.708539963,0.07523298,-0.05952091,-0.1597527,-0.01409719,-0.000140229,0.9990358,34.20924,5.509406,-21.86667,1005.688
0.711017132,-0.04723396,0.0009917939,-0.09859026,-0.01315506,0.004731706,0.9980903,34.20924,5.509406,-21.86667,1005.688
0.713494778,-0.04723396,0.1220172,-0.03742781,-0.0121519,-0.001596794,0.9966043,34.20924,5.509406,-21.86667,1005.688
0.715971947,-0.1084674,0.0615045,-0.03742781,-0.008739927,-0.0005959522,1.000452,34.20924,5.509406,-21.86667,1005.688
0.718450070,0.07523298,0.0615045,0.02373465,-0.01217097,0.001811678,0.9966219,34.20924,5.509406,-21.86667,1005.688
0.720927239,0.1364664,0.0009917939,-0.09859026,-0.01265677,0.0008317967,0.9951715,34.20924,5.509406,-21.86667,1005.688
0.723404408,0.0139995,0.0615045,-0.1597527,-0.01361253,-0.001605516,0.9961296,34.20924,5.509406,-21.86667,1005.688
0.725882054,0.1976999,0.1825299,-0.1597527,-0.01118201,-0.0040381,0.9917598,34.20924,5.509406,-21.86667,1005.688
0.728359223,0.07523298,0.1825299,-0.03742781,-0.01215467,-0.004043134,0.9917651,34.20924,5.509406,-21.86667,1005.688
0.730836392,0.1364664,0.1220172,-0.09859026,-0.0170272,-0.0006528005,0.9947051,34.20924,5.509406,-21.86667,1005.688
0.733314514,-0.04723396,0.3035553,-0.09859026,-0.01409447,-0.0006271536,0.9990333,34.20924,5.509406,-21.86667,1005.687
0.735791683,-0.1084674,0.1220172,-0.2820776,-0.008240502,-0.002050694,1.00189,34.20924,5.509406,-21.86667,1005.687
0.738268852,-0.1084674,0.0009917939,-0.2209152,-0.01312617,-0.0001363668,0.9985479,34.20924,5.509406,-21.86667,1005.687
0.740746498,0.0139995,0.0009917939,-0.03742781,-0.009236071,0.0008611328,0.9999798,34.20924,5.509406,-21.86667,1005.687
0.743223667,0.07523298,0.1825299,-0.09859026,-0.0111858,-0.001596447,0.9946683,34.20924,5.509406,-21.86667,1005.687
0.745700836,0.07523298,0.2430426,-0.2209152,-0.01409179,-0.004047343,0.9941891,34.20924,5.509406,-21.86667,1005.687
0.748178482,0.07523298,0.1825299,-0.1597527,-0.01504588,-0.005016851,0.9980506,34.20924,5.509406,-21.86667,1005.687
0.750656128,0.07523298,0.3035553,-0.2209152,-0.01117273,-0.004520338,0.9936879,34.20924,5.509406,-21.86667,1005.687
0.753133774,0.0139995,0.1220172,-0.1597527,-0.01214047,-0.004521856,0.9951413,34.20924,5.509406,-21.86667,1005.687
0.755610943,-0.04723396,0.1825299,-0.09859026,-0.01413322,0.002767257,0.9932588,34.20924,5.509406,-21.86667,1005.687
0.758088112,-0.1084674,0.1825299,-0.1597527,-0.01313601,-0.0001433976,0.9956518,34.215,5.14271,-21.86019,1005.687
0.760565758,-0.04723396,0.1825299,-0.2209152,-0.01312345,-0.0006232914,0.9985454,34.215,5.14271,-21.86019,1005.687
0.763042927,-0.04723396,0.1220172,-0.09859026,-0.01603762,-0.001613414,0.9980735,34.215,5.14271,-21.86019,1005.687
0.765521050,0.1364664,0.0615045,-0.09859026,-0.01119996,0.00181554,0.996134,34.215,5.14271,-21.86019,1005.687
0.767998219,0.1976999,0.1220172,-0.1597527,-0.01313162,0.0008374823,0.998553,34.215,5.14271,-21.86019,1005.687
0.770475388,-0.1084674,0.1220172,-0.09859026,-0.01460098,0.001800265,0.9971178,34.215,5.14271,-21.86019,1005.687
0.772952557,0.1364664,0.1220172,-0.2209152,-0.0146032,-0.000156807,0.9932464,34.215,5.14271,-21.86019,1005.687
0.775430203,0.07523298,0.1220172,-0.3432401,-0.01360435,-0.00306629,0.9961221,34.215,5.14271,-21.86019,1005.687
0.777907372,0.07523298,-0.05952091,-0.09859026,-0.01458244,-0.0006308418,0.9985533,34.215,5.14271,-21.86019,1005.687
0.780385494,0.0139995,0.0009917939,-0.09859026,-0.01117541,-0.001100148,0.9985323,34.215,5.14271,-21.86019,1005.687
0.782862663,0.07523298,0.0009917939,-0.03742781,-0.01311197,-0.0006150887,1.001924,34.215,5.14271,-21.86019,1005.687
0.785339832,0.07523298,0.1825299,0.02373465,-0.009231706,0.0003753798,1.00046,34.215,5.14271,-21.86019,1005.687
0.787817478,0.07523298,0.2430426,-0.09859026,-0.009239927,-0.001097111,0.9956256,34.215,5.14271,-21.86019,1005.687
0.790294647,0.0139995,0.0615045,-0.1597527,-0.01017822,-0.005477435,0.9985043,34.215,5.14271,-21.86019,1005.687
0.792771816,-0.1084674,0.0615045,-0.1597527,-0.01069564,-0.001102319,0.9965989,34.215,5.14271,-21.86019,1005.687
0.795248985,0.07523298,0.1825299,-0.1597527,-0.01067979,-0.001579869,1.000458,34.215,5.14271,-21.86019,1005.687
0.797727108,0.07523298,0.1825299,-0.1597527,-0.01361417,-0.001606688,0.9956469,34.215,5.14271,-21.86019,1005.687
0.800204277,0.0139995,0.1220172,-0.2209152,-0.01506823,-0.001610723,0.9971029,34.215,5.14271,-21.86019,1005.687
0.802681923,-0.04723396,0.0615045,-0.2209152,-0.00919845,-0.004978446,1.001397,34.215,5.14271,-21.86019,1005.687
0.805159092,0.0139995,0.0615045,-0.2209152,-0.005844905,-0.000597256,0.9936789,34.215,5.14271,-21.86019,1005.687
0.807636261,-0.04723396,0.1825299,-0.03742781,-0.01412066,0.002287363,0.9961524,34.215,5.14271,-21.86019,1005.687
0.810113907,0.1364664,0.0009917939,-0.1597527,-0.01264589,-0.002582534,0.9927406,33.83788,5.497003,-22.30863,1005.687
0.812591553,-0.04723396,0.0615045,-0.03742781,-0.0174906,-0.002105545,0.9990442,33.83788,5.497003,-22.30863,1005.686
0.817546368,0.07523298,0.0009917939,-0.2820776,-0.01169665,0.002783357,0.9946936,33.83788,5.497003,-22.30863,1005.686
0.820023537,0.07523298,0.1825299,-0.1597527,-0.01702228,-0.0006492853,0.9961532,33.83788,5.497003,-22.30863,1005.686
0.822501183,0.0139995,0.0615045,-0.09859026,-0.01652505,-0.002594467,0.9961405,33.83788,5.497003,-22.30863,1005.686
0.824978352,0.1976999,0.0009917939,-0.09859026,-0.01216391,-0.0006276318,0.9946786,33.83788,5.497003,-22.30863,1005.686
0.827455521,0.0139995,0.0615045,-0.2209152,-0.01119668,0.001817883,0.9970993,33.83788,5.497003,-22.30863,1005.686
0.829933644,-0.04723396,0.1220172,-0.1597527,-0.01460862,0.002283674,0.9956723,33.83788,5.497003,-22.30863,1005.686
0.832410813,0.0139995,0.0009917939,-0.03742781,-0.009724617,-0.001098457,0.996111,33.83788,5.497003,-22.30863,1005.686
0.834887982,0.0139995,0.1220172,0.08489711,-0.01117541,-0.001100148,0.9985323,33.83788,5.497003,-22.30863,1005.686
0.837365627,-0.1084674,0.1825299,-0.03742781,-0.01505784,-0.001114424,1.000967,33.83788,5.497003,-22.30863,1005.686
0.839842797,0.07523298,0.1220172,-0.09859026,-0.01704355,0.002268746,0.9947202,33.83788,5.497003,-22.30863,1005.686
0.842319966,0.0139995,0.0615045,-0.03742781,-0.01556221,-0.001129831,0.99566,33.83788,5.497003,-22.30863,1005.686
0.844798088,-0.2309344,0.0615045,-0.09859026,-0.0136098,-0.002092441,0.9961271,33.83788,5.497003,-22.30863,1005.686
0.847275257,0.07523298,0.1825299,-0.1597527,-0.01408957,-0.002090271,0.9980604,33.83788,5.497003,-22.30863,1005.686
0.849752903,0.1364664,0.1825299,-0.2209152,-0.01506937,-0.004055892,0.9927462,33.83788,5.497003,-22.30863,1005.686
0.852230072,0.07523298,0.1220172,-0.09859026,-0.01458789,0.000343007,0.9985584,33.83788,5.497003,-22.30863,1005.686
0.854707241,-0.1084674,0.0615045,0.08489711,-0.01510315,0.002275298,0.9932616,33.83788,5.497003,-22.30863,1005.683
0.857184410,-0.1084674,0.1825299,-0.1597527,-0.01018587,-0.004994026,0.9970588,33.83788,5.497003,-22.30863,1005.683
0.859662533,-0.04723396,0.0009917939,-0.09859026,-0.01263167,-0.001594624,0.9985377,33.0968,5.489037,-22.30585,1005.683
0.862139702,0.0139995,-0.05952091,-0.09859026,-0.01215402,0.002312664,1.002417,33.0968,5.489037,-22.30585,1005.683
0.864617348,0.1364664,0.1825299,-0.03742781,-0.01168906,-0.0006333175,0.9912973,33.0968,5.489037,-22.30585,1005.683
0.867094517,0.1976999,0.1825299,-0.03742781,-0.01363324,0.001801783,0.9956645,33.0968,5.489037,-22.30585,1005.683
0.869571686,0.0139995,0.1220172,-0.03742781,-0.01022949,0.001330134,0.9946781,33.0968,5.489037,-22.30585,1005.683
0.872049332,-0.04723396,-0.1200336,-0.09859026,-0.008747017,0.0003767251,0.9999747,33.0968,5.489037,-22.30585,1005.683
0.874526501,-0.04723396,0.0615045,-0.2820776,-0.01359613,-0.001593798,1.000956,33.0968,5.489037,-22.30585,1005.683
0.877004624,0.07523298,0.1220172,-0.03742781,-0.0126437,-0.002092094,0.9941912,33.0968,5.489037,-22.30585,1005.683
0.879481793,0.0139995,0.1825299,-0.03742781,-0.01264747,0.001816192,0.9995207,33.0968,5.489037,-22.30585,1005.683
0.881958962,0.07523298,0.1825299,-0.2209152,-0.01556821,-0.0006452498,0.9946972,33.0968,5.489037,-22.30585,1005.683
0.884436131,0.1976999,0.0615045,-0.2209152,-0.0131398,0.002298256,0.9985605,33.0968,5.489037,-22.30585,1005.683
0.886913777,0.1364664,0.1825299,-0.09859026,-0.01311197,-0.0006150887,1.001924,33.0968,5.489037,-22.30585,1005.683
0.889390946,0.0139995,0.2430426,-0.03742781,-0.01554473,-0.001606209,1.000002,33.0968,5.489037,-22.30585,1005.683
0.891869068,0.07523298,0.0615045,-0.09859026,-0.01215843,-0.0001348483,0.9970945,33.0968,5.489037,-22.30585,1005.683
0.894346237,0.07523298,0.1825299,-0.09859026,-0.01118631,0.0008475498,0.9985424,33.0968,5.489037,-22.30585,1005.683
0.896823406,0.0139995,0.2430426,-0.09859026,-0.01264532,-0.0006266334,0.9961294,33.0968,5.489037,-22.30585,1005.683
0.899301052,0.07523298,0.0009917939,-0.2209152,-0.01505237,-0.0006216408,1.003383,33.0968,5.489037,-22.30585,1005.683
0.901778221,0.1976999,0.1220172,-0.2820776,-0.01752228,-0.001150445,0.9913266,33.0968,5.489037,-22.30585,1005.683
0.904255390,0.07523298,0.2430426,-0.03742781,-0.01215139,-0.004040791,0.9927304,33.0968,5.489037,-22.30585,1005.683
0.906733036,0.1976999,0.1220172,0.02373465,-0.01507752,-0.001128486,0.9951748,33.0968,5.489037,-22.30585,1005.683
0.909210682,-0.04723396,0.0615045,-0.2820776,-0.01312726,0.0003517291,0.999033,34.20267,5.86768,-22.3165,1005.683
0.911688328,0.0139995,0.1220172,-0.2209152,-0.009234476,-0.002070961,0.9956205,34.20267,5.86768,-22.3165,1005.683
0.914165497,0.07523298,0.1825299,-0.2209152,-0.01993811,-0.003107211,0.9927778,34.20267,5.86768,-22.3165,1005.683
0.916642666,0.07523298,0.0615045,-0.1597527,-0.01456883,-0.004532097,0.9961199,34.20267,5.86768,-22.3165,1005.683
0.919119835,0.07523298,0.0009917939,-0.2209152,-0.01120982,0.0003418764,0.990817,34.20267,5.86768,-22.3165,1005.683
0.921597481,-0.04723396,0.0615045,-0.2209152,-0.01608456,0.001775138,0.9898857,34.20267,5.86768,-22.3165,1005.683
0.924075127,-0.1084674,0.1220172,-0.03742781,-0.01556817,0.002288015,0.9995391,34.20267,5.86768,-22.3165,1005.683
0.926552773,0.0139995,0.1825299,0.02373465,-0.01800422,-0.0001720814,0.9942304,34.20267,5.86768,-22.3165,1005.683
0.929029942,0.07523298,0.1825299,-0.1597527,-0.01506389,-0.003563108,0.9951622,34.20267,5.86768,-22.3165,1005.683
0.931507111,0.1364664,0.0615045,-0.1597527,-0.008285258,0.001828298,0.9951528,34.20267,5.86768,-22.3165,1005.683
0.933984757,0.0139995,0.1220172,-0.03742781,-0.009261196,0.00182092,0.9941928,34.20267,5.86768,-22.3165,1005.686
0.936461926,-0.04723396,0.1825299,-0.1597527,-0.01652503,-0.001127834,0.9985614,34.20267,5.86768,-22.3165,1005.686
0.938939095,0.0139995,0.1220172,-0.1597527,-0.01458135,-0.001118938,0.9980681,34.20267,5.86768,-22.3165,1005.686
0.941417217,-0.1084674,0.1825299,-0.2209152,-0.01262349,-0.003055397,0.9985302,34.20267,5.86768,-22.3165,1005.686
0.943894387,0.0139995,0.0615045,-0.09859026,-0.01119342,0.0003535943,0.9956437,34.20267,5.86768,-22.3165,1005.686
0.946371556,0.07523298,0.1220172,0.02373465,-0.01216774,-0.001119243,0.9927455,34.20267,5.86768,-22.3165,1005.686
0.948849201,0.1364664,0.1825299,-0.03742781,-0.01118855,-0.002576155,0.9922499,34.20267,5.86768,-22.3165,1005.686
0.951326370,-0.04723396,0.0615045,-0.03742781,-0.01069942,0.001339335,0.9995075,34.20267,5.86768,-22.3165,1005.686
0.953803539,0.0139995,-0.05952091,-0.03742781,-0.003864116,-0.003983942,0.9984775,34.20267,5.86768,-22.3165,1005.686
0.956281662,-0.1084674,0.0615045,-0.09859026,-0.009722423,-0.0006080165,0.9975615,34.20267,5.86768,-22.3165,1005.686
0.958758831,-0.04723396,0.1220172,-0.09859026,-0.01314038,0.0003423551,0.9951717,34.20267,5.86768,-22.3165,1005.686
0.961236477,0.07523298,0.2430426,0.02373465,-0.01313603,-0.00161003,0.9932309,34.20842,5.500986,-22.31002,1005.686
0.963713646,0.1976999,0.0009917939,-0.09859026,-0.008275466,-0.001097937,0.9932069,34.20842,5.500986,-22.31002,1005.686
0.966190815,0.1364664,0.1220172,-0.03742781,-0.01021859,-0.0006175642,0.994668,34.20842,5.500986,-22.31002,1005.686
0.968668461,-0.1084674,0.1220172,0.02373465,-0.01166342,-0.004037102,0.9932103,34.20842,5.500986,-22.31002,1005.686
0.971146107,-0.04723396,0.1220172,-0.1597527,-0.0140705,-0.005498742,0.9980428,34.20842,5.500986,-22.31002,1005.686
0.973623276,0.0139995,0.2430426,-0.3432401,-0.01797968,-0.00308777,0.9966286,34.20842,5.500986,-22.31002,1005.686
0.976100922,-0.1084674,0.2430426,-0.09859026,-0.01313165,-0.0006291503,0.996132,34.20842,5.500986,-22.31002,1005.686
0.978578091,0.07523298,0.0615045,-0.03742781,-0.01362834,0.0003386664,0.9946916,34.20842,5.500986,-22.31002,1005.686
0.981055260,0.07523298,0.1220172,-0.09859026,-0.01166012,-0.002568126,0.9965966,34.20842,5.500986,-22.31002,1005.686
0.983532906,-0.04723396,0.364068,-0.2820776,-0.009727342,-0.000611532,0.9961135,34.20842,5.500986,-22.31002,1005.686
0.986010075,-0.1697009,0.0009917939,-0.1597527,-0.01263003,-0.001593452,0.9990203,34.20842,5.500986,-22.31002,1005.686
0.988488197,-0.04723396,-0.05952091,-0.03742781,-0.01117979,-0.002081028,0.9956312,34.20842,5.500986,-22.31002,1005.686
0.990965366,0.1976999,0.0615045,-0.2209152,-0.01264148,-0.0001350217,0.9980626,34.20842,5.500986,-22.31002,1005.686
0.993442535,0.0139995,0.1220172,-0.09859026,-0.01261477,-0.004026902,0.9994904,34.20842,5.500986,-22.31002,1005.686
0.995920181,0.07523298,0.4245807,-0.03742781,-0.0140814,-0.003551044,0.9980529,34.20842,5.500986,-22.31002,1005.686
0.998397350,0.1364664,0.1825299,-0.2209152,-0.0150786,-0.0006403895,0.9956599,34.20842,5.500986,-22.31002,1005.686
1.000874519,0.1364664,0.0615045,-0.1597527,-0.0131262,-0.001602999,0.996127,34.20842,5.500986,-22.31002,1005.686
1.003352642,-0.1084674,0.1220172,-0.03742781,-0.01118033,-0.001103664,0.9970842,34.20842,5.500986,-22.31002,1005.686
1.005829811,-0.04723396,0.1825299,-0.03742781,-0.01216065,-0.002091921,0.9932231,34.20842,5.500986,-22.31002,1005.686
1.008306980,0.0139995,0.1825299,-0.09859026,-0.01799279,-0.003097144,0.9927672,34.20842,5.500986,-22.31002,1005.686
1.010784626,-0.04723396,0.0009917939,-0.2209152,-0.01213555,-0.004518341,0.9965892,33.83788,5.497003,-22.30863,1005.686
1.013261795,-0.04723396,0.1825299,-0.09859026,-0.01121741,0.003758551,0.9942134,33.83788,5.497003,-22.30863,1005.683
1.015738964,-0.04723396,0.0615045,-0.09859026,-0.01651958,-0.002101684,0.9985564,33.83788,5.497003,-22.30863,1005.683
1.018217087,0.07523298,0.1220172,-0.2209152,-0.01844691,-0.005032126,0.9990345,33.83788,5.497003,-22.30863,1005.683
1.020694256,0.07523298,0.1825299,0.02373465,-0.01069945,-0.0001272976,0.9970866,33.83788,5.497003,-22.30863,1005.683
1.023171902,0.1976999,0.1825299,-0.1597527,-0.01509276,0.002771597,0.9971255,33.83788,5.497003,-22.30863,1005.683
1.025649071,0.07523298,0.0615045,-0.09859026,-0.01411248,0.0008265895,0.9961449,33.83788,5.497003,-22.30863,1005.683
1.028126240,-0.04723396,0.1220172,-0.09859026,-0.01165573,-0.001587246,0.9994977,33.83788,5.497003,-22.30863,1005.683
1.030603409,0.0139995,0.0615045,-0.03742781,-0.01262731,-0.002080377,0.9990178,33.83788,5.497003,-22.30863,1005.683
1.033081055,-0.04723396,0.1220172,-0.09859026,-0.01263818,0.001333954,1.001449,33.83788,5.497003,-22.30863,1005.683
1.035558701,-0.04723396,0.1825299,0.02373465,-0.01072127,0.002301466,0.9946858,33.83788,5.497003,-22.30863,1005.683
1.038036346,0.07523298,0.1825299,-0.03742781,-0.01362453,-0.0006363541,0.994204,33.83788,5.497003,-22.30863,1005.683
1.040513515,0.07523298,0.2430426,-0.2209152,-0.01363107,0.0008255912,0.9946941,33.83788,5.497003,-22.30863,1005.683
1.042990685,0.07523298,0.2430426,-0.1597527,-0.01215245,-0.002086062,0.9956365,33.83788,5.497003,-22.30863,1005.683
1.045468330,-0.1084674,0.1220172,0.02373465,-0.01409449,-0.002093786,0.9966124,33.83788,5.497003,-22.30863,1005.683
1.047945499,0.07523298,0.3035553,-0.1597527,-0.01072016,0.003280002,0.9966215,33.83788,5.497003,-22.30863,1005.683
1.052900791,-0.04723396,0.0009917939,-0.09859026,-0.01263497,-0.003063599,0.9951515,33.83788,5.497003,-22.30863,1005.683
1.052900791,-0.04723396,0.0009917939,-0.09859026,-0.01263497,-0.003063599,0.9951515,33.83788,5.497003,-22.30863,1005.683
1.055377960,0.1364664,0.0009917939,-0.3432401,-0.01412726,-0.0006505889,0.9893799,33.83788,5.497003,-22.30863,1005.686
1.057855606,-0.04723396,0.0615045,-0.03742781,-0.01266167,0.002294914,0.9961445,33.83788,5.497003,-22.30863,1005.686
1.060332775,0.1364664,0.1220172,-0.09859026,-0.01309567,-0.006469901,0.9970672,33.83213,5.863698,-22.31511,1005.686
1.062809944,0.0139995,0.1220172,-0.09859026,-0.008751426,-0.002070787,0.9946525,33.83213,5.863698,-22.31511,1005.686
1.065288067,0.07523298,0.1220172,-0.03742781,-0.01311798,-0.0001305079,1.000961,33.83213,5.863698,-22.31511,1005.686
1.067765236,0.0139995,0.0615045,-0.03742781,-0.01605611,0.003750958,1.00148,33.83213,5.863698,-22.31511,1005.686
1.070242405,-0.1084674,0.0615045,-0.1597527,-0.0106918,-0.0006107069,0.9985322,33.83213,5.863698,-22.31511,1005.686
1.072720051,0.0139995,-0.1200336,-0.2209152,-0.01702448,-0.001139725,0.9947026,33.83213,5.863698,-22.31511,1005.686
1.075197220,0.0139995,0.1220172,-0.1597527,-0.01119016,-0.001110694,0.9941882,33.83213,5.863698,-22.31511,1005.686
1.077674389,0.07523298,0.1825299,-0.03742781,-0.008741034,-0.001574488,0.9985166,33.83213,5.863698,-22.31511,1005.686
1.080152035,0.1976999,0.2430426,-0.09859026,-0.01020277,-0.002561747,0.9961061,33.83213,5.863698,-22.31511,1005.686
1.082629681,0.1976999,0.2430426,-0.1597527,-0.01557092,0.001308307,0.9971206,33.83213,5.863698,-22.31511,1005.686
1.085107327,-0.1084674,0.1825299,-0.2209152,-0.01362507,0.0003410098,0.995657,33.83213,5.863698,-22.31511,1005.686
1.090061665,0.0139995,0.3035553,0.02373465,-0.01071418,0.001328789,0.9951635,33.83213,5.863698,-22.31511,1005.686
1.092538834,0.0139995,0.1825299,-0.03742781,-0.01266058,0.001806817,0.9956592,33.83213,5.863698,-22.31511,1005.686
1.095016480,-0.1084674,0.1220172,-0.09859026,-0.01070434,0.001335819,0.9980595,33.83213,5.863698,-22.31511,1005.682
1.097494125,-0.04723396,0.0615045,-0.1597527,-0.01264638,0.001328095,0.9990354,33.83213,5.863698,-22.31511,1005.682
1.099971771,0.07523298,0.0615045,-0.09859026,-0.01117979,-0.002081028,0.9956312,33.83213,5.863698,-22.31511,1005.682
1.102448940,0.1364664,0.2430426,-0.1597527,-0.009707712,-0.003530735,0.9970637,33.83213,5.863698,-22.31511,1005.682
1.104926109,-0.04723396,0.1220172,-0.09859026,-0.01461084,0.0003266023,0.991801,33.83213,5.863698,-22.31511,1005.682
1.107404232,0.0139995,0.1220172,-0.09859026,-0.01462174,0.0022743,0.991811,33.83213,5.863698,-22.31511,1005.682
1.109880924,0.07523298,0.1825299,-0.2820776,-0.01558131,0.000812008,0.9932567,34.20267,5.86768,-22.3165,1005.682
1.112359047,0.0139995,0.0615045,-0.2820776,-0.01460264,0.0003324612,0.9942144,34.20267,5.86768,-22.3165,1005.682
1.114836216,-0.1084674,0.1220172,-0.1597527,-0.0077902,0.000859309,0.9961104,34.20267,5.86768,-22.3165,1005.682
1.117313385,0.0139995,0.0615045,-0.09859026,-0.01021693,0.0008502401,0.9975717,34.20267,5.86768,-22.3165,1005.682
1.119790554,0.0139995,0.1825299,-0.09859026,-0.01505842,-0.003070325,0.9975781,34.20267,5.86768,-22.3165,1005.682
1.122268200,-0.1697009,0.1825299,-0.09859026,-0.01020875,-0.0006105334,0.9975641,34.20267,5.86768,-22.3165,1005.682
1.124745369,-0.1697009,0.0009917939,-0.2820776,-0.01264151,-0.001601654,0.9956416,34.20267,5.86768,-22.3165,1005.682
1.127222538,0.07523298,0.1825299,-0.2820776,-0.008267844,-0.003047978,0.9922315,34.20267,5.86768,-22.3165,1005.682
1.129700661,-0.1084674,0.0615045,-0.09859026,-0.01311802,-0.003063773,0.9961194,34.20267,5.86768,-22.3165,1005.682
1.132177830,-0.1697009,0.0615045,-0.09859026,-0.01215899,-0.0006241165,0.9961267,34.20267,5.86768,-22.3165,1005.682
1.134655476,0.07523298,0.1825299,-0.1597527,-0.01122723,0.005218152,0.9937382,34.20267,5.86768,-22.3165,1005.683
1.137132645,0.07523298,0.2430426,-0.1597527,-0.01507914,0.0003369749,0.9971129,34.20267,5.86768,-22.3165,1005.683
1.139609814,0.0139995,-0.05952091,-0.03742781,-0.01165194,-0.0040289,0.9965891,34.20267,5.86768,-22.3165,1005.683
1.142087460,0.0139995,0.0009917939,-0.09859026,-0.01458685,-0.003078354,0.9932312,34.20267,5.86768,-22.3165,1005.683
1.144565105,0.07523298,0.2430426,-0.1597527,-0.0146032,-0.000156807,0.9932464,34.20267,5.86768,-22.3165,1005.683
1.147042751,-0.04723396,0.2430426,-0.09859026,-0.01505188,-0.00453227,0.9970878,34.20267,5.86768,-22.3165,1005.683
1.149519920,-0.04723396,-0.05952091,-0.1597527,-0.01215245,-0.002086062,0.9956365,34.20267,5.86768,-22.3165,1005.683
1.151997089,0.0139995,0.1220172,-0.2209152,-0.01360922,-0.00013654,0.9995159,34.20267,5.86768,-22.3165,1005.683
1.154474258,0.0139995,0.364068,-0.2209152,-0.009218589,0.0003847543,1.004321,34.20267,5.86768,-22.3165,1005.683
1.156951904,0.0139995,0.1825299,-0.03742781,-0.01508244,-0.001132001,0.9937267,34.20267,5.86768,-22.3165,1005.683
1.159429550,-0.1084674,0.1220172,-0.03742781,-0.01216555,-0.0006288034,0.9941961,34.20267,5.86768,-22.3165,1005.683
1.161907196,-0.1697009,0.0009917939,-0.09859026,-0.01509064,-0.00113786,0.9913133,34.19621,6.227158,-22.703,1005.683
1.164384365,-0.04723396,0.3035553,-0.2820776,-0.01604198,-0.001127661,0.9975935,34.19621,6.227158,-22.703,1005.683
1.166861534,-0.04723396,0.4245807,-0.03742781,-0.01261206,-0.005980459,0.997067,34.19621,6.227158,-22.703,1005.683
1.169339180,-0.04723396,0.0615045,-0.1597527,-0.01116562,-0.004026383,0.9965864,34.19621,6.227158,-22.703,1005.683
1.171816349,-0.1084674,-0.05952091,-0.09859026,-0.01114647,-0.003034957,1.003832,34.19621,6.227158,-22.703,1005.683
1.174293518,-0.04723396,0.1825299,-0.2820776,-0.01360054,-0.00404131,0.9956343,34.19621,6.227158,-22.703,1005.678
1.176771641,0.0139995,0.1220172,-0.03742781,-0.01406881,-0.002564305,1.003367,34.19621,6.227158,-22.703,1005.678
1.179248810,-0.04723396,0.1220172,-0.03742781,-0.0145868,-0.0001450891,0.9980732,34.19621,6.227158,-22.703,1005.678
1.181725979,0.0139995,0.1220172,-0.03742781,-0.01607094,-0.0006594846,0.9898731,34.19621,6.227158,-22.703,1005.678
1.184203625,0.0139995,0.2430426,0.02373465,-0.01118797,-0.0006202545,0.9956387,34.19621,6.227158,-22.703,1005.678
1.186680794,0.0139995,0.364068,-0.03742781,-0.01215626,-0.001111041,0.9961242,34.19621,6.227158,-22.703,1005.678
1.189157963,0.07523298,0.1220172,-0.1597527,-0.01264968,-0.0001408807,0.9956492,34.19621,6.227158,-22.703,1005.678
1.191636086,-0.04723396,0.0615045,-0.09859026,-0.01312345,-0.0006232914,0.9985454,34.19621,6.227158,-22.703,1005.678
1.194113255,-0.1084674,0.2430426,-0.1597527,-0.01266497,0.0008259377,0.9927582,34.19621,6.227158,-22.703,1005.678
1.196590900,0.0139995,0.1825299,-0.09859026,-0.01462449,0.001294592,0.9893926,34.19621,6.227158,-22.703,1005.678
1.199068070,0.07523298,0.2430426,-0.09859026,-0.01457703,-0.004537956,0.9937065,34.19621,6.227158,-22.703,1005.678
1.201545239,-0.04723396,0.3035553,-0.09859026,-0.01555343,0.0008319283,1.001462,34.19621,6.227158,-22.703,1005.678
1.204022884,-0.04723396,0.2430426,-0.03742781,-0.01507475,0.001317855,1.000014,34.19621,6.227158,-22.703,1005.678
1.206500530,0.0139995,0.1220172,-0.2820776,-0.01265516,-0.0006336642,0.9932333,34.19621,6.227158,-22.703,1005.678
1.208978176,0.0139995,0.364068,-0.2209152,-0.01068963,-0.001586899,0.9975618,34.19621,6.227158,-22.703,1005.678
1.211455345,0.07523298,0.2430426,-0.1597527,-0.0145917,0.001318028,0.999046,34.20267,5.86768,-22.3165,1005.678
1.213932514,0.0139995,-0.05952091,-0.1597527,-0.01116832,-0.002072826,0.9990098,34.20267,5.86768,-22.3165,1005.678
1.216409683,-0.04723396,0.0615045,-0.03742781,-0.01021097,-0.002567606,0.9936927,34.20267,5.86768,-22.3165,1005.678
1.218887329,-0.04723396,0.1825299,-0.03742781,-0.009732792,0.0003623168,0.9961185,34.20267,5.86768,-22.3165,1005.678
1.221364975,0.0139995,0.1825299,-0.2209152,-0.01506662,-0.003076184,0.9951647,34.20267,5.86768,-22.3165,1005.678
1.223842621,0.1364664,0.0615045,-0.2209152,-0.01213661,-0.002563612,0.9994953,34.20267,5.86768,-22.3165,1005.678
1.226319790,0.0139995,0.1220172,-0.1597527,-0.01165957,-0.002078858,0.9975646,34.20267,5.86768,-22.3165,1005.678
1.228796959,-0.2309344,0.1220172,-0.09859026,-0.01119233,-0.0001345016,0.9951586,34.20267,5.86768,-22.3165,1005.678
1.231274605,0.0139995,0.1220172,-0.09859026,-0.01021095,-0.001100973,0.9961136,34.20267,5.86768,-22.3165,1005.678
1.233751774,0.0139995,0.3035553,-0.1597527,-0.01217592,0.00034153,0.992753,34.20267,5.86768,-22.3165,1005.678
1.236228943,-0.04723396,0.1825299,-0.2209152,-0.01506278,-0.002584572,0.9970978,34.20267,5.86768,-22.3165,1005.678
1.238707066,0.0139995,0.0615045,-0.03742781,-0.01508463,-0.001622441,0.9922761,34.20267,5.86768,-22.3165,1005.678
1.241184235,0.0139995,0.3035553,0.02373465,-0.01119233,-0.0001345016,0.9951586,34.20267,5.86768,-22.3165,1005.678
1.243661404,-0.1084674,0.1220172,-0.09859026,-0.01361962,-0.000632839,0.995652,34.20267,5.86768,-22.3165,1005.678
1.246139050,-0.1084674,0.3035553,-0.3432401,-0.01459283,-0.001127141,0.9946893,34.20267,5.86768,-22.3165,1005.678
1.248616219,0.0139995,0.2430426,-0.09859026,-0.01312892,-0.001116075,0.9961295,34.20267,5.86768,-22.3165,1005.678
1.251093388,0.0139995,0.1220172,-0.1597527,-0.01121196,0.002784702,0.9942084,34.20267,5.86768,-22.3165,1005.678
1.253571510,-0.04723396,0.364068,-0.1597527,-0.0136316,0.001802955,0.9961473,34.20267,5.86768,-22.3165,1005.678
1.256048679,-0.1084674,0.1825299,0.02373465,-0.01359782,-0.004528235,0.9956318,34.20267,5.86768,-22.3165,1005.679
1.258526325,0.0139995,0.2430426,-0.2209152,-0.01554364,-0.002094306,0.9995164,34.20267,5.86768,-22.3165,1005.679
1.261003494,0.0139995,0.3035553,-0.2820776,-0.01606487,0.003255832,0.9980987,33.8306,5.848061,-23.13848,1005.679
1.263480663,0.07523298,0.2430426,-0.09859026,-0.01215522,-0.004532402,0.9907971,33.8306,5.848061,-23.13848,1005.679
1.265957832,-0.1084674,0.3035553,-0.09859026,-0.0106924,-0.00403324,0.9927224,33.8306,5.848061,-23.13848,1005.679
1.268435478,0.0139995,0.1825299,-0.03742781,-0.01313107,0.00132675,0.9995208,33.8306,5.848061,-23.13848,1005.679
1.270913124,0.0139995,0.1825299,-0.2820776,-0.01167375,-0.0001335035,0.9966092,33.8306,5.848061,-23.13848,1005.679
1.273390770,-0.04723396,0.1825299,-0.2820776,-0.01603979,-0.0006372209,0.9990439,33.8306,5.848061,-23.13848,1005.679
1.275867939,0.07523298,0.1825299,-0.1597527,-0.009714823,-0.00402469,0.9941652,33.8306,5.848061,-23.13848,1005.679
1.278345108,0.07523298,0.1220172,0.02373465,-0.009725703,-0.0006103604,0.9965961,33.8306,5.848061,-23.13848,1005.679
1.280822754,0.07523298,-0.05952091,-0.09859026,-0.01410756,0.000830105,0.9975929,33.8306,5.848061,-23.13848,1005.679
1.283299923,0.1364664,0.1825299,-0.1597527,-0.01507207,-0.002102335,0.9951697,33.8306,5.848061,-23.13848,1005.679
1.285778046,-0.04723396,0.1825299,-0.1597527,-0.01409666,-0.001117593,0.9975829,33.8306,5.848061,-23.13848,1005.679
1.288255215,-0.1084674,0.1220172,-0.09859026,-0.01457916,-0.0006284982,0.9995186,33.8306,5.848061,-23.13848,1005.679
1.290732384,0.07523298,0.0615045,-0.09859026,-0.01604143,-0.0006383925,0.9985613,33.8306,5.848061,-23.13848,1005.679
1.293210030,0.0139995,0.1220172,-0.1597527,-0.0136234,0.001808814,0.9985607,33.8306,5.848061,-23.13848,1005.679
1.295687199,0.0139995,0.1220172,-0.1597527,-0.007766714,-0.0001016506,1.001415,33.8306,5.848061,-23.13848,1005.681
1.298164368,-0.1084674,0.1220172,-0.03742781,-0.008747593,-0.001579176,0.9965858,33.8306,5.848061,-23.13848,1005.681
1.300642490,0.07523298,0.0009917939,-0.03742781,-0.01312569,-0.004046996,0.992253,33.8306,5.848061,-23.13848,1005.681
1.303119659,0.07523298,0.1220172,-0.09859026,-0.008755215,0.0003708662,0.9975613,33.8306,5.848061,-23.13848,1005.681
1.305596829,-0.1084674,0.0009917939,-0.03742781,-0.01310218,-0.003541323,0.9999784,33.8306,5.848061,-23.13848,1005.681
1.308074474,-0.1084674,0.0009917939,-0.03742781,-0.01117924,-0.00159176,0.996599,33.8306,5.848061,-23.13848,1005.681
1.310551643,-0.1697009,0.1825299,-0.09859026,-0.01316114,0.0008163902,0.9898648,33.8306,5.848061,-23.13848,1005.681
1.313028812,-0.04723396,0.1825299,-0.2209152,-0.01362562,-0.0001482579,0.9946891,34.51074,5.863782,-22.69768,1005.681
1.315506935,0.0139995,0.1825299,-0.2209152,-0.01313326,0.0008363104,0.9980702,34.51074,5.863782,-22.69768,1005.681
1.317984104,-0.04723396,0.0009917939,-0.09859026,-0.01265841,0.0008306248,0.9946888,34.51074,5.863782,-22.69768,1005.681
1.320461750,0.07523298,0.1220172,-0.2209152,-0.01458572,-0.0006331853,0.997588,34.51074,5.863782,-22.69768,1005.681
1.322938919,0.1364664,0.3035553,-0.1597527,-0.01554692,-0.00209665,0.9985511,34.51074,5.863782,-22.69768,1005.681
1.325416088,0.2589334,0.1220172,0.02373465,-0.01456114,-0.002082241,1.002407,34.51074,5.863782,-22.69768,1005.681
1.327893257,0.0139995,-0.1805463,-0.03742781,-0.0121704,0.003767578,1.000011,34.51074,5.863782,-22.69768,1005.681
1.330370903,0.0139995,-0.05952091,-0.03742781,-0.0135989,-0.004040139,0.9961171,34.51074,5.863782,-22.69768,1005.681
1.332848549,0.1364664,0.1220172,-0.03742781,-0.01265848,-0.003569272,0.987426,34.51074,5.863782,-22.69768,1005.681
1.335326195,0.2589334,0.2430426,-0.2209152,-0.01264208,-0.003557554,0.9922528,34.51074,5.863782,-22.69768,1005.678
1.337803364,-0.04723396,0.1220172,-0.1597527,-0.01117049,-0.001096633,0.9999803,34.51074,5.863782,-22.69768,1005.678
1.340280533,0.07523298,0.1825299,-0.1597527,-0.01508731,0.001797748,0.9971205,34.51074,5.863782,-22.69768,1005.678
1.342758179,0.07523298,0.1825299,-0.09859026,-0.01751187,0.0008124869,0.9976115,34.51074,5.863782,-22.69768,1005.678
1.345235348,0.07523298,0.0615045,-0.1597527,-0.01313544,0.001812503,0.9990405,34.51074,5.863782,-22.69768,1005.678
1.347713471,0.0139995,0.2430426,-0.1597527,-0.01360763,-0.003068633,0.9951568,34.51074,5.863782,-22.69768,1005.678
1.350190640,0.1364664,0.1825299,-0.03742781,-0.01364088,0.002285193,0.9942191,34.51074,5.863782,-22.69768,1005.678
1.352667809,0.0139995,0.0615045,-0.03742781,-0.01359888,-0.002573506,0.998538,34.51074,5.863782,-22.69768,1005.678
1.355145454,0.0139995,0.0009917939,-0.09859026,-0.01454807,-0.005006132,1.001427,34.51074,5.863782,-22.69768,1005.678
1.357622624,0.0139995,0.0009917939,-0.1597527,-0.01313927,0.001320891,0.9971074,34.51074,5.863782,-22.69768,1005.678
1.360099793,-0.04723396,0.1220172,-0.09859026,-0.01508518,-0.00211171,0.9913083,34.51074,5.863782,-22.69768,1005.678
1.362577915,0.07523298,-0.05952091,-0.1597527,-0.01358904,-0.002566476,1.001434,33.83131,5.855278,-22.75847,1005.678
1.367532253,0.0139995,0.0615045,-0.1597527,-0.01556983,0.0008202104,0.9966354,33.83131,5.855278,-22.75847,1005.678
1.370009899,-0.1084674,0.1220172,-0.2820776,-0.01359999,-0.003552042,0.9966022,33.83131,5.855278,-22.75847,1005.678
1.372487068,-0.1697009,0.1220172,-0.2209152,-0.009750827,0.0003494271,0.990809,33.83131,5.855278,-22.75847,1005.678
1.374964237,0.07523298,0.1220172,-0.2209152,-0.008296181,0.002309363,0.9927419,33.83131,5.855278,-22.75847,1005.677
1.377442360,0.0139995,0.0009917939,-0.03742781,-0.01363599,0.0008220756,0.9932461,33.83131,5.855278,-22.75847,1005.677
1.379919529,0.0139995,0.1220172,-0.1597527,-0.01656489,0.00128804,0.9908511,33.83131,5.855278,-22.75847,1005.677
1.382397175,-0.1084674,0.1825299,-0.1597527,-0.01509763,0.005701347,1.000519,33.83131,5.855278,-22.75847,1005.677
1.384874344,0.0139995,0.1825299,-0.1597527,-0.01164208,-0.002555236,1.001906,33.83131,5.855278,-22.75847,1005.677
1.387351513,-0.04723396,-0.1200336,-0.09859026,-0.0106951,-0.002079683,0.9951459,33.83131,5.855278,-22.75847,1005.677
1.389828682,0.0139995,-0.05952091,-0.1597527,-0.01364419,0.0008162167,0.9908327,33.83131,5.855278,-22.75847,1005.677
1.392306328,0.3201669,0.1825299,-0.2209152,-0.01556493,-0.0006429064,0.9956625,33.83131,5.855278,-22.75847,1005.677
1.394783974,0.0139995,0.3035553,-0.03742781,-0.01166284,-0.002081202,0.9965991,33.83131,5.855278,-22.75847,1005.677
1.397261620,0.0139995,0.1220172,-0.1597527,-0.01554256,-0.002582402,0.9990311,33.83131,5.855278,-22.75847,1005.677
1.399738789,-0.04723396,0.0009917939,-0.03742781,-0.01169446,0.003273796,0.9961442,33.83131,5.855278,-22.75847,1005.677
1.402215958,-0.1084674,0.0615045,-0.09859026,-0.01069674,-0.002080855,0.9946631,33.83131,5.855278,-22.75847,1005.677
1.404693604,-0.04723396,0.1825299,-0.09859026,-0.01312287,0.001332609,1.001934,33.83131,5.855278,-22.75847,1005.677
1.407170773,0.1364664,0.1220172,-0.09859026,-0.01165793,-0.002077686,0.9980472,33.83131,5.855278,-22.75847,1005.677
1.409648895,-0.1084674,0.1220172,-0.1597527,-0.01266936,-0.000154942,0.9898571,33.83131,5.855278,-22.75847,1005.677
1.412126064,-0.04723396,0.1825299,-0.09859026,-0.01263876,-0.0006219463,0.99806,34.56592,6.222723,-23.14774,1005.677
1.414603233,0.0139995,0.1220172,-0.1597527,-0.01412666,0.002771944,0.9951895,34.56592,6.222723,-23.14774,1005.679
1.417080402,0.0139995,0.0615045,-0.2209152,-0.01362123,0.0008326219,0.9975902,34.56592,6.222723,-23.14774,1005.679
1.419558048,0.07523298,0.1825299,-0.09859026,-0.01022785,0.001331306,0.9951608,34.56592,6.222723,-23.14774,1005.679
1.422035217,-0.04723396,0.1825299,-0.2820776,-0.0126595,0.001318721,0.9951741,34.56592,6.222723,-23.14774,1005.679
1.424513340,0.0139995,0.0615045,-0.1597527,-0.0112267,0.004240788,0.9922851,34.56592,6.222723,-23.14774,1005.679
1.426990509,0.0139995,0.0615045,-0.09859026,-0.01166176,-0.002569298,0.996114,34.56592,6.222723,-23.14774,1005.679
1.429467678,0.07523298,0.0615045,-0.2209152,-0.01214862,-0.00159445,0.9975697,34.56592,6.222723,-23.14774,1005.679
1.431945324,-0.04723396,0.2430426,-0.09859026,-0.01118906,-0.0001321582,0.996124,34.56592,6.222723,-23.14774,1005.679
1.434422493,-0.2309344,0.3035553,-0.2209152,-0.01265188,-0.0006313203,0.9941987,34.56592,6.222723,-23.14774,1005.679
1.436899662,-0.1084674,0.0009917939,-0.2209152,-0.01214319,-0.004034932,0.9951438,34.56592,6.222723,-23.14774,1005.679
1.439377785,-0.04723396,0.0009917939,-0.2209152,-0.01605621,-0.002115571,0.9917963,34.56592,6.222723,-23.14774,1005.679
1.441854954,0.07523298,0.0615045,-0.09859026,-0.01748841,-0.001615105,1.000495,34.56592,6.222723,-23.14774,1005.679
1.444332600,0.07523298,0.1825299,-0.09859026,-0.009712053,-0.001578351,0.9990044,34.56592,6.222723,-23.14774,1005.679
1.446809769,0.1364664,0.0009917939,-0.1597527,-0.01557366,0.000328599,0.9947022,34.56592,6.222723,-23.14774,1005.679
1.449286938,0.1364664,-0.05952091,-0.2820776,-0.01459717,0.0008252442,0.9966301,34.56592,6.222723,-23.14774,1005.679
1.451764107,0.07523298,0.1220172,-0.2209152,-0.01119504,0.001819055,0.997582,34.56592,6.222723,-23.14774,1005.679
1.454242230,-0.1084674,0.0009917939,-0.2820776,-0.009720273,-0.003050841,0.9941702,34.56592,6.222723,-23.14774,1005.679
1.456719399,0.0139995,0.0615045,-0.2820776,-0.01071203,-0.001114036,0.9917722,34.56592,6.222723,-23.14774,1005.676
1.459197044,-0.04723396,-0.05952091,-0.1597527,-0.01360271,-0.003065118,0.9966047,34.56592,6.222723,-23.14774,1005.676
1.461674214,0.0139995,0.0615045,-0.1597527,-0.01213825,-0.002564784,0.9990126,34.56592,6.222723,-23.14774,1005.676
1.464151383,-0.04723396,0.1825299,-0.03742781,-0.01602344,-0.003558768,0.9990288,34.57895,5.504969,-22.31141,1005.676
1.466629028,0.07523298,0.1825299,-0.2209152,-0.01751247,-0.002610046,0.9918017,34.57895,5.504969,-22.31141,1005.676
1.469106197,0.0139995,0.1825299,-0.2209152,-0.01167324,-0.0025775,0.9927353,34.57895,5.504969,-22.31141,1005.676
1.471584320,-0.1697009,0.0009917939,-0.03742781,-0.01411521,0.001313514,0.9961474,34.57895,5.504969,-22.31141,1005.676
1.474061489,-0.04723396,0.0009917939,0.02373465,-0.01216224,0.0008401725,0.9975823,34.57895,5.504969,-22.31141,1005.676
1.476538658,0.0139995,0.1220172,-0.09859026,-0.01166666,-0.00110618,0.9970869,34.57895,5.504969,-22.31141,1005.676
1.479015827,0.0139995,0.0615045,-0.1597527,-0.01311199,-0.002081722,0.9995031,34.57895,5.504969,-22.31141,1005.676
1.481493473,0.1364664,-0.1200336,-0.2209152,-0.01501965,-0.004998103,1.005774,34.57895,5.504969,-22.31141,1005.676
1.483970642,-0.1084674,0.0009917939,-0.2209152,-0.01116776,-0.001583557,0.9999778,34.57895,5.504969,-22.31141,1005.676
1.486448765,-0.1697009,-0.05952091,-0.03742781,-0.0101858,-0.0005941284,1.004322,34.57895,5.504969,-22.31141,1005.676
1.488925934,0.0139995,0.0615045,-0.09859026,-0.01459498,0.001315684,0.9980807,34.57895,5.504969,-22.31141,1005.676
1.491403103,0.07523298,0.1825299,0.02373465,-0.01267312,0.003753344,0.9951867,34.57895,5.504969,-22.31141,1005.676
1.493880749,-0.1084674,0.0615045,-0.1597527,-0.01265292,0.002790041,0.9995257,34.57895,5.504969,-22.31141,1005.676
1.496357918,0.0139995,0.1825299,-0.2820776,-0.0102164,-0.0001271244,0.9961187,34.57895,5.504969,-22.31141,1005.678
1.498835087,0.0139995,0.1220172,-0.09859026,-0.01410973,0.001806297,0.9985633,34.57895,5.504969,-22.31141,1005.678
1.501313210,0.07523298,0.2430426,-0.03742781,-0.01073381,0.004247992,0.9942133,34.57895,5.504969,-22.31141,1005.678
1.503790379,0.0139995,0.1825299,-0.03742781,-0.0116934,0.001319068,0.993238,34.57895,5.504969,-22.31141,1005.678
1.506267548,0.07523298,0.0615045,-0.2209152,-0.01070875,-0.001111693,0.9927375,34.57895,5.504969,-22.31141,1005.678
1.508745194,0.1976999,0.1220172,-0.1597527,-0.01363329,-0.001131481,0.9908226,34.57895,5.504969,-22.31141,1005.678
1.511222363,-0.04723396,0.0009917939,-0.1597527,-0.01406445,-0.003050058,1.003847,34.57895,5.504969,-22.31141,1005.678
1.513699532,-0.1697009,0.0615045,-0.09859026,-0.009696234,-0.003522533,1.000442,34.5732,5.871664,-22.31789,1005.678
1.516177654,0.07523298,0.1220172,-0.1597527,-0.01166719,-0.0001288161,0.99854,34.5732,5.871664,-22.31789,1005.678
1.518654823,0.07523298,0.1825299,0.02373465,-0.0126295,-0.002570816,0.9975674,34.5732,5.871664,-22.31789,1005.678
1.521132469,0.0139995,0.1825299,-0.09859026,-0.01407431,-0.004523721,0.9985306,34.5732,5.871664,-22.31789,1005.678
1.523609638,0.07523298,0.2430426,-0.4044026,-0.0165163,-0.00209934,0.9995217,34.5732,5.871664,-22.31789,1005.678
1.526086807,0.0139995,0.1825299,-0.1597527,-0.01406121,-0.005980979,0.9999711,34.5732,5.871664,-22.31789,1005.678
1.528564453,0.1364664,0.0009917939,-0.09859026,-0.01458299,-0.00112011,0.9975855,34.5732,5.871664,-22.31789,1005.678
1.531041622,0.1364664,0.0009917939,-0.03742781,-0.01362393,0.002786179,1.000014,34.5732,5.871664,-22.31789,1005.678
1.533519745,0.0139995,0.1220172,0.08489711,-0.01265074,0.001813848,0.9985554,34.5732,5.871664,-22.31789,1005.678
1.535996914,0.1976999,0.3035553,-0.03742781,-0.008745953,-0.001578004,0.9970685,34.5732,5.871664,-22.31789,1005.68
1.538474083,0.1364664,0.0615045,0.02373465,-0.01019349,-0.003043984,0.9980342,34.5732,5.871664,-22.31789,1005.68
1.540951252,0.07523298,0.1220172,0.02373465,-0.009727342,-0.000611532,0.9961135,34.5732,5.871664,-22.31789,1005.68
1.543428898,0.2589334,0.0009917939,-0.1597527,-0.009205563,-0.005472401,0.998499,34.5732,5.871664,-22.31789,1005.68
1.545906067,0.07523298,0.1825299,-0.03742781,-0.01117215,-0.002564437,0.9970766,34.5732,5.871664,-22.31789,1005.68
1.548384190,0.07523298,0.1220172,-0.03742781,-0.009721315,0.0003705195,0.9994972,34.5732,5.871664,-22.31789,1005.68
1.550861359,0.1364664,-0.05952091,-0.1597527,-0.01602339,-0.0006255028,1.003871,34.5732,5.871664,-22.31789,1005.68
1.553338528,0.1364664,-0.1805463,-0.03742781,-0.01072069,0.004257366,0.9980746,34.5732,5.871664,-22.31789,1005.68
1.555816174,0.07523298,0.0009917939,0.08489711,-0.01604907,-0.0001549833,0.9971157,34.5732,5.871664,-22.31789,1005.68
1.558293343,0.07523298,0.1220172,-0.09859026,-0.01411962,-0.001133998,0.9908253,34.5732,5.871664,-22.31789,1005.68
1.560770512,0.1976999,0.0615045,-0.2820776,-0.01459611,-0.001129484,0.993724,34.5732,5.871664,-22.31789,1005.68
1.563248634,0.1364664,0.0615045,-0.1597527,-0.01263218,0.0008493735,1.002412,33.83717,5.489786,-22.68865,1005.68
1.565725804,0.2589334,0.0009917939,-0.09859026,-0.01071037,0.0003537678,0.9946757,33.83717,5.489786,-22.68865,1005.68
1.568202973,0.1976999,0.0615045,-0.09859026,-0.01361744,-0.001609032,0.9946815,33.83717,5.489786,-22.68865,1005.68
1.570680618,0.2589334,0.1220172,-0.2209152,-0.01602452,-0.003070672,0.999514,33.83717,5.489786,-22.68865,1005.68
1.573157787,0.2589334,0.0009917939,-0.03742781,-0.01313112,-0.001606515,0.9946789,33.83717,5.489786,-22.68865,1005.68
1.575634956,0.2589334,0.1825299,-0.09859026,-0.01169393,0.002296432,0.9946911,33.83717,5.489786,-22.68865,1005.679
1.578113079,0.2589334,-0.05952091,-0.1597527,-0.01165028,-0.002561095,0.9994927,33.83717,5.489786,-22.68865,1005.679
1.580590248,0.1976999,0.0009917939,-0.09859026,-0.0155856,0.005697658,1.000039,33.83717,5.489786,-22.68865,1005.679
1.583067894,0.1976999,0.3035553,0.08489711,-0.01458569,0.0008334471,1.000009,33.83717,5.489786,-22.68865,1005.679
1.585545063,0.2589334,0.1825299,0.02373465,-0.01654304,0.0003259087,0.9956729,33.83717,5.489786,-22.68865,1005.679
1.588022232,0.3814003,0.0615045,-0.1597527,-0.01216169,0.00132944,0.9985502,33.83717,5.489786,-22.68865,1005.679
1.590499878,0.2589334,0.1825299,-0.1597527,-0.01360435,-0.00306629,0.9961221,33.83717,5.489786,-22.68865,1005.679
1.592977524,0.2589334,0.3035553,-0.09859026,-0.01312837,-0.0006268066,0.9970973,33.83717,5.489786,-22.68865,1005.679
1.595455170,0.2589334,0.0615045,-0.03742781,-0.01358248,-0.002561789,1.003365,33.83717,5.489786,-22.68865,1005.679
1.597932339,0.1976999,-0.1805463,0.02373465,-0.01163721,-0.005484985,0.9985123,33.83717,5.489786,-22.68865,1005.679
1.600409508,0.1976999,-0.1805463,-0.2209152,-0.01556223,-0.002596464,0.993239,33.83717,5.489786,-22.68865,1005.679
1.602886677,0.3201669,0.1220172,-0.03742781,-0.01413107,0.0003244316,0.9898675,33.83717,5.489786,-22.68865,1005.679
1.605364323,0.1976999,0.1220172,0.02373465,-0.01122455,0.001797963,0.9888938,33.83717,5.489786,-22.68865,1005.679
1.607841492,0.07523298,-0.05952091,0.02373465,-0.01025138,-0.000641,0.9850145,33.83717,5.489786,-22.68865,1005.679
1.610319615,0.1976999,-0.05952091,-0.09859026,-0.01561627,0.001764765,0.9845736,33.83717,5.489786,-22.68865,1005.679
1.612796784,0.3201669,0.1220172,-0.1597527,-0.01220589,0.0056977,0.9927807,33.83717,5.489786,-22.68865,1005.679
1.615273953,0.1364664,0.0615045,-0.2209152,-0.01269391,0.002760746,0.9874588,34.20771,5.493768,-22.69004,1005.679
1.617751599,-0.04723396,0.0009917939,-0.09859026,-0.01510154,0.0008098378,0.9913234,34.20771,5.493768,-22.69004,1005.681
1.620228768,0.0139995,0.0615045,-0.03742781,-0.01312241,-0.004044653,0.9932183,34.20771,5.493768,-22.69004,1005.681
1.622705937,0.07523298,0.1220172,-0.1597527,-0.009220805,-0.001572318,1.00045,34.20771,5.493768,-22.69004,1005.681
1.625184059,0.1364664,0.0009917939,-0.1597527,-0.01312456,-0.001601828,0.9966096,34.20771,5.493768,-22.69004,1005.681
1.627661228,0.1364664,0.1825299,-0.09859026,-0.01359396,-0.002569991,0.9999861,34.20771,5.493768,-22.69004,1005.681
1.630138397,0.0139995,0.364068,-0.09859026,-0.01506925,0.00327727,1.004851,34.20771,5.493768,-22.69004,1005.681
1.632616043,0.0139995,0.1825299,-0.09859026,-0.01508128,0.0027798,1.000504,34.20771,5.493768,-22.69004,1005.681
1.635093212,-0.04723396,0.0009917939,-0.03742781,-0.01314744,0.002781665,0.997115,34.20771,5.493768,-22.69004,1005.681
1.640048504,0.0139995,-0.05952091,-0.2209152,-0.01267753,0.001305831,0.9898646,34.20771,5.493768,-22.69004,1005.681
1.642525673,-0.04723396,0.0009917939,-0.1597527,-0.01459015,-0.00454733,0.989845,34.20771,5.493768,-22.69004,1005.681
1.645003319,0.0139995,0.0615045,-0.09859026,-0.01507207,-0.002102335,0.9951697,34.20771,5.493768,-22.69004,1005.681
1.647480488,0.0139995,0.1220172,0.02373465,-0.01556059,-0.002595292,0.9937218,34.20771,5.493768,-22.69004,1005.681
1.649957657,0.0139995,0.2430426,-0.2209152,-0.01412123,0.0003314624,0.9927636,34.20771,5.493768,-22.69004,1005.681
1.652434826,-0.04723396,0.0615045,-0.1597527,-0.0111716,-0.002075169,0.9980446,34.20771,5.493768,-22.69004,1005.681
1.654912949,-0.04723396,0.0009917939,-0.1597527,-0.01409281,0.0008406511,1.001937,34.20771,5.493768,-22.69004,1005.681
1.657390118,0.07523298,0.2430426,-0.1597527,-0.01362943,0.000826763,0.9951769,34.20771,5.493768,-22.69004,1005.682
1.659867764,0.0139995,0.1825299,-0.03742781,-0.01121086,0.003763238,0.9961441,34.20771,5.493768,-22.69004,1005.682
1.662344933,-0.04723396,0.2430426,-0.1597527,-0.01121032,0.002785874,0.994691,34.20771,5.493768,-22.69004,1005.682
1.664822102,-0.04723396,-0.05952091,-0.03742781,-0.01411084,0.0008277611,0.9966275,34.20771,5.493768,-22.69004,1005.682
1.667299748,-0.04723396,-0.1200336,0.1460596,-0.01608676,0.001284698,0.9884351,34.20771,5.493768,-22.69004,1005.682
1.669776917,-0.04723396,0.1220172,-0.09859026,-0.01023494,0.002303983,0.9946831,34.20771,5.493768,-22.69004,1005.682
1.672255039,0.0139995,0.0009917939,-0.09859026,-0.0136071,-0.004045998,0.9937037,34.20771,5.493768,-22.69004,1005.682
1.674732208,0.07523298,0.1825299,-0.03742781,-0.01363546,-0.0001552885,0.9917932,34.20771,5.493768,-22.69004,1005.682
1.677209377,-0.04723396,0.1220172,-0.2209152,-0.01119016,-0.001110694,0.9941882,34.20771,5.493768,-22.69004,1005.682
1.679687023,-0.04723396,0.2430426,-0.2209152,-0.008268884,0.0003733828,0.9975586,34.20771,5.493768,-22.69004,1005.682
1.682164192,-0.1084674,0.2430426,-0.1597527,-0.01313326,0.0008363104,0.9980702,34.20771,5.493768,-22.69004,1005.682
1.684642315,0.0139995,0.1220172,0.02373465,-0.01656212,0.00373438,0.9956905,34.20771,5.493768,-22.69004,1005.682
1.687119484,0.07523298,0.1220172,-0.09859026,-0.01655558,0.002272435,0.9952003,34.20771,5.493768,-22.69004,1005.682
1.689596653,0.1976999,0.1825299,-0.1597527,-0.01653651,-0.001136036,0.9951827,34.20771,5.493768,-22.69004,1005.682
1.692073822,0.0139995,0.1825299,-0.03742781,-0.01022081,-0.002574637,0.9907966,34.20771,5.493768,-22.69004,1005.682
1.694551468,0.07523298,0.0615045,-0.1597527,-0.01408518,-0.001109391,1.000962,34.20771,5.493768,-22.69004,1005.682
1.697028637,0.1976999,0.1825299,-0.1597527,-0.01556985,-0.0006464215,0.9942146,34.20771,5.493768,-22.69004,1005.68
1.699505806,0.0139995,-0.1200336,-0.09859026,-0.01362456,-0.002102987,0.9917831,34.20771,5.493768,-22.69004,1005.68
1.701983929,-0.1084674,0.0615045,-0.2209152,-0.01167541,-0.001601308,0.9937056,34.20771,5.493768,-22.69004,1005.68
1.704461098,0.0139995,0.1220172,-0.09859026,-0.01602016,-0.003556424,0.9999943,34.20771,5.493768,-22.69004,1005.68
1.706938744,-0.1084674,0.1825299,0.02373465,-0.01019785,-0.002558232,0.9975541,34.20771,5.493768,-22.69004,1005.68
1.709415913,0.1364664,0.0009917939,0.02373465,-0.0111885,0.0003571098,0.9970918,34.20771,5.493768,-22.69004,1005.68
1.711893082,-0.1084674,0.1825299,0.02373465,-0.01165788,0.0008555789,1.002889,34.20771,5.493768,-22.69004,1005.68
1.714370251,-0.1084674,0.1220172,-0.09859026,-0.01264363,0.002307803,1.001454,34.20771,5.493768,-22.69004,1005.68
1.716848374,0.07523298,0.0615045,-0.1597527,-0.01558507,0.004720294,0.9985864,34.20771,5.493768,-22.69004,1005.68
1.719325543,0.1364664,0.0615045,-0.09859026,-0.01653104,-0.0006432529,0.9975986,34.20771,5.493768,-22.69004,1005.68
1.721803188,0.0139995,0.2430426,-0.1597527,-0.01116504,-0.002070482,0.9999753,34.20771,5.493768,-22.69004,1005.68
1.724280358,0.07523298,0.2430426,-0.3432401,-0.0160311,-0.004541991,0.9951624,34.20771,5.493768,-22.69004,1005.68
1.726757527,0.1364664,0.3035553,-0.09859026,-0.01315622,0.0008199054,0.9913128,34.20771,5.493768,-22.69004,1005.68
1.729235172,0.07523298,0.1825299,-0.1597527,-0.01069457,-0.003057047,0.9936928,34.20771,5.493768,-22.69004,1005.68
1.731712818,-0.04723396,0.2430426,-0.09859026,-0.01019841,-0.0030475,0.9965861,34.20771,5.493768,-22.69004,1005.68
1.734190464,0.0139995,0.1825299,-0.09859026,-0.01750589,-0.001138727,0.9961534,34.20771,5.493768,-22.69004,1005.68
1.736667633,-0.04723396,0.0615045,-0.09859026,-0.01412121,0.001798095,0.9951845,34.20771,5.493768,-22.69004,1005.681
1.739144802,-0.04723396,0.1825299,-0.09859026,-0.01559819,0.00471092,0.9947249,34.20771,5.493768,-22.69004,1005.681
1.741622448,0.0139995,0.0615045,-0.09859026,-0.01069069,0.0003678291,1.000468,34.20771,5.493768,-22.69004,1005.681
1.744099617,0.1364664,0.1220172,-0.03742781,-0.01067488,-0.001576353,1.001906,34.20771,5.493768,-22.69004,1005.681
1.746577263,0.1364664,0.1220172,-0.03742781,-0.01019892,-0.0006035028,1.00046,34.20771,5.493768,-22.69004,1005.681
1.749054909,0.07523298,0.1825299,-0.09859026,-0.01555835,0.0008284133,1.000014,34.20771,5.493768,-22.69004,1005.681
1.751532078,0.07523298,0.1220172,-0.09859026,-0.01557475,0.0008166954,0.9951875,34.20771,5.493768,-22.69004,1005.681
1.754009247,0.07523298,0.0009917939,-0.03742781,-0.01362832,0.001805299,0.9971126,34.20771,5.493768,-22.69004,1005.681
1.756486893,0.07523298,0.1825299,-0.09859026,-0.01121141,0.00327397,0.9951762,34.20771,5.493768,-22.69004,1005.681
1.758964062,0.07523298,0.0009917939,-0.09859026,-0.01506932,-0.001122627,0.9975882,34.20771,5.493768,-22.69004,1005.681
1.761442185,-0.04723396,-0.05952091,-0.09859026,-0.01167155,0.0003569364,0.9980597,34.20771,5.493768,-22.69004,1005.681
1.763919354,0.0139995,0.0615045,-0.1597527,-0.01118254,-0.003060736,0.9932127,34.20771,5.493768,-22.69004,1005.681
1.766396523,0.07523298,0.1825299,-0.2209152,-0.01314202,0.0003411833,0.994689,34.20267,5.86768,-22.3165,1005.681
1.768874169,-0.04723396,0.0615045,-0.09859026,-0.01656376,0.003733209,0.9952078,34.20267,5.86768,-22.3165,1005.681
1.771351338,-0.04723396,0.0009917939,-0.2209152,-0.01361033,-0.001115076,0.9975802,34.20267,5.86768,-22.3165,1005.681
1.773828507,0.0139995,0.0615045,-0.1597527,-0.01458408,-0.0006320137,0.9980706,34.20267,5.86768,-22.3165,1005.681
1.776305676,0.1364664,0.1220172,-0.03742781,-0.01214479,-0.001102838,0.9995029,34.20267,5.86768,-22.3165,1005.677
1.778783798,-0.04723396,0.1825299,-0.2209152,-0.01701083,-0.002107716,0.997111,34.20267,5.86768,-22.3165,1005.677
1.781260967,0.0139995,0.1825299,-0.09859026,-0.01460648,-0.0001591505,0.9922811,34.20267,5.86768,-22.3165,1005.677
1.783738613,0.07523298,0.0009917939,-0.03742781,-0.01167483,0.0003545929,0.9970944,34.20267,5.86768,-22.3165,1005.677
1.786215782,0.0139995,0.2430426,-0.09859026,-0.01166989,0.001824741,1.000963,34.20267,5.86768,-22.3165,1005.677
1.788692951,0.0139995,0.1825299,-0.2209152,-0.01313165,-0.0006291503,0.996132,34.20267,5.86768,-22.3165,1005.677
1.791170597,-0.04723396,0.1825299,-0.1597527,-0.01459668,-0.003085385,0.9903353,34.20267,5.86768,-22.3165,1005.677
1.793648243,-0.1697009,0.2430426,-0.2209152,-0.01361795,0.0008349654,0.9985556,34.20267,5.86768,-22.3165,1005.677
1.796125889,-0.04723396,0.0615045,-0.09859026,-0.01458897,0.0008311032,0.9990435,34.20267,5.86768,-22.3165,1005.677
1.798603058,0.1976999,0.0615045,-0.1597527,-0.01066672,-0.004503759,0.9994773,34.20267,5.86768,-22.3165,1005.677
1.801080227,0.0139995,0.1220172,-0.03742781,-0.01510477,0.003740759,0.9951999,34.20267,5.86768,-22.3165,1005.677
1.803557396,-0.1084674,0.0615045,-0.03742781,-0.01166391,-0.0001264724,0.9995053,34.20267,5.86768,-22.3165,1005.677
1.806035042,0.0139995,0.2430426,-0.09859026,-0.009690207,-0.002540482,1.003826,34.20267,5.86768,-22.3165,1005.677
1.808512688,-0.04723396,0.1825299,-0.2209152,-0.01507479,-0.00161541,0.9951722,34.20267,5.86768,-22.3165,1005.677
1.810990334,0.07523298,0.0009917939,-0.1597527,-0.01116779,-0.00305019,0.9975569,34.20267,5.86768,-22.3165,1005.677
1.813467503,0.07523298,0.1825299,-0.09859026,-0.008274866,0.002324596,0.9990166,34.20267,5.86768,-22.3165,1005.677
1.815944672,0.07523298,0.4850934,-0.03742781,-0.0111934,0.001820227,0.9980646,34.57238,5.863244,-22.76124,1005.677
1.818422318,0.07523298,0.2430426,-0.09859026,-0.01409613,-0.002094958,0.9961298,34.57238,5.863244,-22.76124,1005.68
1.820899487,-0.04723396,0.1825299,0.08489711,-0.01263112,-0.001105355,0.9995055,34.57238,5.863244,-22.76124,1005.68
1.823377609,-0.04723396,0.2430426,0.02373465,-0.01309507,-0.003047368,1.002877,34.57238,5.863244,-22.76124,1005.68
1.825854778,0.0139995,0.1825299,-0.1597527,-0.01361199,-0.002582881,0.9946765,34.57238,5.863244,-22.76124,1005.68
1.828331948,0.07523298,0.0009917939,-0.09859026,-0.01605507,0.0003295974,0.9961529,34.57238,5.863244,-22.76124,1005.68
1.830809593,0.0139995,0.0009917939,-0.09859026,-0.009706005,0.0008703335,1.004809,34.57238,5.863244,-22.76124,1005.68
1.833286762,0.1364664,0.2430426,-0.09859026,-0.01069561,0.0003643136,0.9990197,34.57238,5.863244,-22.76124,1005.68
1.835763931,0.07523298,0.1220172,0.02373465,-0.008763967,-0.0001242606,0.99418,34.57238,5.863244,-22.76124,1005.68
1.838242054,-0.1084674,0.1220172,-0.09859026,-0.01218846,0.002288056,0.9922804,34.57238,5.863244,-22.76124,1005.68
1.840719223,-0.04723396,0.1220172,-0.09859026,-0.01267479,0.002285539,0.992283,34.57238,5.863244,-22.76124,1005.68
1.843196392,0.1364664,0.0615045,-0.03742781,-0.01506768,-0.001121455,0.9980708,34.57238,5.863244,-22.76124,1005.68
1.845674038,-0.1084674,0.1220172,-0.03742781,-0.01216772,0.0003473889,0.9951664,34.57238,5.863244,-22.76124,1005.68
1.848151207,-0.1084674,0.1220172,-0.03742781,-0.01263333,-0.003062428,0.9956341,34.57238,5.863244,-22.76124,1005.68
1.850628376,0.07523298,0.1825299,-0.1597527,-0.01704849,0.0007985985,0.9908512,34.57238,5.863244,-22.76124,1005.68
1.853106499,0.0139995,0.2430426,-0.09859026,-0.01507207,-0.002102335,0.9951697,34.57238,5.863244,-22.76124,1005.68
1.855583668,0.1364664,0.1220172,-0.1597527,-0.01215516,-0.0001325049,0.9980599,34.57238,5.863244,-22.76124,1005.68
1.858061314,0.1364664,0.0615045,-0.2820776,-0.01361417,-0.001606688,0.9956469,34.57238,5.863244,-22.76124,1005.676
1.860538483,-0.04723396,0.0615045,-0.09859026,-0.009713162,-0.002556887,0.9970687,34.57238,5.863244,-22.76124,1005.676
1.863015652,0.1976999,0.0615045,-0.09859026,-0.01360324,-0.002087754,0.9980578,34.57238,5.863244,-22.76124,1005.676
1.865492821,0.0139995,0.0009917939,-0.09859026,-0.01504969,-0.004041831,0.9985384,33.83788,5.497003,-22.30863,1005.676
1.867970944,-0.04723396,0.0615045,-0.2209152,-0.01166887,-0.003063253,0.9932154,33.83788,5.497003,-22.30863,1005.676
1.870448113,0.07523298,0.2430426,-0.09859026,-0.009692423,-0.004497553,0.9999548,33.83788,5.497003,-22.30863,1005.676
1.872925759,-0.04723396,0.2430426,-0.09859026,-0.0150562,-0.001113253,1.001449,33.83788,5.497003,-22.30863,1005.676
1.875402928,0.0139995,0.1825299,-0.09859026,-0.01555454,-0.0001466074,0.9995265,33.83788,5.497003,-22.30863,1005.676
1.877880097,0.1364664,0.1825299,-0.03742781,-0.01507207,-0.002102335,0.9951697,33.83788,5.497003,-22.30863,1005.676
1.880357743,-0.04723396,0.1220172,-0.09859026,-0.01359183,-0.006479448,0.9941738,33.83788,5.497003,-22.30863,1005.676
1.882834912,-0.04723396,0.1825299,-0.09859026,-0.01603759,-0.0001467809,1.000494,33.83788,5.497003,-22.30863,1005.676
1.885313034,0.0139995,0.1220172,-0.09859026,-0.01018806,-0.005484466,0.9956082,33.83788,5.497003,-22.30863,1005.676
1.887790203,0.1364664,0.1220172,-0.03742781,-0.01263061,-0.003549352,0.9956315,33.83788,5.497003,-22.30863,1005.676
1.890267372,0.0139995,0.0615045,-0.2209152,-0.01312673,-0.0006256348,0.9975801,33.83788,5.497003,-22.30863,1005.676
1.892744541,0.0139995,0.0615045,-0.03742781,-0.01458518,-0.00161055,0.9961349,33.83788,5.497003,-22.30863,1005.676
1.895222187,0.07523298,0.0615045,-0.03742781,-0.0126437,-0.002092094,0.9941912,33.83788,5.497003,-22.30863,1005.676
1.897699356,0.1364664,0.0615045,-0.09859026,-0.01216827,-0.0001418788,0.9941986,33.83788,5.497003,-22.30863,1005.677
1.900177479,-0.04723396,0.1220172,-0.2820776,-0.01118691,-0.002574983,0.9927326,33.83788,5.497003,-22.30863,1005.677
1.902654648,-0.04723396,0.0615045,-0.2209152,-0.01166779,-0.003551349,0.9927303,33.83788,5.497003,-22.30863,1005.677
1.905131817,-0.04723396,0.1825299,-0.09859026,-0.01360814,-0.0006246367,0.9990306,33.83788,5.497003,-22.30863,1005.677
1.907609463,-0.04723396,0.1220172,-0.1597527,-0.01456061,-0.003059606,1.000954,33.83788,5.497003,-22.30863,1005.677
1.910086632,0.0139995,0.0615045,-0.09859026,-0.01265518,-0.002100297,0.9908123,33.83788,5.497003,-22.30863,1005.677
1.915041924,0.07523298,0.2430426,-0.1597527,-0.01408796,-0.003555731,0.9961222,33.83788,5.497003,-22.30863,1005.677
1.917519093,-0.04723396,0.2430426,-0.03742781,-0.008747062,-0.00255654,0.9951327,34.56745,6.238359,-22.32437,1005.677
1.919996739,0.07523298,0.0009917939,-0.09859026,-0.01311093,-0.00403645,0.9965971,34.56745,6.238359,-22.32437,1005.677
1.922473908,0.0139995,0.1825299,-0.03742781,-0.01313162,0.0008374823,0.998553,34.56745,6.238359,-22.32437,1005.677
1.924951077,0.0139995,0.0009917939,-0.09859026,-0.01264749,0.0003495591,0.9970997,34.56745,6.238359,-22.32437,1005.677
1.927428246,0.07523298,0.0615045,-0.1597527,-0.01214479,-0.001102838,0.9995029,34.56745,6.238359,-22.32437,1005.677
1.929906368,0.1364664,0.1220172,-0.1597527,-0.01068201,-0.003536941,0.9965863,34.56745,6.238359,-22.32437,1005.677
1.932383538,-0.04723396,0.1220172,-0.1597527,-0.008775998,-0.0006217314,0.9898334,34.56745,6.238359,-22.32437,1005.677
1.934861183,-0.04723396,0.0615045,-0.09859026,-0.01266005,0.0008294532,0.9942062,34.56745,6.238359,-22.32437,1005.677
1.937338352,-0.1084674,0.0009917939,-0.09859026,-0.01166121,-0.00208003,0.9970818,34.56745,6.238359,-22.32437,1005.674
1.939815521,0.07523298,0.2430426,-0.09859026,-0.01509225,0.0003276004,0.9932515,34.56745,6.238359,-22.32437,1005.674
1.942293167,0.07523298,0.0615045,-0.09859026,-0.01216719,-0.0006299755,0.9937133,34.56745,6.238359,-22.32437,1005.674
1.944770813,0.0139995,-0.05952091,-0.1597527,-0.006353012,0.004762256,0.9961226,34.56745,6.238359,-22.32437,1005.674
1.947248459,-0.1084674,0.1825299,-0.09859026,-0.01314857,0.0003364962,0.9927583,34.56745,6.238359,-22.32437,1005.674
1.949725628,0.0139995,0.3035553,-0.2820776,-0.01752826,0.000800769,0.9927847,34.56745,6.238359,-22.32437,1005.674
1.952202797,-0.04723396,0.1220172,-0.2209152,-0.0116803,-0.0001381903,0.9946785,34.56745,6.238359,-22.32437,1005.674
1.954679966,-0.04723396,0.1220172,-0.09859026,-0.009221359,-0.002061586,0.999482,34.56745,6.238359,-22.32437,1005.674
1.957157612,-0.04723396,0.0615045,-0.09859026,-0.01310548,-0.005010299,0.996592,34.56745,6.238359,-22.32437,1005.674
1.959635258,0.07523298,0.0009917939,-0.09859026,-0.01359837,-0.005017503,0.994664,34.56745,6.238359,-22.32437,1005.674
1.962112904,0.07523298,0.1220172,-0.09859026,-0.01216333,0.001328269,0.9980674,34.56745,6.238359,-22.32437,1005.674
1.964590073,0.07523298,0.2430426,-0.09859026,-0.01023224,0.0003504257,0.9922597,34.56745,6.238359,-22.32437,1005.674
1.967067242,0.1364664,0.1825299,-0.09859026,-0.0102055,-0.002074823,0.9961086,34.215,5.14271,-21.86019,1005.674
1.969544888,0.1364664,0.1825299,-0.03742781,-0.01459992,-0.0001544631,0.9942119,34.215,5.14271,-21.86019,1005.674
1.972022057,0.07523298,0.1220172,0.02373465,-0.01459772,0.0003359762,0.9956623,34.215,5.14271,-21.86019,1005.674
1.974500180,-0.1084674,0.1220172,-0.03742781,-0.014601,0.0003336328,0.9946969,34.215,5.14271,-21.86019,1005.674
1.976977349,-0.04723396,0.1220172,-0.1597527,-0.01461738,0.001788547,0.9922911,34.215,5.14271,-21.86019,1005.674
1.979454517,0.0139995,0.0615045,0.02373465,-0.01461086,-0.00114003,0.98938,34.215,5.14271,-21.86019,1005.674
1.981932163,0.0139995,0.1220172,-0.03742781,-0.01313657,-0.0006326656,0.9946839,34.215,5.14271,-21.86019,1005.674
1.984409332,-0.1084674,0.0009917939,-0.09859026,-0.01310544,-0.002077035,1.001434,34.215,5.14271,-21.86019,1005.674
1.986886501,0.1364664,0.1220172,-0.1597527,-0.01261915,-0.005007782,0.9965894,34.215,5.14271,-21.86019,1005.674
1.989364624,0.1364664,0.1220172,-0.09859026,-0.01263989,-0.003067115,0.9937034,34.215,5.14271,-21.86019,1005.674
1.991841793,0.0139995,0.1220172,-0.03742781,-0.01312292,-0.001600656,0.9970923,34.215,5.14271,-21.86019,1005.674
1.994318962,0.07523298,0.1220172,-0.1597527,-0.01168356,0.001326098,0.9961342,34.215,5.14271,-21.86019,1005.674
1.996796608,-0.1084674,0.0615045,-0.09859026,-0.01555893,-0.001127488,0.9966254,34.215,5.14271,-21.86019,1005.674
1.999273777,-0.04723396,0.1220172,-0.1597527,-0.00875579,-0.001585034,0.9941725,34.215,5.14271,-21.86019,1005.674
2.001750946,-0.1084674,0.1825299,-0.09859026,-0.010724,0.00278839,0.9946883,34.215,5.14271,-21.86019,1005.674
2.004228592,0.0139995,0.1825299,0.08489711,-0.01458846,-0.001612894,0.9951696,34.215,5.14271,-21.86019,1005.674
2.006706238,0.07523298,0.0615045,-0.03742781,-0.01411033,-0.001616236,0.9927536,34.215,5.14271,-21.86019,1005.674
2.009183884,0.07523298,0.0009917939,-0.1597527,-0.01022951,-0.0001364986,0.9922572,34.215,5.14271,-21.86019,1005.674
2.011661053,-0.04723396,0.0615045,-0.2209152,-0.008739949,-0.002062585,0.9980313,34.215,5.14271,-21.86019,1005.674
2.014138222,-0.04723396,0.1220172,-0.2209152,-0.0126213,-0.002564957,0.9999807,34.215,5.14271,-21.86019,1005.674
2.016615391,0.07523298,0.2430426,-0.3432401,-0.01265239,0.001812676,0.9980726,34.20842,5.500986,-22.31002,1005.674
2.019093513,-0.04723396,0.2430426,-0.1597527,-0.01506713,-0.0006321871,0.9990386,34.20842,5.500986,-22.31002,1005.675
2.021570683,0.0139995,0.1825299,-0.2820776,-0.01311368,-0.005016158,0.9941787,34.20842,5.500986,-22.31002,1005.675
2.024048328,-0.04723396,0.2430426,-0.1597527,-0.01650868,-0.004049381,0.9985464,34.20842,5.500986,-22.31002,1005.675
2.026525497,0.0139995,0.1825299,-0.2820776,-0.0160278,-0.003073015,0.9985487,34.20842,5.500986,-22.31002,1005.675
2.029002666,0.0139995,0.0615045,-0.2820776,-0.0111809,-0.003059564,0.9936954,34.20842,5.500986,-22.31002,1005.675
2.031480312,0.0139995,0.1220172,-0.1597527,-0.01067598,-0.00255489,0.9999701,34.20842,5.500986,-22.31002,1005.675
2.033957481,0.1976999,0.0615045,-0.09859026,-0.01023549,0.001814715,0.9937153,34.20842,5.500986,-22.31002,1005.675
2.036435604,0.07523298,0.0009917939,-0.09859026,-0.01408738,-0.001599831,0.999511,34.20842,5.500986,-22.31002,1005.675
2.038912773,0.1976999,0.0009917939,-0.2209152,-0.01164319,-0.003533772,0.9999704,34.20842,5.500986,-22.31002,1005.675
2.041389942,0.0139995,0.0615045,-0.1597527,-0.01216176,-0.003070457,0.9912874,34.20842,5.500986,-22.31002,1005.675
2.043867111,-0.1084674,-0.05952091,0.08489711,-0.009740413,0.002312358,0.9970939,34.20842,5.500986,-22.31002,1005.675
2.046344757,-0.1084674,0.0615045,-0.03742781,-0.009719698,-0.001094941,0.997559,34.20842,5.500986,-22.31002,1005.675
2.048821926,0.0139995,0.1220172,0.02373465,-0.01263825,-0.003065943,0.9941862,34.20842,5.500986,-22.31002,1005.675
2.051300049,-0.04723396,0.1220172,-0.03742781,-0.009222444,-0.00157349,0.9999672,34.20842,5.500986,-22.31002,1005.675
2.053777218,-0.1084674,-0.05952091,-0.09859026,-0.008257939,0.00135895,1.00239,34.20842,5.500986,-22.31002,1005.675
2.056254387,0.07523298,-0.1200336,-0.1597527,-0.01408354,-0.001108219,1.001444,34.20842,5.500986,-22.31002,1005.675
2.058732033,0.07523298,0.0615045,-0.09859026,-0.01364252,0.002284021,0.9937364,34.20842,5.500986,-22.31002,1005.672
2.061209202,0.07523298,0.1220172,0.02373465,-0.01119346,-0.002579671,0.9908018,34.20842,5.500986,-22.31002,1005.672
2.063686371,0.07523298,0.1220172,-0.03742781,-0.008255813,-0.002550508,0.9965781,34.20842,5.500986,-22.31002,1005.672
2.066164494,0.1364664,0.1220172,0.02373465,-0.01411899,0.003755167,0.9990559,34.19691,6.234375,-22.32298,1005.672
2.068641663,0.0139995,0.2430426,-0.09859026,-0.01509445,-0.000162839,0.9918011,34.19691,6.234375,-22.32298,1005.672
2.071119308,-0.04723396,0.0615045,-0.2820776,-0.01265458,0.001322236,0.996622,34.19691,6.234375,-22.32298,1005.672
2.073596478,0.07523298,0.0615045,-0.2209152,-0.01261634,0.0003718231,1.006271,34.19691,6.234375,-22.32298,1005.672
2.076073647,0.1976999,0.0615045,-0.1597527,-0.01603868,0.0003413153,1.00098,34.19691,6.234375,-22.32298,1005.672
2.078550816,0.07523298,0.0615045,0.02373465,-0.01073323,0.006203893,0.997602,34.19691,6.234375,-22.32298,1005.672
2.081028938,0.07523298,-0.1200336,-0.1597527,-0.01553706,-0.0006229859,1.003868,34.19691,6.234375,-22.32298,1005.672
2.083506107,0.07523298,0.1220172,-0.03742781,-0.01846656,-0.003579554,0.9956633,34.19691,6.234375,-22.32298,1005.672
2.085983753,-0.04723396,0.1825299,-0.09859026,-0.01559274,0.003737071,0.9947198,34.19691,6.234375,-22.32298,1005.672
2.088460922,0.0139995,0.1825299,-0.1597527,-0.01846707,-0.001135558,0.9995373,34.19691,6.234375,-22.32298,1005.672
2.090938091,0.1364664,0.0009917939,-0.09859026,-0.01312511,-0.002091096,0.9956417,34.19691,6.234375,-22.32298,1005.672
2.093415737,0.0139995,0.1825299,-0.1597527,-0.01068961,-0.0001202668,0.9999827,34.19691,6.234375,-22.32298,1005.672
2.095893383,0.0139995,0.1825299,-0.1597527,-0.0116661,-0.0006169125,0.9980547,34.19691,6.234375,-22.32298,1005.672
2.098371029,0.1364664,0.1825299,-0.09859026,-0.01115197,-0.004994373,0.9989947,34.19691,6.234375,-22.32298,1005.676
2.100848198,0.1364664,0.1220172,-0.1597527,-0.01118961,-0.0006214262,0.995156,34.19691,6.234375,-22.32298,1005.676
2.103325367,-0.04723396,0.1825299,-0.09859026,-0.01266552,0.0003366696,0.9917904,34.19691,6.234375,-22.32298,1005.676
2.105802536,-0.1084674,0.3035553,-0.09859026,-0.01458791,-0.001123625,0.9961374,34.19691,6.234375,-22.32298,1005.676
2.108280182,-0.04723396,0.3035553,-0.09859026,-0.009220252,-0.00108305,1.001418,34.19691,6.234375,-22.32298,1005.676
2.110757828,0.0139995,0.1825299,-0.2209152,-0.01358414,-0.004029592,1.000461,34.19691,6.234375,-22.32298,1005.676
2.113235474,0.0139995,0.1220172,-0.1597527,-0.01651907,-0.00454568,0.9946824,34.19691,6.234375,-22.32298,1005.676
2.115712643,0.0139995,0.1825299,-0.1597527,-0.01117866,0.0003641406,0.9999879,34.19691,6.234375,-22.32298,1005.676
2.118189812,-0.04723396,0.1220172,-0.09859026,-0.01021148,-0.0001236089,0.9975667,33.45655,6.233627,-21.94019,1005.676
2.120667458,0.07523298,0.1220172,-0.09859026,-0.009733323,0.001339681,0.9975716,33.45655,6.233627,-21.94019,1005.676
2.123144627,-0.04723396,-0.1805463,-0.03742781,-0.0136349,0.0003339793,0.992761,33.45655,6.233627,-21.94019,1005.676
2.125622749,0.1976999,0.0615045,-0.03742781,-0.01410213,-0.001610377,0.995167,33.45655,6.233627,-21.94019,1005.676
2.128099918,0.1364664,0.364068,-0.1597527,-0.01361086,-0.0001377121,0.9990332,33.45655,6.233627,-21.94019,1005.676
2.130577087,0.07523298,0.0615045,-0.2209152,-0.01214807,-0.001105182,0.9985376,33.45655,6.233627,-21.94019,1005.676
2.133054256,0.0139995,0.1825299,-0.2209152,-0.01214703,-0.004526543,0.9932105,33.45655,6.233627,-21.94019,1005.676
2.135531902,0.0139995,0.1825299,-0.09859026,-0.01557965,0.002279812,0.9961604,33.45655,6.233627,-21.94019,1005.676
2.138009071,-0.1084674,0.0615045,0.08489711,-0.01459609,0.0003371481,0.996145,33.45655,6.233627,-21.94019,1005.674
2.140487194,0.0139995,0.1220172,-0.2820776,-0.01409775,-0.000629497,0.998068,33.45655,6.233627,-21.94019,1005.674
2.142964363,0.07523298,-0.05952091,0.02373465,-0.01264368,-0.0006254618,0.996612,33.45655,6.233627,-21.94019,1005.674
2.145441532,-0.04723396,-0.05952091,-0.09859026,-0.01260437,-0.003530603,1.003354,33.45655,6.233627,-21.94019,1005.674
2.147919178,0.1364664,0.1825299,-0.09859026,-0.01166608,0.00084972,1.000476,33.45655,6.233627,-21.94019,1005.674
2.150396347,0.07523298,0.1220172,-0.03742781,-0.01072293,0.0008336619,0.9917822,33.45655,6.233627,-21.94019,1005.674
2.152873516,0.0139995,0.0615045,0.02373465,-0.01459826,0.001313341,0.9971153,33.45655,6.233627,-21.94019,1005.674
2.155351639,0.0139995,0.1220172,-0.2209152,-0.0131377,-0.003077834,0.9903274,33.45655,6.233627,-21.94019,1005.674
2.157828808,0.0139995,0.2430426,-0.2209152,-0.01462176,0.0008076678,0.9893901,33.45655,6.233627,-21.94019,1005.674
2.160306454,0.0139995,0.1825299,-0.2820776,-0.01216065,-0.002091921,0.9932231,33.45655,6.233627,-21.94019,1005.674
2.162783623,0.0139995,0.1220172,-0.1597527,-0.01121363,0.001316897,0.9913047,33.45655,6.233627,-21.94019,1005.674
2.165260792,0.07523298,0.0009917939,-0.09859026,-0.01168141,-0.001116727,0.9927428,33.45655,6.233627,-21.94019,1005.674
2.167737961,0.07523298,0.0615045,-0.09859026,-0.01602614,-0.001605211,1.001452,34.20842,5.500986,-22.31002,1005.674
2.170216084,0.0139995,0.1220172,-0.09859026,-0.01359668,-0.002083067,0.9999886,34.20842,5.500986,-22.31002,1005.674
2.172693253,0.1976999,0.1220172,-0.1597527,-0.009207712,-0.003029576,1.00189,34.20842,5.500986,-22.31002,1005.674
2.175170898,0.1364664,0.2430426,0.02373465,-0.01069453,-0.0001237823,0.9985347,34.20842,5.500986,-22.31002,1005.674
2.177648068,0.1364664,0.1220172,-0.09859026,-0.01605618,-0.0006489384,0.9942173,34.20842,5.500986,-22.31002,1005.674
2.180125237,0.07523298,-0.05952091,-0.1597527,-0.01215245,-0.002086062,0.9956365,34.20842,5.500986,-22.31002,1005.676
2.182602882,0.1976999,0.1825299,0.02373465,-0.0102175,-0.00110566,0.9941829,34.20842,5.500986,-22.31002,1005.676
2.187558174,-0.1084674,-0.05952091,-0.03742781,-0.0141016,-0.002587741,0.9937139,34.20842,5.500986,-22.31002,1005.676
2.187558174,-0.1084674,-0.05952091,-0.03742781,-0.0141016,-0.002587741,0.9937139,34.20842,5.500986,-22.31002,1005.676
2.192512512,0.1364664,0.1825299,-0.2820776,-0.0160333,-0.005032431,0.9937119,34.20842,5.500986,-22.31002,1005.676
2.194989681,0.07523298,0.2430426,-0.09859026,-0.01018695,-0.00450593,0.9975441,34.20842,5.500986,-22.31002,1005.676
2.197467327,0.07523298,0.1220172,-0.1597527,-0.01166282,-0.0006145691,0.99902,34.20842,5.500986,-22.31002,1005.676
2.199944973,0.07523298,0.2430426,-0.1597527,-0.01314038,0.0003423551,0.9951717,34.20842,5.500986,-22.31002,1005.676
2.202422619,-0.04723396,0.1220172,0.08489711,-0.01163936,-0.003042161,1.001904,34.20842,5.500986,-22.31002,1005.676
2.204899788,0.07523298,0.0615045,-0.09859026,-0.009752444,0.001814888,0.9927473,34.20842,5.500986,-22.31002,1005.676
2.207376957,0.2589334,0.1220172,-0.4044026,-0.009745863,0.003286208,0.9970989,34.20842,5.500986,-22.31002,1005.676
2.209854603,0.1364664,0.1825299,-0.2209152,-0.01361419,-0.00307332,0.993226,34.20842,5.500986,-22.31002,1005.676
2.212331772,-0.1084674,0.0615045,-0.1597527,-0.01316278,0.0008152185,0.9893821,34.20842,5.500986,-22.31002,1005.676
2.214809895,0.0139995,0.1825299,-0.2209152,-0.01073108,0.003761068,0.9942108,34.20842,5.500986,-22.31002,1005.676
2.217287064,0.0139995,0.1825299,-0.09859026,-0.01069289,-0.0001226107,0.9990172,33.46734,5.493021,-22.30724,1005.676
2.219764233,-0.04723396,0.1825299,-0.09859026,-0.01070875,-0.001111693,0.9927375,33.46734,5.493021,-22.30724,1005.677
2.222241879,0.0139995,0.0009917939,-0.3432401,-0.010187,-0.007439194,0.9927022,33.46734,5.493021,-22.30724,1005.677
2.224719048,0.0139995,0.1220172,-0.09859026,-0.01360925,-0.001603173,0.9970949,33.46734,5.493021,-22.30724,1005.677
2.227196217,0.0139995,0.2430426,-0.03742781,-0.01365723,0.00520674,0.9942342,33.46734,5.493021,-22.30724,1005.677
2.229673386,0.1976999,0.1220172,-0.09859026,-0.014625,0.003738589,0.9932665,33.46734,5.493021,-22.30724,1005.677
2.232151508,0.1364664,0.0009917939,-0.2209152,-0.01461571,0.003256352,0.9951947,33.46734,5.493021,-22.30724,1005.677
2.234628677,-0.04723396,0.2430426,-0.09859026,-0.01022623,-0.0001341552,0.9932225,33.46734,5.493021,-22.30724,1005.677
2.237106323,0.07523298,0.3035553,0.08489711,-0.009731729,-0.001592412,0.9932123,33.46734,5.493021,-22.30724,1005.677
2.239583492,0.0139995,0.0615045,-0.1597527,-0.01653104,-0.0006432529,0.9975986,33.46734,5.493021,-22.30724,1005.677
2.242060661,0.07523298,0.1220172,-0.2209152,-0.01700155,-0.002589953,0.9990391,33.46734,5.493021,-22.30724,1005.677
2.244538784,-0.04723396,0.1220172,-0.2820776,-0.01457696,-0.0001380583,1.000969,33.46734,5.493021,-22.30724,1005.677
2.247015953,-0.2309344,0.2430426,-0.1597527,-0.01410539,-0.000146088,0.9966224,33.46734,5.493021,-22.30724,1005.677
2.249493599,0.1364664,0.1220172,-0.2820776,-0.01262458,-0.002567301,0.9990153,33.46734,5.493021,-22.30724,1005.677
2.251970768,0.1976999,0.0615045,-0.03742781,-0.01265074,0.001813848,0.9985554,33.46734,5.493021,-22.30724,1005.677
2.254447937,0.0139995,0.1220172,-0.03742781,-0.01164481,-0.002068312,1.001909,33.46734,5.493021,-22.30724,1005.677
2.256925106,0.1364664,0.2430426,-0.03742781,-0.009254615,0.00329224,0.9985443,33.46734,5.493021,-22.30724,1005.677
2.259402752,0.07523298,0.2430426,-0.09859026,-0.01263333,-0.003062428,0.9956341,33.46734,5.493021,-22.30724,1005.675
2.261880398,0.07523298,0.1220172,-0.09859026,-0.01360976,0.0008408243,1.000969,33.46734,5.493021,-22.30724,1005.675
2.264358044,-0.1084674,0.3035553,-0.1597527,-0.01214968,0.0003602784,1.000476,33.46734,5.493021,-22.30724,1005.675
2.266835213,0.0139995,0.2430426,-0.09859026,-0.01167705,-0.001602479,0.9932229,33.46734,5.493021,-22.30724,1005.675
2.269312382,0.0139995,-0.05952091,-0.03742781,-0.01021642,-0.001593757,0.9936977,33.83871,5.505423,-21.86528,1005.675
2.271790028,-0.04723396,0.0009917939,0.02373465,-0.01069453,-0.0001237823,0.9985347,33.83871,5.505423,-21.86528,1005.675
2.274267197,0.1364664,0.0009917939,-0.2209152,-0.01364904,0.005212598,0.9966475,33.83871,5.505423,-21.86528,1005.675
2.276745319,-0.04723396,0.2430426,-0.3432401,-0.01554147,-0.003070498,0.9985461,33.83871,5.505423,-21.86528,1005.675
2.279222488,0.0139995,0.1825299,-0.09859026,-0.01362017,-0.001122107,0.994684,33.83871,5.505423,-21.86528,1005.675
2.281699658,0.1364664,0.0615045,-0.1597527,-0.01362615,0.0008291064,0.9961422,33.83871,5.505423,-21.86528,1005.675
2.284176827,0.07523298,0.0009917939,-0.09859026,-0.01359287,-0.003058087,0.9995008,33.83871,5.505423,-21.86528,1005.675
2.286654472,-0.04723396,0.0615045,-0.2209152,-0.01166776,-0.002084717,0.9951512,33.83871,5.505423,-21.86528,1005.675
2.289131641,0.07523298,0.3035553,-0.1597527,-0.01118083,0.001340333,1.000958,33.83871,5.505423,-21.86528,1005.675
2.291609764,0.0139995,0.1220172,-0.09859026,-0.01168301,0.001815367,0.997102,33.83871,5.505423,-21.86528,1005.675
2.294086933,0.07523298,0.2430426,0.02373465,-0.01165737,-0.001588418,0.999015,33.83871,5.505423,-21.86528,1005.675
2.296564102,-0.04723396,0.1825299,0.02373465,-0.01214206,-0.001589763,0.9995004,33.83871,5.505423,-21.86528,1005.675
2.299041748,0.07523298,0.1220172,-0.09859026,-0.01408359,-0.004041484,0.9966024,33.83871,5.505423,-21.86528,1005.676
2.301518917,0.0139995,0.2430426,-0.1597527,-0.01266333,0.0008271093,0.9932408,33.83871,5.505423,-21.86528,1005.676
2.303996086,-0.04723396,0.1220172,-0.1597527,-0.0116694,-0.002085889,0.9946684,33.83871,5.505423,-21.86528,1005.676
2.306474209,0.07523298,0.1220172,-0.1597527,-0.01019951,-0.004026036,0.9946504,33.83871,5.505423,-21.86528,1005.676
2.308951378,0.1364664,0.2430426,-0.1597527,-0.01214862,-0.00159445,0.9975697,33.83871,5.505423,-21.86528,1005.676
2.311429024,0.0139995,0.1825299,0.02373465,-0.008737755,-0.001572145,0.9994819,33.83871,5.505423,-21.86528,1005.676
2.313906193,0.0139995,0.1220172,-0.03742781,-0.01260548,-0.00450914,1.001419,33.83871,5.505423,-21.86528,1005.676
2.316383362,0.0139995,-0.1200336,-0.2820776,-0.01359941,-0.001596142,0.9999911,33.83871,5.505423,-21.86528,1005.676
2.318861485,-0.1084674,0.0615045,-0.2209152,-0.01215462,-0.001109869,0.9966068,34.215,5.14271,-21.86019,1005.676
2.321338654,0.07523298,0.0615045,0.08489711,-0.01263548,-0.0006196029,0.9990253,34.215,5.14271,-21.86019,1005.676
2.323815823,0.07523298,-0.05952091,-0.1597527,-0.01314964,0.002291225,0.9956644,34.215,5.14271,-21.86019,1005.676
2.326293469,0.1976999,0.1220172,-0.09859026,-0.01214372,-0.003057567,0.9965968,34.215,5.14271,-21.86019,1005.676
2.328770638,0.07523298,0.1220172,-0.09859026,-0.01359398,-0.004036623,0.9975651,34.215,5.14271,-21.86019,1005.676
2.331247807,-0.04723396,0.1825299,-0.2209152,-0.0126486,-0.0006289768,0.995164,34.215,5.14271,-21.86019,1005.676
2.333725453,-0.1084674,0.1220172,-0.2209152,-0.0145835,0.001323887,1.001459,34.215,5.14271,-21.86019,1005.676
2.336203098,-0.04723396,0.1220172,-0.03742781,-0.01215899,-0.0006241165,0.9961267,34.215,5.14271,-21.86019,1005.676
2.338680744,-0.04723396,0.1825299,0.02373465,-0.0116552,-0.002564611,0.9980447,34.215,5.14271,-21.86019,1005.674
2.341157913,-0.1084674,0.1220172,-0.03742781,-0.01604087,-0.0001491243,0.9995291,34.215,5.14271,-21.86019,1005.674
2.343635082,0.0139995,0.1220172,-0.03742781,-0.01265349,0.0008341401,0.9961369,34.215,5.14271,-21.86019,1005.674
2.346112251,-0.1084674,0.1220172,-0.03742781,-0.01409285,-0.002092614,0.997095,34.215,5.14271,-21.86019,1005.674
2.348589897,0.07523298,0.1825299,-0.09859026,-0.01799115,-0.003095972,0.9932498,34.215,5.14271,-21.86019,1005.674
2.351067543,0.0139995,0.0009917939,-0.1597527,-0.01455574,-0.005989354,0.9975603,34.215,5.14271,-21.86019,1005.674
2.353545189,-0.1084674,-0.05952091,-0.1597527,-0.01361634,-0.0006304956,0.9966173,34.215,5.14271,-21.86019,1005.674
2.356022358,-0.1084674,0.1220172,-0.2209152,-0.0141365,0.002764913,0.9922935,34.215,5.14271,-21.86019,1005.674
2.358499527,0.1364664,0.1825299,-0.2820776,-0.008273826,-0.001096765,0.9936896,34.215,5.14271,-21.86019,1005.674
2.360977173,-0.04723396,0.0009917939,-0.03742781,-0.01456447,-0.00501785,0.9966,34.215,5.14271,-21.86019,1005.674
2.363454342,0.07523298,0.1220172,0.02373465,-0.01411414,-0.0006412149,0.9932412,34.215,5.14271,-21.86019,1005.674
2.365932465,0.1364664,0.0615045,-0.1597527,-0.01166991,0.0003581082,0.9985425,34.215,5.14271,-21.86019,1005.674
2.368409634,0.1364664,0.1220172,-0.1597527,-0.01117047,0.0003699996,1.002401,34.2157,5.149927,-21.48017,1005.674
2.370886803,0.0139995,0.2430426,-0.2209152,-0.01506438,0.0003475207,1.001457,34.2157,5.149927,-21.48017,1005.674
2.373364449,0.1364664,0.0615045,-0.09859026,-0.01166823,0.003292545,1.003867,34.2157,5.149927,-21.48017,1005.674
2.375841618,0.0139995,0.0615045,-0.1597527,-0.01118686,0.0003582817,0.9975745,34.2157,5.149927,-21.48017,1005.674
2.378318787,-0.04723396,0.0615045,-0.1597527,-0.01410213,-0.001610377,0.995167,34.2157,5.149927,-21.48017,1005.674
2.380796909,-0.1084674,0.1220172,-0.1597527,-0.01458135,-0.001118938,0.9980681,34.2157,5.149927,-21.48017,1005.675
2.383274078,-0.04723396,0.2430426,-0.2820776,-0.0136147,-0.0006293235,0.9971,34.2157,5.149927,-21.48017,1005.675
2.385751247,-0.04723396,0.1220172,-0.03742781,-0.01409394,-0.001604518,0.9975803,34.2157,5.149927,-21.48017,1005.675
2.388228893,-0.04723396,0.0615045,-0.09859026,-0.01018478,-0.005482122,0.9965736,34.2157,5.149927,-21.48017,1005.675
2.390706062,0.1364664,0.1825299,-0.09859026,-0.0145759,-0.002092788,0.9980631,34.2157,5.149927,-21.48017,1005.675
2.393183231,0.1364664,0.1825299,-0.1597527,-0.0136147,-0.0006293235,0.9971,34.2157,5.149927,-21.48017,1005.675
2.395661354,0.0139995,0.0615045,-0.1597527,-0.01214317,-0.002568299,0.9975647,34.2157,5.149927,-21.48017,1005.675
2.398138523,-0.1084674,0.1220172,-0.1597527,-0.01508244,-0.001132001,0.9937267,34.2157,5.149927,-21.48017,1005.675
2.400616169,-0.1084674,0.2430426,-0.03742781,-0.01168361,-0.001607167,0.9912922,34.2157,5.149927,-21.48017,1005.675
2.403093338,0.1364664,0.0009917939,-0.1597527,-0.01459006,0.0013192,0.9995287,34.2157,5.149927,-21.48017,1005.675
2.405570507,0.0139995,0.0615045,-0.09859026,-0.01265458,0.001322236,0.996622,34.2157,5.149927,-21.48017,1005.675
2.408047676,0.0139995,0.1220172,-0.09859026,-0.0145808,-0.0006296702,0.9990359,34.2157,5.149927,-21.48017,1005.675
2.410525799,0.07523298,0.0009917939,-0.03742781,-0.01119996,0.00181554,0.996134,34.2157,5.149927,-21.48017,1005.675
2.413002968,0.07523298,0.1220172,-0.1597527,-0.01409504,-0.002583054,0.9956445,34.2157,5.149927,-21.48017,1005.675
2.415480614,0.0139995,0.0615045,-0.03742781,-0.01263497,-0.003063599,0.9951515,34.2157,5.149927,-21.48017,1005.675
2.417957783,0.0139995,0.0615045,-0.1597527,-0.01215188,-0.0001301614,0.9990252,34.2157,5.149927,-21.48017,1005.675
2.420434952,0.0139995,0.2430426,-0.1597527,-0.01412828,0.004237405,0.9971278,33.84517,5.145944,-21.47878,1005.677
2.422912598,0.2589334,0.1220172,-0.1597527,-0.01118578,-0.0001298145,0.9970893,33.84517,5.145944,-21.47878,1005.677
2.425390244,0.1976999,0.0615045,-0.09859026,-0.0097339,-0.0006162189,0.9941828,33.84517,5.145944,-21.47878,1005.677
2.427867890,0.07523298,0.1825299,-0.09859026,-0.01360213,-0.001109217,0.9999936,33.84517,5.145944,-21.47878,1005.677
2.430345059,0.07523298,0.1825299,-0.03742781,-0.01313493,-0.0006314937,0.9951667,33.84517,5.145944,-21.47878,1005.677
2.432822228,0.1976999,0.1220172,-0.09859026,-0.007780917,0.0003770713,0.9980386,33.84517,5.145944,-21.47878,1005.677
2.435299397,0.0139995,0.1220172,-0.1597527,-0.005839433,-0.0001044725,0.9960948,33.84517,5.145944,-21.47878,1005.677
2.437777042,0.0139995,0.0615045,-0.1597527,-0.01700372,-0.00161376,1.00001,33.84517,5.145944,-21.47878,1005.677
2.440254688,-0.04723396,0.0615045,-0.09859026,-0.01412396,0.0008183871,0.9927661,33.84517,5.145944,-21.47878,1005.677
2.442732334,0.0139995,0.1825299,-0.2209152,-0.01075346,0.005700563,0.990842,33.84517,5.145944,-21.47878,1005.677
2.445209503,0.0139995,0.1220172,-0.09859026,-0.01022566,0.001821745,0.9966113,33.84517,5.145944,-21.47878,1005.677
2.447686672,-0.1084674,0.2430426,-0.2209152,-0.01457318,-0.002579712,0.9980606,33.84517,5.145944,-21.47878,1005.677
2.450164318,0.0139995,0.2430426,-0.2820776,-0.0155393,-0.004046691,0.9975757,33.84517,5.145944,-21.47878,1005.677
2.452641487,0.07523298,0.1825299,-0.2209152,-0.01117051,-0.002563265,0.9975594,33.84517,5.145944,-21.47878,1005.677
2.455119610,0.0139995,0.1825299,-0.09859026,-0.01218899,0.00326542,0.9937335,33.84517,5.145944,-21.47878,1005.677
2.457596779,-0.04723396,0.0615045,-0.09859026,-0.01263276,-0.001106527,0.9990228,33.84517,5.145944,-21.47878,1005.677
2.460073948,0.1364664,0.1220172,-0.03742781,-0.01163285,-0.005970738,0.9989923,33.84517,5.145944,-21.47878,1005.675
2.465028763,0.07523298,0.0009917939,-0.09859026,-0.01411414,-0.0006412149,0.9932412,33.84517,5.145944,-21.47878,1005.675
2.467506886,-0.1697009,0.1825299,-0.09859026,-0.01413758,0.00325301,0.9927787,33.84517,5.145944,-21.47878,1005.675
2.469984055,-0.04723396,0.1220172,0.02373465,-0.01362673,-0.001126794,0.9927534,34.2157,5.149927,-21.48017,1005.675
2.472461224,0.1364664,0.1825299,-0.03742781,-0.01656925,0.001773793,0.990371,34.2157,5.149927,-21.48017,1005.675
2.474938393,0.1976999,0.2430426,-0.2209152,-0.01263384,-0.0006184308,0.9995081,34.2157,5.149927,-21.48017,1005.675
2.477416039,0.1976999,0.1825299,-0.09859026,-0.01260601,-0.003531775,1.002872,34.2157,5.149927,-21.48017,1005.675
2.479893208,-0.04723396,0.0009917939,-0.03742781,-0.01165462,-0.0006087101,1.001433,34.2157,5.149927,-21.48017,1005.675
2.482370377,0.0139995,0.0009917939,-0.2209152,-0.01264857,0.0008376556,0.9975849,34.2157,5.149927,-21.48017,1005.675
2.484848499,0.07523298,0.1220172,-0.1597527,-0.01022185,0.0008467246,0.9961237,34.2157,5.149927,-21.48017,1005.675
2.487325668,-0.04723396,0.1220172,-0.1597527,-0.01604087,-0.0001491243,0.9995291,34.2157,5.149927,-21.48017,1005.675
2.489803314,-0.04723396,0.0615045,-0.2209152,-0.01313984,-0.0006350093,0.9937186,34.2157,5.149927,-21.48017,1005.675
2.492280483,0.1364664,0.1220172,-0.03742781,-0.01505946,0.0003510362,1.002905,34.2157,5.149927,-21.48017,1005.675
2.494757652,0.0139995,0.1825299,0.02373465,-0.009724594,0.0003681758,0.9985319,34.2157,5.149927,-21.48017,1005.675
2.497234821,0.0139995,0.1825299,-0.03742781,-0.01656921,0.004707058,0.9952129,34.2157,5.149927,-21.48017,1005.675
2.499712944,-0.04723396,0.1825299,-0.1597527,-0.01554526,-0.0006288451,1.001455,34.2157,5.149927,-21.48017,1005.676
2.502190113,-0.1084674,0.3035553,-0.1597527,-0.0136316,0.001802955,0.9961473,34.2157,5.149927,-21.48017,1005.676
2.504667759,0.0139995,-0.05952091,0.08489711,-0.01409832,-0.002585398,0.9946792,34.2157,5.149927,-21.48017,1005.676
2.507144928,0.0139995,0.1825299,-0.03742781,-0.01166615,-0.003550177,0.9932129,34.2157,5.149927,-21.48017,1005.676
2.509622097,0.0139995,0.1220172,-0.2209152,-0.01217592,0.00034153,0.992753,34.2157,5.149927,-21.48017,1005.676
2.512099743,0.07523298,0.2430426,-0.1597527,-0.01120594,0.003766753,0.9975921,34.2157,5.149927,-21.48017,1005.676
2.514577389,0.07523298,0.1220172,-0.1597527,-0.008757962,-0.0006088417,0.9951428,34.2157,5.149927,-21.48017,1005.676
2.517055035,-0.04723396,0.0615045,-0.2209152,-0.01361742,-0.000142399,0.9971025,34.2157,5.149927,-21.48017,1005.676
2.519532204,0.0139995,0.1825299,-0.09859026,-0.01263384,-0.0006184308,0.9995081,34.59199,4.787215,-21.47508,1005.676
2.522009373,-0.04723396,0.3035553,0.02373465,-0.009719675,0.0003716913,0.9999799,34.59199,4.787215,-21.47508,1005.676
2.524486542,0.07523298,0.1220172,0.02373465,-0.01117268,-0.001587073,0.9985298,34.59199,4.787215,-21.47508,1005.676
2.526964665,0.07523298,0.2430426,-0.1597527,-0.01747864,-0.006007971,0.9961282,34.59199,4.787215,-21.47508,1005.676
2.529441834,0.0139995,0.2430426,-0.2209152,-0.01360437,-0.004532922,0.9937012,34.59199,4.787215,-21.47508,1005.676
2.531919479,0.0139995,0.0009917939,-0.03742781,-0.01410431,-0.0006341841,0.9961373,34.59199,4.787215,-21.47508,1005.676
2.534396649,-0.1084674,0.0615045,-0.09859026,-0.01166171,0.0003639671,1.000956,34.59199,4.787215,-21.47508,1005.676
2.536873818,0.0139995,0.0615045,-0.09859026,-0.01121797,0.003269282,0.9932454,34.59199,4.787215,-21.47508,1005.676
2.539351463,-0.04723396,0.1220172,-0.09859026,-0.01459281,0.0003394918,0.9971103,34.59199,4.787215,-21.47508,1005.68
2.541828632,0.1364664,0.3035553,-0.09859026,-0.01264749,0.0003495591,0.9970997,34.59199,4.787215,-21.47508,1005.68
2.544306755,0.0139995,0.2430426,-0.09859026,-0.01071582,0.001327617,0.9946808,34.59199,4.787215,-21.47508,1005.68
2.546783924,0.0139995,-0.05952091,-0.03742781,-0.01362234,-0.0001459145,0.9956545,34.59199,4.787215,-21.47508,1005.68
2.549261093,0.1364664,-0.1805463,0.02373465,-0.00972517,-0.001587725,0.9951431,34.59199,4.787215,-21.47508,1005.68
2.551738739,0.07523298,0.0615045,-0.09859026,-0.01311689,-0.0006186042,1.000476,34.59199,4.787215,-21.47508,1005.68
2.554215908,0.07523298,0.0009917939,-0.2209152,-0.01167485,-0.001112039,0.9946735,34.59199,4.787215,-21.47508,1005.68
2.556693077,0.07523298,0.1220172,0.02373465,-0.01119178,0.0003547661,0.9961265,34.59199,4.787215,-21.47508,1005.68
2.559171200,0.0139995,0.0615045,0.08489711,-0.01267421,0.00424144,0.9956718,34.59199,4.787215,-21.47508,1005.68
2.561648369,-0.04723396,0.1220172,-0.1597527,-0.01263659,-0.001598139,0.9970896,34.59199,4.787215,-21.47508,1005.68
2.564125538,0.0139995,0.1220172,-0.09859026,-0.01410213,-0.001610377,0.995167,34.59199,4.787215,-21.47508,1005.68
2.566603184,0.0139995,0.0615045,0.02373465,-0.01168629,0.001813023,0.9961367,34.59199,4.787215,-21.47508,1005.68
2.569080353,-0.04723396,0.0009917939,-0.03742781,-0.01121633,0.003270454,0.9937282,34.59199,4.787215,-21.47508,1005.68
2.571557522,-0.04723396,0.0615045,-0.2209152,-0.01075018,0.005702907,0.9918075,33.83859,5.50422,-21.92862,1005.68
2.574035645,0.0139995,0.1220172,-0.03742781,-0.01362451,0.000830278,0.9966248,33.83859,5.50422,-21.92862,1005.68
2.576512814,0.1364664,0.1220172,-0.09859026,-0.01311472,-0.001594797,0.9995057,33.83859,5.50422,-21.92862,1005.68
2.578990460,0.07523298,-0.1200336,0.02373465,-0.01412557,0.002283848,0.9947043,33.83859,5.50422,-21.92862,1005.68
2.581467629,0.0139995,0.1220172,0.02373465,-0.01607803,0.0003131926,0.9893955,33.83859,5.50422,-21.92862,1005.678
2.583944798,0.1364664,0.1220172,-0.09859026,-0.01507315,-0.001614239,0.9956548,33.83859,5.50422,-21.92862,1005.678
2.586421967,0.0139995,0.1825299,-0.09859026,-0.01359994,-0.0006187777,1.001444,33.83859,5.50422,-21.92862,1005.678
2.588900089,0.0139995,0.0615045,-0.1597527,-0.008761196,0.002322079,0.9990192,33.83859,5.50422,-21.92862,1005.678
2.591377258,0.0139995,0.0615045,-0.4044026,-0.0068056,-0.004504716,0.990768,33.83859,5.50422,-21.92862,1005.678
