Time (s),Gyroscope X (deg/s),Gyroscope Y (deg/s),Gyroscope Z (deg/s),Accelerometer X (g),Accelerometer Y (g),Accelerometer Z (g),Magnetometer X (uT),Magnetometer Y (uT),Magnetometer Z (uT),Barometer (hPa)
0.000000000,0.1976999,0.1220172,-0.1597527,-0.006340518,-0.0001175352,0.9917534,42.23139,-9.88611,-22.50929,1009.863
0.009907722,0.2589334,0.1220172,0.02373465,-0.001962953,0.00332765,0.9975393,42.24371,-10.61108,-22.05297,1009.864
0.029724121,0.2589334,0.1220172,-0.1597527,-0.003385407,-0.002031384,0.9994502,42.24371,-10.61108,-22.05297,1009.864
0.049540520,0.0139995,0.1825299,-0.1597527,-0.006308302,-0.00205,0.998018,42.24371,-10.61108,-22.05297,1009.867
0.069356918,0.0139995,-0.05952091,-0.1597527,-0.006272831,-0.005446753,1.002827,41.87235,-10.62348,-22.49494,1009.867
0.089172840,0.1364664,0.0615045,-0.03742781,-0.00244277,0.0003965548,0.9946307,41.87235,-10.62348,-22.49494,1009.864
0.108989239,0.1364664,0.1220172,-0.2209152,-0.007798421,-0.0006131826,0.9912761,41.49606,-10.26077,-22.50003,1009.864
0.128806114,0.1976999,0.1220172,-0.1597527,-0.004367881,-0.0005768158,0.9989803,41.49606,-10.26077,-22.50003,1009.866
0.148622513,0.1364664,0.1220172,-0.2820776,-0.004363562,-0.003995833,0.9946187,41.49606,-10.26077,-22.50003,1009.866
0.168438911,0.1364664,-0.05952091,-0.2820776,-0.005330747,-0.003508084,0.9970399,42.22564,-9.519415,-22.51577,1009.863
0.188255310,0.2589334,0.0009917939,-0.2820776,-0.00726512,-0.002532584,1.001882,42.22564,-9.519415,-22.51577,1009.863
0.208071232,0.1364664,-0.05952091,-0.09859026,-0.007789114,0.0003712124,0.9956252,42.60768,-10.24882,-22.5042,1009.866
0.227887631,0.1364664,0.1220172,-0.1597527,-0.006764102,-0.006919419,0.9989609,42.60768,-10.24882,-22.5042,1009.866
0.250181198,0.0139995,0.0615045,-0.2209152,-0.006289758,-0.004481107,0.9994535,42.60768,-10.24882,-22.5042,1009.866
0.269997120,0.3201669,0.1220172,-0.09859026,-0.01360054,-0.00404131,0.9956343,42.597,-9.507012,-22.0738,1009.866
0.289813519,-0.04723396,0.1220172,-0.2209152,-0.007305578,-0.003539243,0.9883622,42.597,-9.507012,-22.0738,1009.865
0.309630394,0.1364664,0.1220172,-0.1597527,-0.001514888,0.002813947,0.9854672,42.23714,-10.25281,-22.50281,1009.865
0.329446793,0.1976999,0.1220172,-0.3432401,-0.002412195,-0.001537082,1.000413,42.23714,-10.25281,-22.50281,1009.868
0.349263191,0.1976999,0.2430426,-0.09859026,-0.005812158,-0.003507085,0.9984906,42.23714,-10.25281,-22.50281,1009.868
0.369079590,0.07523298,-0.1200336,0.02373465,-0.006791352,-0.002050174,0.998986,42.23221,-9.877691,-22.06593,1009.866
0.388895512,-0.04723396,0.1220172,-0.09859026,-0.005372731,0.002817248,0.9951419,42.23221,-9.877691,-22.06593,1009.866
0.408711910,0.07523298,0.1220172,-0.09859026,-0.006354166,0.0008504548,0.989345,42.23221,-9.877691,-22.06593,1009.867
0.428528309,0.1364664,0.1220172,-0.1597527,-0.004355895,-0.00301261,0.9984851,42.6085,-10.2404,-22.06084,1009.867
0.448344708,0.1364664,0.2430426,-0.1597527,-0.002441684,-9.154109E-05,0.9941456,42.6085,-10.2404,-22.06084,1009.864
0.468161583,0.2589334,0.0615045,-0.1597527,-0.01019076,-0.003530909,0.9980317,42.62,-10.97379,-22.04788,1009.864
0.487977982,0.1364664,0.1825299,-0.2209152,-0.006322483,-0.0001046457,0.9970627,42.62,-10.97379,-22.04788,1009.869
0.510271073,0.1364664,0.1825299,-0.1597527,-0.003888664,-0.001068254,0.9960791,42.61343,-10.61552,-22.49772,1009.869
0.530087471,0.1364664,0.0009917939,-0.1597527,-0.003365247,-0.005927951,0.9989473,42.61343,-10.61552,-22.49772,1009.868
0.549903870,0.07523298,0.1220172,-0.2209152,-0.007776021,-0.001086046,0.9970657,42.61343,-10.61552,-22.49772,1009.868
0.569720268,0.0139995,-0.1805463,-0.1597527,-0.008231819,-0.005955463,0.9980085,42.60192,-9.882128,-22.51068,1009.867
0.589536667,0.07523298,0.2430426,-0.2209152,-0.004858065,-0.002537577,0.9946288,42.60192,-9.882128,-22.51068,1009.867
0.609352589,0.0139995,0.0615045,-0.2209152,-0.005381484,0.002322121,0.9917607,42.60192,-9.882128,-22.51068,1009.87
0.629168987,0.1364664,0.1825299,-0.2209152,-0.00530673,-0.005446407,1.000891,42.97904,-10.23642,-22.06223,1009.87
0.648985863,0.1976999,0.1220172,-0.2820776,-0.006825208,-0.0001188805,0.9922387,42.97904,-10.23642,-22.06223,1009.868
0.668802262,0.07523298,0.2430426,0.02373465,-0.00533294,-0.003998524,0.9955893,42.60768,-10.24882,-22.5042,1009.868
0.688618660,0.0139995,0.2430426,-0.2209152,-0.005329084,-0.00204028,0.9999435,42.60768,-10.24882,-22.5042,1009.867
0.708435059,0.1976999,0.364068,-0.1597527,-0.004370143,-0.005467152,0.9902671,42.60768,-10.24882,-22.5042,1009.867
0.728251457,0.0139995,0.1825299,-0.1597527,-0.003377786,-0.003981425,0.9984748,42.6085,-10.2404,-22.06084,1009.868
0.748067379,0.1364664,0.1825299,-0.2820776,-0.004824811,-0.007891403,0.9955665,42.6085,-10.2404,-22.06084,1009.868
0.767883778,0.0139995,0.364068,-0.2209152,-0.006339964,0.0003717325,0.9927212,42.6085,-10.2404,-22.06084,1009.867
0.790177822,0.1976999,-0.05952091,-0.2820776,-0.00486243,-0.002051824,0.9941488,42.6085,-10.2404,-22.06084,1009.867
0.809994221,0.1364664,0.0615045,-0.09859026,-0.006266827,-0.005931335,1.00379,42.6085,-10.2404,-22.06084,1009.869
0.829810620,0.07523298,0.1220172,-0.2820776,-0.008231241,-0.003999563,1.001397,42.23221,-9.877691,-22.06593,1009.869
0.849626541,0.1364664,0.2430426,-0.1597527,-0.006321419,-0.002059374,0.9941567,42.23221,-9.877691,-22.06593,1009.87
0.869442940,0.1976999,0.1220172,-0.2820776,-0.004842801,-0.004971027,0.995099,42.23867,-10.23717,-21.67944,1009.87
0.889259339,0.2589334,0.1220172,-0.2820776,-0.004361877,-0.001061396,0.9999433,42.23867,-10.23717,-21.67944,1009.869
0.909075737,0.07523298,0.3035553,-0.09859026,-0.005825806,-0.002539095,0.9960822,42.23867,-10.23717,-21.67944,1009.869
0.928892136,0.0139995,0.2430426,-0.2820776,-0.00580447,-0.001057229,1.004778,42.597,-9.507012,-22.0738,1009.87
0.948709011,0.1976999,0.1220172,-0.03742781,-0.00484989,-0.00399835,0.9946213,42.597,-9.507012,-22.0738,1009.87
0.968525410,0.07523298,0.1220172,-0.09859026,-0.007766183,-0.001079015,0.9999618,42.60921,-10.23319,-21.68082,1009.869
0.988341808,0.07523298,0.1220172,-0.09859026,-0.00876667,0.001829296,0.9966034,42.60921,-10.23319,-21.68082,1009.869
1.008158207,0.07523298,0.2430426,-0.03742781,-0.005829639,-0.003030706,0.994149,42.60921,-10.23319,-21.68082,1009.873
1.027974129,0.0139995,0.2430426,-0.1597527,-0.002422564,-0.0005667484,0.9989697,42.98972,-10.97823,-22.49262,1009.873
1.050267696,0.0139995,0.0009917939,-0.1597527,-0.004859661,0.0003945162,0.998988,42.98972,-10.97823,-22.49262,1009.874
1.070084095,0.0139995,-0.1200336,-0.09859026,-0.006267381,-0.006420603,1.002822,42.6085,-10.2404,-22.06084,1009.874
1.089900970,0.1364664,0.1220172,-0.2209152,-0.003885916,-8.854596E-05,0.9984976,42.6085,-10.2404,-22.06084,1009.875
1.109717369,0.1364664,0.1220172,-0.1597527,-0.008280361,0.0003651804,0.9941799,42.6085,-10.2404,-22.06084,1009.875
1.129533768,0.1364664,-0.05952091,-0.2209152,-0.00680828,-0.001084527,0.9956123,42.97904,-10.23642,-22.06223,1009.876
1.149349690,0.1364664,0.0615045,-0.1597527,-0.008738842,-0.001084048,0.9999671,42.97904,-10.23642,-22.06223,1009.876
1.169166088,0.07523298,0.2430426,-0.2209152,-0.01213116,-0.003537461,0.9994903,42.97246,-9.878145,-22.51206,1009.878
1.188982487,0.1364664,0.1825299,-0.1597527,-0.01017381,-0.003029923,1.003826,42.97246,-9.878145,-22.51206,1009.878
1.208798885,0.07523298,0.2430426,-0.1597527,-0.009217571,-0.004503239,0.9965733,42.97246,-9.878145,-22.51206,1009.877
1.228615284,0.1976999,0.0615045,-0.09859026,-0.004378782,0.001370882,0.9989904,42.97904,-10.23642,-22.06223,1009.877
1.248432159,0.1976999,0.1220172,-0.1597527,-0.005797402,-0.003496539,1.002835,42.97904,-10.23642,-22.06223,1009.878
1.268248558,-0.04723396,0.1220172,-0.2209152,-0.00923771,0.0008599609,0.9994971,42.23221,-9.877691,-22.06593,1009.878
1.288064957,0.0139995,0.1220172,0.02373465,-0.007274426,-0.003516979,0.9975331,42.23221,-9.877691,-22.06593,1009.877
1.307881355,0.0139995,0.1220172,-0.03742781,-0.009226301,-0.003531734,0.995613,42.23221,-9.877691,-22.06593,1009.877
1.330174446,-0.04723396,0.2430426,-0.3432401,-0.0048837,0.0008662079,0.9927158,43.34371,-9.866945,-22.13343,1009.878
1.349990845,0.07523298,0.1220172,-0.2209152,-0.006769506,-0.003012304,1.003808,43.34371,-9.866945,-22.13343,1009.878
1.369807243,0.0139995,0.1220172,0.02373465,-0.00724549,-0.005451787,1.002832,42.60275,-9.873708,-22.06732,1009.876
1.389624119,0.1976999,0.0615045,-0.1597527,-0.004893492,0.003792442,0.9946615,42.60275,-9.873708,-22.06732,1009.876
1.409440518,-0.04723396,0.0009917939,-0.1597527,-0.001469003,0.001380124,0.9965611,42.60275,-9.873708,-22.06732,1009.879
1.429256916,0.0139995,0.1220172,-0.2209152,-0.005799019,-0.002031079,1.004773,42.98396,-10.61154,-22.49911,1009.879
1.449073315,0.1364664,0.1220172,-0.2209152,-0.003880512,-0.00399566,0.9936507,42.98396,-10.61154,-22.49911,1009.882
1.468889713,0.0139995,0.0615045,-0.2209152,-0.00581486,-0.001553528,1.000914,42.97317,-9.870928,-22.13205,1009.882
1.488706112,0.1976999,0.2430426,-0.2820776,-0.006318095,0.000876234,0.9999639,42.97317,-9.870928,-22.13205,1009.882
1.508522987,0.0139995,0.1220172,-0.2209152,-0.006299041,-0.00399887,0.9975253,42.97317,-9.870928,-22.13205,1009.882
1.528338432,0.07523298,-0.05952091,-0.1597527,-0.006306686,-0.003515461,0.9960799,42.23714,-10.25281,-22.50281,1009.881
1.548155308,0.07523298,0.2430426,-0.2820776,-0.008750296,0.0003743812,0.9990092,42.23714,-10.25281,-22.50281,1009.881
1.567971707,0.1364664,0.1220172,-0.1597527,-0.008762372,-0.003056354,0.9898208,42.23714,-10.25281,-22.50281,1009.883
1.590265274,0.1364664,0.3035553,-0.2209152,-0.004370607,-8.989125E-05,0.9989828,42.97246,-9.878145,-22.51206,1009.883
1.610081673,0.1364664,0.0009917939,-0.3432401,-0.0004696019,-0.00104009,1.000405,42.97246,-9.878145,-22.51206,1009.884
1.629898548,0.07523298,0.0615045,-0.2820776,-0.007736692,-0.002524555,1.006229,41.87235,-10.62348,-22.49494,1009.884
1.649714947,0.1976999,0.2430426,-0.2820776,-0.008726878,-0.004986475,0.9970508,41.87235,-10.62348,-22.49494,1009.885
1.669531346,0.0139995,0.0615045,-0.1597527,-0.007779808,0.001355608,0.9999744,41.87235,-10.62348,-22.49494,1009.885
1.689347744,0.07523298,0.364068,-0.2820776,-0.01069238,-0.002566607,0.9951434,42.59618,-9.515432,-22.51716,1009.887
1.709164143,0.0139995,0.1220172,-0.1597527,-0.002899101,-0.003495499,0.9970266,42.59618,-9.515432,-22.51716,1009.887
1.728980065,0.2589334,-0.1200336,-0.2820776,-0.007759092,-0.002051692,1.000439,42.97892,-10.23762,-22.12557,1009.886
1.748796463,0.07523298,0.1825299,-0.2209152,-0.004365733,-0.003019641,0.995589,42.97892,-10.23762,-22.12557,1009.886
1.768612862,0.1976999,0.0009917939,-0.3432401,-0.002437874,-0.001066562,0.9936578,42.97892,-10.23762,-22.12557,1009.886
1.788429260,0.1976999,0.2430426,-0.1597527,-0.002921455,-8.937111E-05,0.9960789,42.59618,-9.515432,-22.51716,1009.886
1.808246136,0.07523298,0.2430426,-0.09859026,-0.009233369,-0.001092424,0.9975563,42.59618,-9.515432,-22.51716,1009.887
1.828062535,0.2589334,0.0615045,-0.2820776,-0.005825275,-0.003516459,0.9946291,42.23139,-9.88611,-22.50929,1009.887
1.847878933,0.1364664,0.2430426,-0.2209152,-0.004817698,-0.007397448,0.9984652,42.23139,-9.88611,-22.50929,1009.888
1.870172501,-0.04723396,0.2430426,-0.03742781,-0.003901249,-0.002054993,0.9907646,42.23139,-9.88611,-22.50929,1009.888
1.889989376,0.1976999,0.0615045,-0.09859026,-0.00193896,-7.730699E-05,0.9989696,42.60839,-10.24161,-22.12418,1009.888
1.909805775,-0.1697009,0.1220172,-0.2209152,-0.004376633,-0.001071943,0.9955991,42.60839,-10.24161,-22.12418,1009.888
1.929622174,0.07523298,0.1220172,-0.1597527,-0.008255281,-0.003527872,0.9951251,41.86156,-9.882876,-22.12788,1009.888
1.949438572,0.1364664,0.0615045,-0.09859026,-0.005371138,-0.0001148453,0.9907826,41.86156,-9.882876,-22.12788,1009.888
1.969254971,0.2589334,0.0009917939,-0.3432401,-0.005327513,-0.006439005,0.9931633,41.86156,-9.882876,-22.12788,1009.888
1.989071369,0.1976999,0.2430426,-0.2209152,-0.0077793,-0.001088389,0.9961004,42.61343,-10.61552,-22.49772,1009.888
2.008887291,0.1364664,0.0615045,-0.1597527,-0.005350908,0.0003884842,0.9975427,42.61343,-10.61552,-22.49772,1009.889
2.028703690,-0.04723396,0.1825299,-0.2820776,-0.009218059,-0.0005926101,1.002868,42.60263,-9.87491,-22.13066,1009.889
2.048520565,0.07523298,0.1825299,-0.4044026,-0.002890903,-0.00348964,0.99944,42.60263,-9.87491,-22.13066,1009.89
2.068336964,0.07523298,0.2430426,-0.2209152,-0.01016568,-0.007423962,0.9989769,42.60263,-9.87491,-22.13066,1009.89
2.088153362,0.07523298,0.0615045,-0.2209152,-0.003393028,-8.134195E-05,1.000426,42.60192,-9.882128,-22.51068,1009.89
2.107969761,0.2589334,0.2430426,-0.2820776,-0.004841139,-0.003503223,0.9980025,42.60192,-9.882128,-22.51068,1009.89
2.130263805,0.07523298,0.1220172,-0.1597527,-0.002908916,-0.002035898,0.9965515,43.34371,-9.866945,-22.13343,1009.891
2.150080204,0.07523298,0.0009917939,-0.1597527,-0.00727498,-0.004006248,0.9965652,43.34371,-9.866945,-22.13343,1009.891
2.169896603,0.0139995,0.2430426,-0.09859026,-0.006773295,-0.0005706514,1.006716,43.34371,-9.866945,-22.13343,1009.89
2.189713001,0.1364664,0.0009917939,-0.2209152,-0.009242674,-0.00207682,0.9932072,42.97246,-9.878145,-22.51206,1009.89
2.209529400,0.0139995,0.0009917939,-0.09859026,-0.007273895,-0.004494343,0.9960801,42.97246,-9.878145,-22.51206,1009.891
2.229345799,-0.04723396,0.0615045,-0.1597527,-0.003352684,-0.006407845,1.001841,42.23785,-10.24559,-22.12279,1009.891
2.249162674,0.1364664,0.0615045,-0.03742781,-0.0004728583,0.000424199,1.00186,42.23785,-10.24559,-22.12279,1009.89
2.268979073,-0.04723396,0.0615045,-0.2820776,-0.00677006,-0.003501572,1.00284,42.23785,-10.24559,-22.12279,1009.89
2.288795471,-0.04723396,0.1825299,-0.1597527,-0.003860282,-0.00349233,1.000411,42.60839,-10.24161,-22.12418,1009.892
2.308611870,0.1364664,0.1220172,-0.09859026,-0.005836708,-0.0005913971,0.9960923,42.60839,-10.24161,-22.12418,1009.892
2.328428269,-0.04723396,0.0615045,-0.2209152,-0.005322549,-0.003502225,0.9994532,42.60768,-10.24882,-22.5042,1009.893
2.348244667,0.0139995,-0.1200336,-0.1597527,-0.003417091,-0.001076283,0.9917325,42.60768,-10.24882,-22.5042,1009.893
2.368061543,0.07523298,0.2430426,-0.2209152,-0.007769485,-0.002547991,0.9965754,42.60768,-10.24882,-22.5042,1009.894
2.387877941,0.3201669,0.1220172,-0.2820776,-0.007746021,-0.004975582,0.9994589,42.96742,-9.504232,-22.13853,1009.894
2.410171032,0.0139995,0.1220172,0.02373465,-0.008743737,0.0003790685,1.00094,42.96742,-9.504232,-22.13853,1009.896
2.429987431,0.1976999,0.2430426,-0.1597527,-0.007788006,0.001349749,0.997561,41.87235,-10.62348,-22.49494,1009.896
2.449803829,0.1364664,0.1220172,-0.2820776,-0.00340014,-0.000575297,0.9975271,41.87235,-10.62348,-22.49494,1009.897
2.469620228,0.0139995,-0.05952091,-0.1597527,-0.005324719,-0.002526033,1.000424,41.87235,-10.62348,-22.49494,1009.897
2.489436627,0.07523298,0.1825299,-0.2209152,-0.01215354,-0.001597966,0.9961217,42.23785,-10.24559,-22.12279,1009.898
2.509253502,0.0139995,0.1825299,-0.1597527,-0.003395799,-0.002527683,0.9955862,42.23785,-10.24559,-22.12279,1009.898
2.529069901,0.07523298,0.1825299,-0.09859026,-0.00580232,-0.003500054,1.001387,42.61343,-10.61552,-22.49772,1009.897
2.548886299,0.1364664,0.0009917939,-0.3432401,-0.00925249,-0.0006172175,0.9927321,42.61343,-10.61552,-22.49772,1009.897
2.568702698,0.1976999,0.1825299,-0.2209152,-0.005342755,-0.002538922,0.9951142,42.61343,-10.61552,-22.49772,1009.898
2.588519097,0.1364664,0.0009917939,-0.2209152,-0.008745953,-0.001578004,0.9970685,42.23714,-10.25281,-22.50281,1009.898
2.608335495,0.1364664,0.3035553,-0.2820776,-0.003872314,-0.003989801,0.9960641,42.23714,-10.25281,-22.50281,1009.898
2.628152371,0.07523298,0.1825299,-0.03742781,-0.009694041,-0.003032093,1.001893,42.23785,-10.24559,-22.12279,1009.898
2.647968769,0.1364664,0.1220172,-0.2209152,-0.004854719,0.001864664,1.002857,42.23785,-10.24559,-22.12279,1009.899
2.670262337,0.1976999,0.1220172,-0.1597527,-0.007258561,-0.002527897,1.003813,42.23785,-10.24559,-22.12279,1009.899
2.690078736,0.3814003,0.1825299,-0.2209152,-0.007290777,-0.0005954322,0.9975483,42.2436,-10.61228,-22.11631,1009.898
2.709895611,0.1364664,0.1825299,-0.3432401,-0.0068056,-0.004504716,0.990768,42.2436,-10.61228,-22.11631,1009.898
2.729712010,0.1364664,-0.05952091,-0.2820776,-0.0005116316,0.002351977,0.9936649,42.97975,-10.2292,-21.68221,1009.899
2.749528408,0.1364664,0.1220172,-0.2209152,-0.0004521885,-0.005916364,0.9974835,42.97975,-10.2292,-21.68221,1009.899
2.769344807,0.0139995,0.3035553,-0.1597527,-0.0126131,-0.002559098,1.002394,42.97975,-10.2292,-21.68221,1009.898
2.789161205,0.07523298,0.1825299,-0.2209152,-0.005823036,-9.275461E-05,1.000922,42.97317,-9.870928,-22.13205,1009.898
2.808977604,0.07523298,0.1220172,-0.03742781,-0.008228008,-0.006930484,0.9975209,42.97317,-9.870928,-22.13205,1009.893
2.828794480,0.1364664,0.1220172,-0.09859026,-0.006294123,-0.003995355,0.9989733,42.97317,-9.870928,-22.13205,1009.893
2.848610878,0.1364664,0.0009917939,-0.2209152,-0.005803983,-0.004967859,0.9984831,42.61343,-10.61552,-22.49772,1009.893
2.868427277,0.1976999,0.0009917939,-0.1597527,-0.005817608,-0.002533236,0.9984956,42.61343,-10.61552,-22.49772,1009.893
2.888243675,0.0139995,0.3035553,-0.09859026,-0.01019455,-0.001089256,1.00094,42.2321,-9.878894,-22.12927,1009.892
2.908060074,0.0139995,0.1825299,-0.4044026,-0.007289692,-0.001083529,0.997063,42.2321,-9.878894,-22.12927,1009.892
2.927876473,0.07523298,0.1220172,-0.09859026,-0.0097115,-0.001089082,0.9999724,42.2321,-9.878894,-22.12927,1009.893
2.950170517,0.0139995,0.0009917939,-0.2209152,-0.001002325,0.002835213,0.9931872,42.96601,-9.518665,-22.89856,1009.893
2.969986916,0.0139995,0.0009917939,-0.03742781,-0.002901249,-0.001052674,1.000418,42.96601,-9.518665,-22.89856,1009.892
2.989803314,0.1364664,0.0615045,-0.2209152,-0.009231197,-0.002068617,0.9965859,42.23714,-10.25281,-22.50281,1009.892
3.009619713,0.1976999,0.1220172,-0.2820776,-0.0048613,0.0003933446,0.9985054,42.23714,-10.25281,-22.50281,1009.887
3.029436588,0.07523298,0.0615045,-0.1597527,-0.006300704,-0.005466674,0.9946217,42.23714,-10.25281,-22.50281,1009.887
3.049252987,0.0139995,0.0615045,-0.03742781,-0.005784885,-0.006909698,1.000886,42.96671,-9.51145,-22.51855,1009.888
3.069069386,0.0139995,0.0615045,-0.1597527,-0.005843797,0.00038128,0.9956146,42.96671,-9.51145,-22.51855,1009.888
3.088885784,0.1976999,0.1220172,-0.09859026,-0.005817608,-0.002533236,0.9984956,42.60768,-10.24882,-22.5042,1009.887
3.108702183,0.1364664,0.1825299,-0.2209152,-0.007787452,0.001839017,0.9985288,42.60768,-10.24882,-22.5042,1009.887
3.128518581,-0.1084674,0.1825299,-0.1597527,-0.004864624,-0.002542264,0.9926982,42.60768,-10.24882,-22.5042,1009.886
3.148335457,0.2589334,0.1220172,-0.1597527,-0.008267776,0.001351919,0.9994943,42.60839,-10.24161,-22.12418,1009.886
3.168151856,0.1976999,0.2430426,-0.2209152,-0.005349845,-0.001566245,0.9946365,42.60839,-10.24161,-22.12418,1009.888
3.187968254,-0.1085383,0.0008578508,-0.2207263,-0.006771168,-0.004480109,1.000904,42.2321,-9.878894,-22.12927,1009.888
3.210261822,0.01373548,0.2425834,-0.09781647,-0.006786433,-0.002046658,1.000434,42.2321,-9.878894,-22.12927,1009.887
3.230078220,0.07474221,0.06079711,-0.4031912,-0.002917113,-0.002041757,0.9941382,42.2321,-9.878894,-22.12927,1009.887
3.249895096,0.07457381,0.1210242,-0.1581434,-0.004848228,-0.002530546,0.997525,42.60263,-9.87491,-22.13066,1009.89
3.269711495,0.1355432,0.3022204,-0.1577656,-0.005803452,-0.005945223,0.9970299,42.60263,-9.87491,-22.13066,1009.89
3.289527893,0.135299,0.1203224,-0.279752,-0.005350885,0.001855117,0.9999636,42.60192,-9.882128,-22.51068,1009.887
3.309344292,0.2576184,0.05939364,-0.1570126,-0.007282601,-0.002056206,0.9975407,42.60192,-9.882128,-22.51068,1009.887
3.329160690,0.1961417,-0.06202777,-0.1565608,-0.005807794,-0.003992838,0.9989706,42.60192,-9.882128,-22.51068,1009.885
3.348977089,0.0121603,0.1797798,-0.1563405,-0.005826315,-9.509805E-05,0.9999563,43.34946,-10.23364,-22.12696,1009.885
3.368794441,0.318105,0.1189868,-0.3393778,-0.008720896,-0.006937689,0.9955927,43.34946,-10.23364,-22.12696,1009.888
3.388610363,0.07298751,0.2396565,-0.1554799,-0.007285859,-0.0005919172,0.9989962,42.61343,-10.61552,-22.49772,1009.888
3.408427239,0.1341723,0.05780168,0.02839783,-0.007310429,0.000857139,0.9941771,42.61343,-10.61552,-22.49772,1009.887
3.428244114,0.1952035,0.1785679,-0.277217,-0.003388155,-0.003011092,0.9970317,42.61343,-10.61552,-22.49772,1009.887
3.448060513,0.133749,0.2387274,-0.2155889,-0.005836175,-0.001568761,0.9946392,42.60263,-9.87491,-22.13066,1009.886
3.467876911,0.01106166,0.1173496,0.0294679,-0.00438594,-0.002056338,0.99125,42.60263,-9.87491,-22.13066,1009.886
3.490170479,0.1332283,0.2381195,-0.03143229,-0.004373332,0.0003970331,0.9989853,42.97246,-9.878145,-22.51206,1009.887
3.509987354,0.07171804,-0.1856683,-0.1534095,-0.003878272,-0.000571955,0.9999431,42.97246,-9.878145,-22.51206,1009.887
3.529803753,0.07157651,0.0562028,-0.2142444,-0.007767823,-0.001080187,0.9994791,42.97246,-9.878145,-22.51206,1009.887
3.549620152,0.07133918,0.1163085,-0.09151591,-0.004394669,-0.001084832,0.9902897,42.97176,-9.885361,-22.89208,1009.887
3.569436550,0.1322782,0.1161114,-0.2134766,-0.005351484,-0.001567416,0.994154,42.97176,-9.885361,-22.89208,1009.886
3.589252949,0.1320422,0.115801,-0.09055826,-0.005352593,-0.002545953,0.9922181,42.96263,-9.198653,-22.14393,1009.886
3.609069348,0.009263059,0.2970673,-0.2736262,-0.009703347,-0.004016488,0.9975439,42.96263,-9.198653,-22.14393,1009.885
3.628886223,0.009047579,0.2967393,-0.1508255,-0.001925888,-0.003001197,0.9979892,42.96263,-9.198653,-22.14393,1009.885
3.648702622,0.3150385,-0.00630321,-0.2114749,-0.001441175,-0.00153322,0.9999248,42.61918,-10.98221,-22.49124,1009.884
3.668519020,0.008656804,0.1144532,-0.2110784,-0.0107027,0.001336991,0.9985422,42.61918,-10.98221,-22.49124,1009.884
3.688335419,0.06984933,-0.006821519,-0.2106829,-0.005325251,-0.001548668,1.001877,42.60192,-9.882128,-22.51068,1009.884
3.708151817,0.1307152,0.05353741,-0.21025,-0.005818717,-0.003511772,0.9965598,42.60192,-9.882128,-22.51068,1009.884
3.727968216,0.06932648,0.05325107,-0.08755083,-0.007244936,-0.00496252,1.0038,42.60192,-9.882128,-22.51068,1009.884
3.750262261,0.007743518,0.1739171,-0.148255,-0.009237247,-0.004517301,0.9907812,42.60263,-9.87491,-22.13066,1009.884
3.770078659,-0.05362467,0.05249313,-0.2090837,-0.007272786,-0.003515807,0.9980158,42.60263,-9.87491,-22.13066,1009.884
3.789895058,0.1297299,0.1731589,-0.147454,-0.004391921,-0.0001051242,0.9927081,42.59618,-9.515432,-22.51716,1009.884
3.809711456,0.1905992,0.05186979,-0.2080925,-0.005791974,-0.00593702,1.000409,42.59618,-9.515432,-22.51716,1009.883
3.829528332,0.06782685,0.05162568,-0.1466573,-0.007736738,-0.00545782,1.001387,42.59618,-9.515432,-22.51716,1009.883
3.849345207,0.1288708,-0.009206593,-0.02394499,-0.009716419,-0.001092598,0.9985244,42.61414,-10.6083,-22.1177,1009.884
3.869161606,-0.05517237,-0.009506284,-0.2682467,-0.001424248,-0.002498867,1.003299,42.61414,-10.6083,-22.1177,1009.884
3.888978005,0.06708715,0.1718087,-0.2678228,-0.008261795,-0.0005992944,0.9980362,42.60192,-9.882128,-22.51068,1009.883
3.908794880,0.005704549,0.1713204,-0.08393186,-0.004380466,-0.001563555,0.9936659,42.60192,-9.882128,-22.51068,1009.883
3.928611279,0.127792,0.2314219,-0.2058733,-0.008724662,-0.003029403,1.000922,42.60192,-9.882128,-22.51068,1009.884
3.948427677,0.1888007,0.2311638,-0.1442899,-0.004846566,-0.001062742,1.000428,42.59689,-9.508215,-22.13714,1009.884
3.968244076,0.1273239,0.04933033,-0.02150677,-0.004377741,-0.002050479,0.9936634,42.59689,-9.508215,-22.13714,1009.885
3.988060474,-0.0567153,0.1095104,-0.2046137,-0.007291863,-0.0001073361,0.9980334,42.59689,-9.508215,-22.13714,1009.885
4.007876873,0.1268392,0.1091785,-0.2653968,-0.001941685,0.0004096173,0.9989721,42.60263,-9.87491,-22.13066,1009.881
4.030170918,0.1266348,0.04854726,-0.08150553,-0.00584927,-0.0001115033,0.9931987,42.60263,-9.87491,-22.13066,1009.881
4.049987316,0.1874927,0.04819746,-0.1422138,-0.004885871,0.0018424,0.9936862,42.60263,-9.87491,-22.13066,1009.886
4.069803715,0.0648626,0.2293866,-0.3253248,-0.002918776,-0.003509561,0.9912345,42.60263,-9.87491,-22.13066,1009.886
4.089620113,0.06477661,0.1685639,-0.2027014,-0.007283709,-0.003034742,0.9956049,42.60192,-9.882128,-22.51068,1009.885
4.109436989,0.00320757,0.1683117,-0.2632398,-0.009214824,-0.003523531,0.9989917,42.60192,-9.882128,-22.51068,1009.885
4.129253864,0.002930433,0.04693969,-0.07936031,-0.005323657,-0.004480761,0.9975175,42.60192,-9.882128,-22.51068,1009.884
4.149070263,0.06394518,0.1072016,-0.07910359,-0.008214314,-0.00496521,1.004771,42.24289,-10.6195,-22.49633,1009.884
4.168886662,0.002435849,0.04638181,-0.07878977,-0.004850908,0.0008896437,1.002369,42.24289,-10.6195,-22.49633,1009.887
4.188703537,0.1858994,0.1066262,-0.2007249,-0.005332387,-0.003509256,0.9965572,42.24289,-10.6195,-22.49633,1009.887
4.208519936,0.06313876,0.1063016,-0.1392506,-0.004369012,-0.003021984,0.9946237,42.23714,-10.25281,-22.50281,1009.882
4.228336334,0.06296094,-0.07544643,-0.01661448,-0.006808302,-0.00255116,0.9931914,42.23714,-10.25281,-22.50281,1009.882
4.248152733,0.06276446,0.04535058,-0.1386098,-0.00534712,-0.00205317,0.994634,42.60768,-10.24882,-22.5042,1009.88
4.267969132,0.1849969,0.2265849,-0.07698415,-0.006282668,-0.005453784,0.9999312,42.60768,-10.24882,-22.5042,1009.88
4.290263176,0.06235341,-0.07633359,-0.07684349,-0.005323103,-0.003991493,0.9984854,42.60768,-10.24882,-22.5042,1009.88
4.310079575,0.3071692,0.1049973,-0.1988603,-0.003880466,-0.001062395,0.9984925,42.24289,-10.6195,-22.49633,1009.88
4.329895973,0.1231589,0.04425893,-0.1372754,-0.009221913,-0.002550854,0.9985142,42.24289,-10.6195,-22.49633,1009.878
4.349712372,0.1842369,-0.0164029,-0.1370076,-0.004848228,-0.002530546,0.997525,42.96671,-9.51145,-22.51855,1009.878
4.369529724,0.06155729,-0.01658965,-0.1979222,-0.006311005,-9.644334E-05,1.000441,42.96671,-9.51145,-22.51855,1009.879
4.389346123,0.1838889,0.1041545,-0.1363397,-0.01067709,-0.003533426,0.9980344,42.96671,-9.51145,-22.51855,1009.879
4.409162521,-2.326909E-05,0.2250324,-0.0749118,-0.003372336,-0.004955275,0.9984698,42.97317,-9.870928,-22.13205,1009.877
4.428978920,-0.06141041,-0.01724147,-0.1357134,-0.005329107,-0.003506912,0.9975226,42.97317,-9.870928,-22.13205,1009.877
4.448795319,0.122175,0.1639981,-0.1965736,-0.004839522,-0.004968684,0.9960644,42.61343,-10.61552,-22.49772,1009.874
4.468612194,-0.0002910532,-0.07833154,-0.07387041,-0.009236649,-0.001094768,0.9965909,42.61343,-10.61552,-22.49772,1009.874
4.488428593,-0.06171607,0.2239538,-0.1957603,-0.004838944,-0.003012783,0.9994531,42.61343,-10.61552,-22.49772,1009.873
4.508244991,-0.0003661262,0.2235055,-0.1340871,-0.004846611,-0.003996007,0.9955866,42.96671,-9.51145,-22.51855,1009.873
4.528062344,0.1830661,0.1626597,-0.1337889,-0.005299109,-0.007396448,0.9999158,42.96671,-9.51145,-22.51855,1009.872
4.547878742,0.1828948,0.1017386,-0.07221379,-0.002411664,-0.002514447,0.9989596,42.60768,-10.24882,-22.5042,1009.872
4.570171833,0.1214523,0.1014703,-0.1330956,-0.003366355,-0.006906488,0.9970116,42.60768,-10.24882,-22.5042,1009.867
4.589988709,0.06004845,0.04070278,-0.1327998,-0.004836219,-0.003499708,0.9994506,42.60768,-10.24882,-22.5042,1009.867
4.609805584,0.05970547,-0.0201211,-0.1935329,-0.004416469,0.002810564,0.9903099,42.97821,-10.24484,-22.50558,1009.868
4.629621983,-0.06300742,-0.1413999,-0.4377735,-0.006322483,-0.0001046457,0.9970627,42.97821,-10.24484,-22.50558,1009.868
4.649438381,-0.002115432,0.1608918,0.1131541,-0.003392474,0.0004079258,1.001393,42.60263,-9.87491,-22.13066,1009.863
4.669254780,0.05900802,-0.02086025,-0.1924431,-0.004390327,-0.003037218,0.9883488,42.60263,-9.87491,-22.13066,1009.863
4.689071179,0.1812884,0.1603124,-0.2531608,-0.008720874,-0.005471056,0.9980137,42.60263,-9.87491,-22.13066,1009.862
4.708887577,0.05857775,0.2204987,-0.06932581,-0.001974985,0.002830179,0.9931926,42.23714,-10.25281,-22.50281,1009.862
4.728704930,0.05841141,0.09918559,-0.1913615,-0.003408847,0.00186284,0.9989876,42.23714,-10.25281,-22.50281,1009.861
4.748521328,-0.002891788,0.03830983,-0.06861381,-0.009211522,-0.002054556,1.002378,42.22084,-9.213837,-22.52117,1009.861
4.768337727,0.1194672,0.03815668,-0.06840312,-0.006287564,-0.003990667,1.000904,42.22084,-9.213837,-22.52117,1009.859
4.788154125,0.05808745,0.1589722,-0.190422,-0.006794055,-9.66168E-05,1.001409,42.22084,-9.213837,-22.52117,1009.859
4.807971001,0.1192711,0.09823135,-0.1287622,-0.007750363,-0.003023197,1.0014,42.61414,-10.6083,-22.1177,1009.858
4.830264569,0.2415358,0.09780209,-0.1284754,-0.001926397,-0.0005572005,1.001863,42.61414,-10.6083,-22.1177,1009.858
4.850080967,-0.003716143,0.09753761,-0.005770311,-0.006789781,-0.0064489,0.992206,42.97892,-10.23762,-22.12557,1009.855
4.869897366,0.05748829,-0.02377062,-0.1889745,-0.008243227,-0.001563769,1.001893,42.97892,-10.23762,-22.12557,1009.855
4.889714241,0.118539,0.09691563,-0.3108826,-0.005340562,-0.002048483,0.9965647,42.97892,-10.23762,-22.12557,1009.852
4.909530640,0.05716176,0.3386851,-0.06598985,-0.006797357,-0.001565593,0.9980232,42.60192,-9.882128,-22.51068,1009.852
4.929347515,-0.004388263,-0.08527934,-0.0658242,-0.005330238,-0.00595208,0.9931659,42.60192,-9.882128,-22.51068,1009.851
4.949163914,0.1178014,0.09622595,-0.1266102,-0.006335576,0.001352612,0.9956223,42.24442,-10.60386,-21.67296,1009.851
4.968980789,-0.004826704,0.2774845,-0.06516829,-0.00288439,-0.006418219,0.9965288,42.24442,-10.60386,-21.67296,1009.849
4.988797188,-0.06612487,0.09561063,-0.06500475,-0.006302253,0.0003986836,1.003823,42.24442,-10.60386,-21.67296,1009.849
5.008613586,-0.005032869,0.2163201,-0.06463034,-0.003365247,-0.005927951,0.9989473,42.23714,-10.25281,-22.50281,1009.848
5.028429985,0.2397023,0.1554162,-0.1864475,-0.00677879,-0.002530067,1.00188,42.23714,-10.25281,-22.50281,1009.848
5.048247337,0.05574604,-0.02626518,0.1196216,-0.007747616,-0.00204349,1.003818,42.60768,-10.24882,-22.5042,1009.845
5.068063736,0.0555292,-0.02650308,-0.2470584,-0.005838347,-0.0005925689,0.9956095,42.60768,-10.24882,-22.5042,1009.845
5.087880135,0.05535132,0.1547977,-0.06331559,-0.008255236,-0.0005946071,0.999967,42.60768,-10.24882,-22.5042,1009.847
5.110173702,0.1162747,0.09390468,-0.123973,-0.004854233,-0.002045966,0.9965621,42.22635,-9.512198,-22.13575,1009.847
5.129990578,0.05490304,0.2145994,-0.001567218,-0.009241013,-0.0006090151,0.9961109,42.22635,-9.512198,-22.13575,1009.846
5.149806976,0.116037,0.3353709,-0.06249535,-0.00583232,0.0003894824,0.9989933,42.97317,-9.870928,-22.13205,1009.846
5.169623375,0.1771713,0.1535037,-0.1233857,-0.008247061,-0.002055381,0.9999594,42.97317,-9.870928,-22.13205,1009.844
5.189439774,0.1157044,0.3347705,-0.1229609,-0.002395844,-0.004458629,1.000398,42.97317,-9.870928,-22.13205,1009.844
5.209257126,0.1154716,0.2739112,-0.0003656521,-0.003931779,0.002811909,0.9898245,42.61343,-10.61552,-22.49772,1009.842
5.229073525,0.1154315,0.09208421,-0.2448802,-0.005338368,-0.001558042,0.9980153,42.61343,-10.61552,-22.49772,1009.842
5.248889923,0.1764905,0.1522897,-0.3056774,-0.006311537,0.0008809211,1.001895,42.60839,-10.24161,-22.12418,1009.839
5.268706322,-0.007287728,0.03097702,-0.1830266,-0.003891989,-0.004003863,0.990272,42.60839,-10.24161,-22.12418,1009.839
5.288522720,0.1150822,0.1517538,-0.1214814,-0.009218103,-0.003525875,0.9980264,42.60839,-10.24161,-22.12418,1009.84
5.308339596,0.05379036,0.09087921,-0.06003323,-0.003872291,-0.002523169,0.998485,42.97246,-9.878145,-22.51206,1009.84
5.328156471,0.1148119,0.2116956,-0.05978663,-0.006840472,0.00231457,0.9917687,42.97246,-9.878145,-22.51206,1009.839
5.347972870,0.0532518,0.1508793,-0.1206838,-0.005348782,-0.003520973,0.9917305,42.97246,-9.878145,-22.51206,1009.839
5.367789269,0.1754505,0.1505765,-0.1204768,-0.002422055,-0.003010745,0.9950958,42.59771,-9.499796,-21.69378,1009.839
5.390083313,0.05298775,0.08965769,-0.1201175,-0.003366309,-0.003973223,1.001854,42.59771,-9.499796,-21.69378,1009.836
5.409899712,-0.06955454,0.028901,0.06370991,-0.002906191,-0.002522822,0.996549,42.59689,-9.508215,-22.13714,1009.835
5.429716110,0.1141858,0.08907524,-0.1806392,-0.004344487,-0.007404305,0.994601,42.59689,-9.508215,-22.13714,1009.835
5.449532509,0.05281938,0.1493073,-0.05784154,-0.006811514,0.001846394,0.9994888,42.59689,-9.508215,-22.13714,1009.835
5.469349384,0.0525907,0.1489515,-0.1186668,-0.004372845,-0.003513596,0.9926905,42.97821,-10.24484,-22.50558,1009.835
5.489166260,0.1135192,0.1486346,-0.1793394,-0.005341094,-0.001071118,0.9980178,42.97821,-10.24484,-22.50558,1009.835
5.508982659,0.1133302,0.08803355,-0.3011949,-0.005818694,-0.00204514,0.9989807,43.35521,-10.60034,-22.12047,1009.835
5.528799057,0.05204286,0.2693696,-0.05617293,-0.002922541,0.0003987248,0.996564,43.35521,-10.60034,-22.12047,1009.836
5.548615933,0.2354012,0.1481617,0.005284067,-0.00484876,-0.001553182,0.9989779,43.35521,-10.60034,-22.12047,1009.836
5.568432331,-0.009758506,0.08748594,-0.1780054,-0.01018312,-0.004014318,0.9994772,42.23139,-9.88611,-22.50929,1009.835
5.588249207,0.0512881,0.147646,-0.1166455,-0.004356981,-0.002524514,0.9989702,42.23139,-9.88611,-22.50929,1009.835
5.608066082,0.1123543,0.1475604,-0.1163526,-0.004847674,-0.002041278,0.9984928,42.97246,-9.878145,-22.51206,1009.835
5.627882481,0.1122643,0.08679116,-0.177223,-0.001462444,0.001384812,0.9984919,42.97246,-9.878145,-22.51206,1009.837
5.650176048,0.112005,0.2680272,-0.1767034,-0.01064104,-0.004974279,1.006232,42.97246,-9.878145,-22.51206,1009.838
5.669992447,0.0505095,0.08606304,-0.05406915,-0.008747062,-0.00255654,0.9951327,42.97892,-10.23762,-22.12557,1009.838
5.689809323,0.1728304,-0.1562039,-0.2371712,-0.007777083,0.0008686834,0.9999719,42.97892,-10.23762,-22.12557,1009.839
5.709625721,-0.07224907,0.1462578,-0.05328028,-0.003878318,-0.00350522,0.9951012,42.59689,-9.508215,-22.13714,1009.839
5.729442597,0.1113636,0.1460426,-0.1140786,-0.008262349,-0.001088562,0.9970683,42.59689,-9.508215,-22.13714,1009.84
5.749258995,0.04981207,0.1455241,-0.2361171,-0.002417668,-0.002029866,0.9979969,42.59689,-9.508215,-22.13714,1009.84
5.769075871,0.1108821,0.2056525,-0.1134107,-0.005323611,-0.001547496,1.002359,42.97246,-9.878145,-22.51206,1009.844
5.788892269,0.0494856,0.08424377,-0.1130299,-0.007775467,-0.0005967775,0.9980335,42.97246,-9.878145,-22.51206,1009.844
5.808708668,-0.01181445,0.2655704,0.009636417,-0.006314307,-0.001565419,0.9970552,42.61414,-10.6083,-22.1177,1009.845
5.828525543,0.1716849,0.08359346,-0.1124439,-0.009260641,0.002310188,0.9951606,42.61414,-10.6083,-22.1177,1009.845
5.848342419,0.04909446,0.02277584,-0.2343329,-0.00680119,-0.002057204,0.9960901,42.61414,-10.6083,-22.1177,1009.845
5.868158817,-0.01226241,0.08311737,-0.1116693,-0.003893052,-0.002049134,0.993178,42.97892,-10.23762,-22.12557,1009.846
5.887975216,-0.13491,0.1435543,0.01068635,-0.009240526,-0.004519644,0.9898159,42.97892,-10.23762,-22.12557,1009.846
5.907791615,0.04862934,0.1432319,-0.05040696,-0.004846544,0.0004038906,1.002849,42.60192,-9.882128,-22.51068,1009.847
5.930085659,0.2320964,0.08244764,-0.05005348,-0.003364161,-0.006416048,0.9984623,42.60192,-9.882128,-22.51068,1009.847
5.949902535,0.1094504,0.08229765,-0.04979336,-0.006335576,0.001352612,0.9956223,42.60192,-9.882128,-22.51068,1009.847
5.969718933,0.1092717,0.02163541,-0.04957241,-0.00873667,-0.002060242,0.9989966,42.23785,-10.24559,-22.12279,1009.848
5.989535809,-0.01346949,0.0819418,-0.1105337,-0.006324099,0.001360815,0.999001,42.23785,-10.24559,-22.12279,1009.848
6.009352207,0.04752879,0.02112843,-0.04894008,-0.004853147,-0.002534062,0.9960769,42.60263,-9.87491,-22.13066,1009.849
6.029168606,0.1698764,0.2024046,-0.2322086,-0.007285903,-0.003525181,0.9941545,42.60263,-9.87491,-22.13066,1009.849
6.048985481,0.04717522,-0.1003823,-0.1095695,-0.004353679,-0.001055537,1.002357,42.60263,-9.87491,-22.13066,1009.85
6.068802357,-0.01433045,0.1414647,-0.04811273,-0.004860769,-0.0005840196,0.9970523,42.22635,-9.512198,-22.13575,1009.85
6.088618755,0.1080187,0.1413374,-0.2312298,-0.004356981,-0.002524514,0.9989702,42.22635,-9.512198,-22.13575,1009.85
6.108435154,0.04666777,0.08043183,-0.1697748,-0.00774385,-0.005951775,0.9984886,42.60839,-10.24161,-22.12418,1009.849
6.128252029,0.1689791,0.2615401,-0.1695788,-0.004355895,-0.00301261,0.9984851,42.60839,-10.24161,-22.12418,1009.849
6.148068905,0.1687279,0.321852,-0.1693259,-0.00822907,-0.004975756,1.000427,42.60839,-10.24161,-22.12418,1009.849
6.167885304,0.1071093,0.1400757,-0.1079111,-0.005817586,-0.001066604,1.000917,42.60192,-9.882128,-22.51068,1009.849
6.190178871,0.04578478,0.07950915,-0.04623286,-0.007766759,-0.003034915,0.9965729,42.60192,-9.882128,-22.51068,1009.848
6.209995270,0.04572763,0.01875893,-0.1072024,-0.005842688,0.001359816,0.9975504,42.96742,-9.504232,-22.13853,1009.845
6.229812145,0.1068271,0.07912955,-0.04586692,-0.00821981,-0.006924625,0.9999343,42.96742,-9.504232,-22.13853,1009.845
6.249629021,0.2291602,0.07885495,-0.1066647,-0.003425797,0.001361854,0.993193,42.96742,-9.504232,-22.13853,1009.844
6.269445419,0.1676974,0.1392457,-0.2287219,-0.00483839,-0.002523516,1.000421,42.96671,-9.51145,-22.51855,1009.844
6.289262295,0.04511705,-0.04256596,-0.04506349,-0.007783088,0.001353264,0.9990089,42.96671,-9.51145,-22.51855,1009.843
6.309078693,-0.07757847,0.1992118,-0.04473925,-0.005334026,-0.003510427,0.9960746,42.60263,-9.87491,-22.13066,1009.843
6.328895092,0.2284569,0.1989015,-0.1669134,-0.007302254,-0.0006036346,0.9941696,42.60263,-9.87491,-22.13066,1009.843
6.348711968,0.1057432,0.01726295,-0.1664944,-0.004858597,-0.001560213,0.9960819,42.60263,-9.87491,-22.13066,1009.844
6.368528843,0.04434025,0.07752343,-0.04396264,-0.00437012,-0.00400052,0.992688,42.97317,-9.870928,-22.13205,1009.844
6.388345242,0.04426734,0.07723384,-0.1047076,-0.007271124,-0.002048003,1.000919,42.97317,-9.870928,-22.13205,1009.845
6.408161640,0.166527,0.07717286,-0.1042719,-0.01018529,-0.003038125,1.000448,42.97317,-9.870928,-22.13205,1009.845
6.427978516,-0.01734167,0.2584033,-0.1652685,-0.00536294,-0.0001089864,0.993196,42.97317,-9.870928,-22.13205,1009.844
6.450272560,0.1050781,0.07653411,-0.1038505,-0.008258538,-0.002063584,0.9965806,42.97317,-9.870928,-22.13205,1009.846
6.470088959,-0.1399851,0.0764559,-0.225934,-0.006765187,-0.006431323,0.9994461,42.60192,-9.882128,-22.51068,1009.846
6.489905357,-0.1399603,0.01578924,-0.1644156,-0.003385938,-0.001054019,1.000903,42.60192,-9.882128,-22.51068,1009.845
6.509721756,-0.01756484,0.01565465,-0.164118,-0.006317009,0.0003881375,0.9994786,42.97246,-9.878145,-22.51206,1009.845
6.529538632,0.1660452,0.07603315,-0.1638788,-0.004366265,-0.002042277,0.9970421,42.97246,-9.878145,-22.51206,1009.842
6.549355507,-0.07907485,0.01532956,0.01982792,-0.008749764,-0.0006029827,0.9975562,42.97246,-9.878145,-22.51206,1009.842
6.569171906,0.2269644,-0.1058103,-0.1634405,-0.008275443,0.0003686955,0.9956278,42.23785,-10.24559,-22.12279,1009.842
6.588988781,0.04305926,0.01506288,0.02041886,-0.009226833,-0.00255437,0.9970661,42.23785,-10.24559,-22.12279,1009.842
6.608805180,-0.07959259,0.1358985,-0.2239175,-0.008262371,-0.002555195,0.9946474,42.23785,-10.24559,-22.12279,1009.842
6.628622055,0.1652144,0.01472192,-0.04021357,-0.003418685,0.00185581,0.9960916,42.59618,-9.515432,-22.51716,1009.842
6.648438454,-0.1412716,0.1960712,-0.03984385,-0.0111618,-0.005001403,0.9960988,42.59618,-9.515432,-22.51716,1009.842
6.668255329,-0.01877671,0.1353701,-0.1008871,-0.007800083,-0.002080987,0.9883724,42.96742,-9.504232,-22.13853,1009.842
6.688071728,-0.08011678,0.01428971,-0.03947137,-0.00777057,-0.002059895,0.9970607,42.96742,-9.504232,-22.13853,1009.842
6.707888603,-0.01902811,0.07455765,0.1443454,-0.008229048,-0.003509123,1.002848,42.96742,-9.504232,-22.13853,1009.841
6.730182648,0.1033965,0.1347649,-0.2223651,-0.009242119,-0.001587551,0.9941751,42.96671,-9.51145,-22.51855,1009.84
6.749999047,0.1031561,0.07410391,-0.03862663,-0.002917645,-0.001064392,0.9955912,42.96671,-9.51145,-22.51855,1009.84
6.769815445,-0.01943527,0.1950573,-0.1607394,-0.004861323,-0.001073288,0.9960845,42.59759,-9.500998,-21.75712,1009.841
6.789631844,-0.08086975,0.07395999,-0.03806852,-0.009217063,-0.006947236,0.9926994,42.59759,-9.500998,-21.75712,1009.841
6.809449196,-0.01956769,0.1948567,-0.09905857,-0.004859705,-0.002538749,0.9941463,42.59759,-9.500998,-21.75712,1009.841
6.829265595,0.1027753,0.1341776,-0.03762819,-0.009227918,-0.002066273,0.9975513,42.59689,-9.508215,-22.13714,1009.842
6.849081993,0.102575,0.01296732,-0.09863855,-0.003906077,0.003808022,0.9990003,42.59689,-9.508215,-22.13714,1009.842
6.868898392,-0.0199572,-0.0477678,-0.03726689,-0.006805001,-0.001082184,0.9965777,42.60768,-10.24882,-22.5042,1009.841
6.888715744,0.225046,0.07305463,-0.220392,-0.004859106,0.0008837847,0.999956,42.60768,-10.24882,-22.5042,1009.841
6.908532143,0.04135719,0.01232049,-0.03656247,-0.008752489,-0.0001160582,0.9975587,42.60768,-10.24882,-22.5042,1009.841
6.928348541,-0.08123289,0.07266936,-0.03633639,-0.005345458,-0.0005853646,0.9975377,42.62059,-10.96778,-21.7312,1009.841
6.948165894,-0.02016068,0.07244889,-0.09725408,-0.003419261,-0.0001000904,0.9927028,42.62059,-10.96778,-21.7312,1009.842
6.967982292,-0.0814973,0.07234292,-0.1581532,-0.007434333,-0.02919642,1.050979,42.23139,-9.88611,-22.50929,1009.842
6.987798691,0.5919873,0.3142313,-0.3413203,-0.005998336,0.008581659,0.9638007,42.23139,-9.88611,-22.50929,1009.843
7.010092735,0.04065523,-0.170283,-0.03496648,-0.00982782,0.004694251,0.9753861,42.23139,-9.88611,-22.50929,1009.842
7.029909134,0.1017098,0.01097993,-0.09596438,-0.01068628,0.002815342,1.00579,42.97317,-9.870928,-22.13205,1009.842
7.049726009,0.04039401,0.1924144,-0.09562747,-0.007771079,0.0003841021,1.000935,42.97317,-9.870928,-22.13205,1009.841
7.069542885,0.2240314,0.01065917,-0.03430171,-0.009728472,-0.0030567,0.9917569,42.59689,-9.508215,-22.13714,1009.841
7.089359283,0.04030675,0.1315439,-0.09510934,-0.005298486,-0.002507284,1.008147,42.59689,-9.508215,-22.13714,1009.841
7.109175682,0.04018637,0.1917453,0.02749279,-0.003867395,-0.003986286,0.9975121,42.59689,-9.508215,-22.13714,1009.842
7.128992558,-0.1435957,0.1308842,-0.03333545,-0.008782024,-0.001603783,0.9864496,42.23139,-9.88611,-22.50929,1009.842
7.148809433,0.5299292,0.6149234,-0.09427979,-0.008583906,0.02620228,0.8051043,42.23139,-9.88611,-22.50929,1009.838
7.168625832,0.2849331,0.3726396,-0.2774729,-0.01626798,0.02085388,0.8249087,43.34371,-9.866945,-22.13343,1009.838
7.188442230,0.2236183,0.1305078,-0.1547008,-0.01278736,0.002693954,0.9599463,43.34371,-9.866945,-22.13343,1009.839
7.208259106,0.1008205,-0.1117567,-0.1545236,0.00112261,-0.009248151,1.025936,43.34371,-9.866945,-22.13343,1009.839
7.228075981,0.2231304,0.130081,-0.09306913,-0.004854165,0.002353932,1.003825,42.23632,-10.26123,-22.94616,1009.838
7.247892380,0.1006607,0.1299445,-0.09287388,-0.008308789,-0.0001440081,0.9850065,42.23632,-10.26123,-22.94616,1009.838
7.270185947,-0.0220328,0.1297485,-0.153774,-0.004408871,-0.0006061103,0.9869135,41.86227,-9.87566,-21.74786,1009.839
7.290003300,0.03898685,-0.05186841,-0.275924,-0.006786966,-0.001069294,1.001887,41.86227,-9.87566,-21.74786,1009.838
7.309819698,-0.02234457,0.2502365,-0.1533287,-0.003868966,0.0004124399,1.004292,41.86227,-9.87566,-21.74786,1009.838
7.329636097,-0.08367563,-0.173506,-0.09185819,0.000802723,0.01496683,0.9720019,42.97892,-10.23762,-22.12557,1009.838
7.349452496,0.2836278,0.06844862,-0.1527517,0.004072627,-0.02744223,1.147944,42.97892,-10.23762,-22.12557,1009.839
7.369269848,0.2223552,-0.5975529,-0.09141688,1.050206E-05,-0.01976298,1.110356,43.70779,-9.503484,-22.52132,1009.839
7.389086247,-0.8190374,0.007573918,-0.03000573,-0.001474143,-0.01783338,1.10603,43.70779,-9.503484,-22.52132,1009.837
7.408902645,-0.2067799,-0.1740781,0.03134726,-0.0009362332,0.0004380872,1.00862,43.70779,-9.503484,-22.52132,1009.837
7.428719998,-0.08440883,0.2492831,-0.02970191,-0.004363516,-0.001062568,0.9994605,42.60768,-10.24882,-22.5042,1009.837
7.448536396,0.03800095,-0.05348845,-0.1517411,-0.007331234,-0.001602091,0.9840282,42.60768,-10.24882,-22.5042,1009.837
7.468352795,0.0989468,0.06750035,-0.09027458,-0.01174425,-0.0001838901,0.9758542,42.96742,-9.504232,-22.13853,1009.836
7.488169193,0.1601624,-0.05365652,-0.1512872,-0.009254151,-0.002085022,0.9898285,42.96742,-9.504232,-22.13853,1009.836
7.507986546,0.03756255,0.006876983,-0.08974499,-0.004341716,-0.004957965,0.9994404,42.96742,-9.504232,-22.13853,1009.836
7.530280113,0.09884351,0.3092502,-0.2118932,-0.007807704,-0.0001309449,0.9893479,42.60263,-9.87491,-22.13066,1009.835
7.550096512,0.1600977,0.1273346,-0.02802746,-0.006306131,-0.003026193,0.9970477,42.60263,-9.87491,-22.13066,1009.835
7.569913387,-0.02375471,0.005951546,-0.0889467,-0.006314861,-0.002054688,0.9960874,42.60192,-9.882128,-22.51068,1009.835
7.589730263,-0.02390651,0.005765617,-0.2110292,-0.008260731,-0.002554023,0.9951301,42.60192,-9.882128,-22.51068,1009.836
7.609546662,-0.1465248,0.06614987,-0.02716557,-0.00826452,-0.0001123699,0.9980387,42.60192,-9.882128,-22.51068,1009.836
7.629363537,-0.08532693,-0.05492761,-0.1492111,-0.0073235,0.003781029,0.9951575,42.60839,-10.24161,-22.12418,1009.835
7.649179936,0.0371812,0.1264065,-0.0877509,-0.008737734,-0.0001055121,1.001903,42.60839,-10.24161,-22.12418,1009.835
7.668996811,0.159497,0.005310569,-0.1486355,-0.005337837,-0.002535407,0.9965622,42.59618,-9.515432,-22.51716,1009.833
7.688813210,0.03699491,-0.1158801,-0.08715741,-0.006752647,-0.008377848,0.9999188,42.59618,-9.515432,-22.51716,1009.833
7.708630085,0.03684434,0.1261009,-0.2703683,-0.008253641,-0.0035267,0.9956077,42.59618,-9.515432,-22.51716,1009.832
7.728446961,-0.08577265,0.06523363,-0.08649022,-0.005831257,-0.001565246,0.9960873,42.97164,-9.886564,-22.95542,1009.832
7.748263359,0.0978163,0.1255257,-0.02512985,-0.002397461,-0.002993168,1.002336,42.97164,-9.886564,-22.95542,1009.832
7.768080235,0.09747469,-0.05628967,0.03632601,-0.006803915,-0.00157028,0.9960926,42.97164,-9.886564,-22.95542,1009.832
7.787897110,0.09736448,0.1252188,-0.1468494,-0.007772232,-0.003527698,0.9941571,42.60263,-9.87491,-22.13066,1009.833
7.810191155,0.1583807,0.1250361,-0.02412888,-0.008250872,-0.00108036,1.000447,42.60263,-9.87491,-22.13066,1009.833
7.830007553,-0.08666258,0.1853488,-0.1462781,-0.007304402,0.00183919,0.9975609,42.2321,-9.878894,-22.12927,1009.834
7.849823952,0.1582006,0.1245227,-0.146007,-0.009231175,-0.0006019846,0.9990068,42.2321,-9.878894,-22.12927,1009.834
7.869640827,0.09693515,0.003355544,-0.02329621,-0.001931384,-0.004960613,0.9931523,42.2321,-9.878894,-22.12927,1009.835
7.889457703,0.09661493,0.1846572,-0.2676379,-0.004374948,0.001862494,1.000924,42.59138,-9.209853,-22.52256,1009.835
7.909274101,0.0964108,-0.05770519,-0.08382427,-0.008762881,-0.0006123572,0.9936948,42.59138,-9.209853,-22.52256,1009.831
7.929090500,0.03506981,0.0631422,0.2223136,-0.007275512,-0.003028883,0.9980183,42.60263,-9.87491,-22.13066,1009.831
7.948907852,0.03500101,0.06271774,-0.144509,-0.006308879,-0.004005901,0.9946292,42.60263,-9.87491,-22.13066,1009.83
7.968724251,0.1573224,0.3045541,-0.2054622,-0.003872291,-0.002523169,0.998485,42.60263,-9.87491,-22.13066,1009.83
7.988540649,-0.08769873,0.06227058,-0.08273669,-0.004845503,-0.00301747,0.9975224,42.96671,-9.51145,-22.51855,1009.831
8.008357525,0.09583741,0.00182949,0.03969991,-0.007750917,-0.003512465,1.000432,42.96671,-9.51145,-22.51855,1009.831
8.028174400,0.1570802,-0.05874473,-0.02137028,-0.007319735,-0.0001272564,0.9898279,42.60839,-10.24161,-22.12418,1009.83
8.047990799,0.21815,0.001668587,-0.204708,-0.01017381,-0.003029923,1.003826,42.60839,-10.24161,-22.12418,1009.83
8.067807674,-0.02679339,0.06210112,-0.1432429,-0.008251979,-0.002058896,0.9985114,42.60839,-10.24161,-22.12418,1009.829
8.090101719,-0.08812411,0.001432139,-0.08181019,-0.004350422,-0.002519827,1.000901,42.59138,-9.209853,-22.52256,1009.829
8.109918118,0.1568003,-0.05925504,-0.08154721,-0.008735584,-0.002548337,0.9985115,42.59138,-9.209853,-22.52256,1009.828
8.129734516,0.03417031,0.2432673,-0.08128499,-0.006788605,-0.001070466,1.001404,42.60768,-10.24882,-22.5042,1009.828
8.149551868,-0.1497504,0.06151718,-0.1421858,-0.006812667,-0.002065407,0.9927113,42.60768,-10.24882,-22.5042,1009.827
8.169368267,0.09521344,0.1218375,-0.01969591,-0.002921455,-8.937111E-05,0.9960789,42.60768,-10.24882,-22.5042,1009.827
8.189184666,0.1562655,0.1216457,-0.08065537,-0.009220805,-0.001572318,1.00045,42.97246,-9.878145,-22.51206,1009.829
8.209002018,-0.02742372,0.06096042,-0.1415961,-0.007771655,-0.001571798,0.9975459,42.97246,-9.878145,-22.51206,1009.829
8.228818417,0.03378251,0.1817378,-0.08023166,-0.00582904,0.0003918263,0.9999588,42.60839,-10.24161,-22.12418,1009.828
8.248634815,0.1560878,-0.1817186,-0.1413079,-0.003863516,-0.0005614089,1.004287,42.60839,-10.24161,-22.12418,1009.828
8.268451691,0.03353643,0.0603705,-0.07994422,-0.002908916,-0.002035898,0.9965515,42.60839,-10.24161,-22.12418,1009.833
8.288268566,-0.02783885,-0.0003317334,-0.07978192,-0.005798464,-0.00154181,1.005741,42.97317,-9.870928,-22.13205,1009.833
8.308084965,0.03321472,0.1206565,-0.1407441,-0.004363008,-0.003506565,0.9955865,42.97317,-9.870928,-22.13205,1009.83
8.327901840,0.1555406,0.1204106,0.04292376,-0.006770615,-0.003990841,1.001872,42.60192,-9.882128,-22.51068,1009.83
8.350195885,0.09419456,0.1807731,-0.01789929,-0.00923718,-0.0001174035,0.998044,42.60192,-9.882128,-22.51068,1009.829
8.370012283,0.1552877,-0.0005920976,-0.1400065,-0.005336175,-0.001067602,0.9994658,42.60192,-9.882128,-22.51068,1009.829
8.389828682,0.09401026,0.0597511,0.104918,-0.01067765,-0.004022694,0.9970664,42.60839,-10.24161,-22.12418,1009.835
8.409646034,0.1551037,0.1199049,-0.07846808,-0.005328553,-0.003017644,0.9984905,42.60839,-10.24161,-22.12418,1009.835
8.429462433,-0.1512031,0.1801925,-0.1395487,-0.01066892,-0.0049942,0.9980268,42.59689,-9.508215,-22.13714,1009.832
8.449278832,0.1548056,0.1193604,-0.2004952,-0.007309875,0.001346407,0.995145,42.59689,-9.508215,-22.13714,1009.832
8.469096184,0.03218061,0.1796305,-0.01669639,-0.004374462,-0.002048136,0.9946287,42.59689,-9.508215,-22.13714,1009.831
8.488912583,0.03206131,-0.002187602,-0.1999306,-0.01213767,-0.0006088831,1.002402,42.23139,-9.88611,-22.50929,1009.831
8.508728981,0.2768954,-0.002315015,-0.01619089,-0.006830635,0.002321601,0.9946646,42.23139,-9.88611,-22.50929,1009.83
8.528546333,-0.1519727,-0.002233312,-0.1994457,-0.003388709,-0.00350036,0.9960639,42.60192,-9.882128,-22.51068,1009.83
8.548362732,0.09293909,-0.06293042,-0.1992137,-0.009696788,-0.004011801,0.9994746,42.60192,-9.882128,-22.51068,1009.831
8.568179608,0.1540546,0.0579871,-0.1988289,-0.004839499,-0.003502051,0.9984853,42.60192,-9.882128,-22.51068,1009.831
8.587996006,0.03141239,0.1182022,-0.1986368,-0.005347629,0.0003908277,0.998508,42.60263,-9.87491,-22.13066,1009.83
8.607812882,-0.09113342,0.1180765,-0.07613962,-0.006331212,0.0008668596,0.9961025,42.60263,-9.87491,-22.13066,1009.83
8.630106449,-0.02993085,0.1783507,-0.07590538,-0.007295163,-0.001576312,0.9946471,42.97246,-9.878145,-22.51206,1009.83
8.649923802,0.1536717,0.1782259,-0.1368773,-0.005817586,-0.001066604,1.000917,42.97246,-9.878145,-22.51206,1009.83
8.669740200,0.0310881,-0.06396852,-0.01411276,-0.005351484,-0.001567416,0.994154,42.97246,-9.878145,-22.51206,1009.829
8.689556599,0.09216662,0.05695152,-0.07508625,-0.007752557,-0.003513637,0.9999492,42.97246,-9.878145,-22.51206,1009.829
8.709373951,0.03085551,0.05675154,-0.1360602,-0.003899541,0.002346076,0.9985102,42.97246,-9.878145,-22.51206,1009.829
8.729190350,0.09199227,0.1171218,-0.0134705,-0.00875577,-0.0001184021,0.9965933,42.60839,-10.24161,-22.12418,1009.829
8.749006748,0.1531485,0.2378722,-0.07444561,-0.006328487,0.0003799349,0.9960999,42.60839,-10.24161,-22.12418,1009.829
8.768823624,-0.09197764,0.1165726,0.1704679,-0.005335112,-0.003022331,0.9965597,42.60839,-10.24161,-22.12418,1009.829
8.788640499,0.2141131,0.05588116,-0.3798463,-0.00385481,-0.002999547,1.002826,42.23714,-10.25281,-22.50281,1009.832
8.808456898,0.0916083,0.237222,-0.07373317,-0.006320887,-0.003036739,0.9927036,42.23714,-10.25281,-22.50281,1009.832
8.828273773,0.0913976,0.3579938,-0.134653,-0.00289252,-0.00202418,1.001378,42.97234,-9.879347,-22.5754,1009.832
8.848090649,0.2749838,0.05515828,0.04899957,-0.01068963,-0.001586899,0.9975618,42.97234,-9.879347,-22.5754,1009.832
8.867907524,-0.03143188,0.05503881,-0.1343421,-0.006293614,-0.006439351,0.9950994,42.97234,-9.879347,-22.5754,1009.833
8.890201569,0.2132641,0.1153391,-0.1341354,-0.00824489,-0.003031573,0.9989889,43.33317,-9.194671,-22.14532,1009.833
8.910017967,0.02943194,-0.06643154,-0.01158898,-0.009235584,-0.003049497,0.9936848,43.33317,-9.194671,-22.14532,1009.835
8.929834366,0.09051467,-0.1270623,-0.1336353,-0.008770502,0.001337684,0.9946702,41.8666,-10.25679,-22.50142,1009.835
8.949651242,0.029054,-0.06649651,-0.07202224,0.0009762468,-0.002508546,0.9941145,41.8666,-10.25679,-22.50142,1009.83
8.969468117,-0.0935628,0.05427801,-0.07168788,-0.009251381,0.0003613185,0.9946678,41.8666,-10.25679,-22.50142,1009.83
8.989284515,0.09012256,-0.006465785,-0.13244,-0.006305023,-0.002047657,0.9989833,42.60768,-10.24882,-22.5042,1009.83
9.009101391,-0.03253219,0.05383521,-0.07106021,-0.01070432,0.002802452,1.00048,42.60768,-10.24882,-22.5042,1009.83
9.028918266,-0.0939146,-0.006983578,-0.132121,-0.008758007,-0.003542106,0.990301,42.60768,-10.24882,-22.5042,1009.83
9.048735142,0.08973326,-0.007004082,-0.009464405,-0.008745976,-0.003044636,0.9946475,43.33796,-9.50025,-22.13992,1009.83
9.068551540,0.2120518,0.1141149,-0.1316312,-0.0077493,-0.004977926,0.9984936,43.33796,-9.50025,-22.13992,1009.829
9.088367939,-0.03301094,0.1139424,0.0521866,-0.005340562,-0.002048483,0.9965647,42.96671,-9.51145,-22.51855,1009.829
9.108185291,-0.03313947,0.1137133,-0.06994306,-0.007775467,-0.0005967775,0.9980335,42.96671,-9.51145,-22.51855,1009.83
9.128001690,0.0280811,0.1134659,-0.25337,-0.009714801,-0.002558059,0.996586,42.96671,-9.51145,-22.51855,1009.83
9.147818089,-0.03322286,-0.007597491,-0.008352764,-0.009239418,-0.003541108,0.9917517,42.60192,-9.882128,-22.51068,1009.829
9.170112610,-0.03314823,0.1131834,-0.00804124,-0.00683232,-0.0006128356,0.9893401,42.60192,-9.882128,-22.51068,1009.829
9.189929009,-0.09441367,0.05257647,-0.06901074,-0.005838923,-0.002548469,0.9922208,42.97246,-9.878145,-22.51206,1009.83
9.209745884,0.02805965,0.2338686,-0.06887589,-0.006334491,0.0008645161,0.9951371,42.97246,-9.878145,-22.51206,1009.83
9.229562759,0.08920349,0.05212322,-0.06866462,-0.008763412,0.0003650072,0.9951479,42.97246,-9.878145,-22.51206,1009.83
9.249379158,0.02782289,0.112467,0.1151294,-0.01019725,0.0008643015,1.003364,42.61414,-10.6083,-22.1177,1009.83
9.269195557,0.0889481,0.05182383,-0.1293679,-0.01218467,-0.0001535967,0.9893718,42.61414,-10.6083,-22.1177,1009.829
9.289012909,0.02758748,0.05178869,0.05425225,-0.006793546,-0.002540613,0.9975355,42.60181,-9.88333,-22.57401,1009.829
9.308829308,-0.03352308,0.1121903,-0.06809369,-0.002453693,0.0008776204,0.9922199,42.60181,-9.88333,-22.57401,1009.83
9.328646660,0.08902803,0.1724214,-0.06796105,-0.00823071,-0.004976927,0.9999443,42.60181,-9.88333,-22.57401,1009.83
9.348463059,0.08888137,-0.009131759,-0.006570324,-0.00677715,-0.002528895,1.002362,42.61567,-10.59266,-21.29433,1009.831
9.368279457,0.2112021,-0.3723938,-0.06754355,-0.002402911,-0.002019319,1.002341,42.61567,-10.59266,-21.29433,1009.831
9.388096809,-0.03380071,0.1720918,-0.00624992,-0.01117982,-0.00354766,0.9932102,42.59606,-9.516635,-22.58049,1009.83
9.407913208,0.02734469,0.05069127,-0.1283672,-0.004371715,-0.001068427,0.9970471,42.59606,-9.516635,-22.58049,1009.83
9.430206776,0.02719061,-0.01004061,-0.005871683,-0.004882038,0.002334012,0.9956194,42.59606,-9.516635,-22.58049,1009.828
9.450024128,-0.1565203,0.05032649,-0.06686586,-0.004870006,0.002831483,0.999966,43.34864,-10.24206,-22.57031,1009.828
9.469840527,-0.03419863,0.1712444,-0.1279563,-0.009257916,0.001823264,0.9951581,43.34864,-10.24206,-22.57031,1009.827
9.489656925,-0.03436261,-0.01034369,-0.06662627,-0.002896353,-0.002515791,0.999445,42.60263,-9.87491,-22.13066,1009.827
9.509474278,0.08811371,0.2316191,0.05586591,-0.008730688,-0.004011454,0.9975386,42.60263,-9.87491,-22.13066,1009.828
9.529290676,0.2715929,0.04995537,-0.1273778,-0.006314284,-9.878678E-05,0.9994761,42.60263,-9.87491,-22.13066,1009.828
9.549107552,-0.03477581,0.1102478,-0.1271731,-0.003848297,-0.005928124,0.9999154,42.60181,-9.88333,-22.57401,1009.83
9.568924427,-0.1572516,0.10999,-0.1269497,-0.006325739,0.001359643,0.9985184,42.60181,-9.88333,-22.57401,1009.83
9.588740826,0.0877696,0.04923915,-0.126727,-0.0009575933,-0.002510411,0.9975038,42.6011,-9.890547,-22.95403,1009.831
9.608557701,-0.03472552,-0.01141608,-0.004237562,-0.003389195,0.0004102697,1.002359,42.6011,-9.890547,-22.95403,1009.831
9.628374100,0.02646053,0.10941,0.0570315,-0.00872958,-0.003032918,0.9994743,42.6011,-9.890547,-22.95403,1009.832
9.648191452,0.08760846,0.1092304,-0.004062958,-0.007757453,-0.00205052,1.000922,42.60181,-9.88333,-22.57401,1009.832
9.668007851,0.02615502,0.04861435,-0.1261089,-0.009237755,-0.002073304,0.9946552,42.60181,-9.88333,-22.57401,1009.834
9.687824249,0.02589712,0.1090432,-0.1257923,-0.005340007,-0.001559214,0.9975327,42.60263,-9.87491,-22.13066,1009.834
9.710118771,0.0868846,-0.01219526,0.05785823,-0.002916559,-0.001552488,0.995106,42.60263,-9.87491,-22.13066,1009.835
9.729935169,0.2091527,0.04827215,-0.00318069,-0.00582904,0.0003918263,0.9999588,42.60263,-9.87491,-22.13066,1009.835
9.749752045,0.02548451,0.1693094,-0.1253056,-0.00921808,-0.002059243,1.000447,42.22552,-9.520618,-22.5791,1009.83
9.769568920,0.08655794,0.04818181,-0.002800547,-0.001459188,-7.947697E-05,0.9970363,42.22552,-9.520618,-22.5791,1009.83
9.789385319,0.2088844,-0.01241383,-0.124965,-0.008758538,-0.002564742,0.9917541,42.22552,-9.520618,-22.5791,1009.835
9.809202671,0.0250632,0.1083958,-0.00242231,-0.00533726,-0.0005795057,0.9999511,42.22552,-9.520618,-22.5791,1009.835
9.829019070,-0.03634844,0.1082377,-0.1858651,-0.005827446,-0.002540267,0.9955995,42.22552,-9.520618,-22.5791,1009.832
9.848835468,0.0860752,-0.01296446,-0.002160676,-0.001901894,-0.006406154,0.9994196,42.60181,-9.88333,-22.57401,1009.832
9.868652821,0.08599364,-0.0131789,-0.06316409,-0.004851507,-0.00253289,0.9965596,42.60181,-9.88333,-22.57401,1009.829
9.888469219,0.08585466,-0.01322176,-0.06292872,-0.002906191,-0.002522822,0.996549,42.59126,-9.211056,-22.58589,1009.829
9.908286572,0.08575442,0.1682545,-0.06273238,-0.0009603184,-0.002023487,0.9975063,42.59126,-9.211056,-22.58589,1009.831
9.928102970,0.08561597,0.1074713,-0.1236604,-0.003887601,-0.003022983,0.993173,42.59126,-9.211056,-22.58589,1009.831
9.947919846,0.02420601,0.1072775,-0.001044318,-0.01067818,-0.003045329,0.9985196,41.86073,-9.891296,-22.57124,1009.832
9.970213890,0.02409924,0.04661379,0.06027465,-0.0048728,-0.00108149,0.9927057,41.86073,-9.891296,-22.57124,1009.832
9.990030289,0.08538751,0.1675223,-0.2454778,-0.00824593,0.0003897878,1.004316,42.96742,-9.504232,-22.13853,1009.832
10.009847164,0.08526929,0.1068739,-0.1228438,-0.01066506,-0.003035955,1.002381,42.96742,-9.504232,-22.13853,1009.832
10.029664040,-0.03725795,0.1069096,-0.1225546,-0.006796293,-0.003520321,0.9951171,42.96742,-9.504232,-22.13853,1009.833
10.049480438,0.0851488,0.2278945,-0.06102687,-0.005819779,-0.001557043,0.9994659,41.92824,-10.25733,-22.56499,1009.833
10.069297314,0.02377841,-0.1354499,0.0003272146,-0.002422564,-0.0005667484,0.9989697,41.92824,-10.25733,-22.56499,1009.834
10.089114189,-0.1598664,-0.01446439,-0.121749,-0.002907299,-0.003501358,0.9946132,42.23056,-9.89453,-22.95264,1009.834
10.108931065,0.02398546,-0.01457997,-0.06035768,-0.007790223,-0.0006073236,0.9936895,42.23056,-9.89453,-22.95264,1009.835
10.128747463,-0.1598713,0.1668428,0.0008794516,-0.007311515,0.001345235,0.9946622,42.23056,-9.89453,-22.95264,1009.835
10.148564816,-0.09877465,-0.1361396,-0.06015085,-0.007754728,-0.002537445,1.00092,42.22552,-9.520618,-22.5791,1009.835
10.168381214,0.08482777,0.04541746,0.001296982,-0.002437828,0.001866702,0.9984997,42.22552,-9.520618,-22.5791,1009.835
10.188197613,0.1458867,0.04526547,-0.1209545,-0.004392475,-0.0005943922,0.9917403,42.22552,-9.520618,-22.5791,1009.838
10.208014965,-0.03794932,-0.1365382,-0.1207468,-0.002918684,0.002356969,1.000918,43.33643,-9.515886,-22.96329,1009.838
10.227831364,0.02347544,0.04500089,0.001766056,-0.003379403,-0.002515965,1.000413,43.33643,-9.515886,-22.96329,1009.844
10.250124931,0.02340912,-0.07617058,-0.1816495,-0.006788073,-0.00204783,0.9999515,42.60181,-9.88333,-22.57401,1009.844
10.269942284,0.02319663,0.04464719,-0.1201653,-0.007294056,-0.0005977761,0.9965829,42.60181,-9.88333,-22.57401,1009.845
10.289758682,-0.09934784,0.04449711,-0.1200365,-0.008266713,-0.0006028099,0.9965882,42.60181,-9.88333,-22.57401,1009.845
10.309576035,0.1455663,0.0442904,-0.05863033,-0.007783111,-0.0001133685,0.996588,42.60839,-10.24161,-22.12418,1009.842
10.329392433,-0.09940618,0.3466857,-0.05848318,-0.007302763,0.001840362,0.9980435,42.60839,-10.24161,-22.12418,1009.842
10.349209309,0.08415937,-0.1375455,-0.1194219,-0.004360815,-0.003016125,0.9970371,42.60263,-9.87491,-22.13066,1009.841
10.369026184,-0.03840357,0.04386315,-0.1193333,-0.004848782,-0.003019814,0.996557,42.60263,-9.87491,-22.13066,1009.841
10.388842583,-0.2832794,0.04380992,-0.05798647,-0.00291873,-0.0005762957,0.9960764,42.60263,-9.87491,-22.13066,1009.841
10.408659458,0.0229456,0.1042697,0.1256081,-0.009248679,-0.001592238,0.9922444,42.59689,-9.508215,-22.13714,1009.841
10.428475857,-0.03832626,0.1645966,0.003409356,-0.004363516,-0.001062568,0.9994605,42.59689,-9.508215,-22.13714,1009.842
10.448293209,-0.1608122,-0.01722186,-0.1799906,-0.007289138,-0.0005942606,0.9980309,42.2321,-9.878894,-22.12927,1009.842
10.468109608,-0.09952094,0.04312514,-0.1185298,-0.005818185,-0.004489136,0.9951068,42.2321,-9.878894,-22.12927,1009.847
10.487926960,0.1453553,0.04290289,-0.05705062,-0.007777151,-0.003531214,0.992709,42.2321,-9.878894,-22.12927,1009.847
10.507743359,-0.1610424,-0.01764157,0.004427783,-0.007724707,-0.004960349,1.005734,41.92907,-10.24891,-22.12163,1009.848
10.530036926,0.083885,-0.1388452,-0.05655527,-0.008251425,-0.001569628,0.9994792,41.92907,-10.24891,-22.12163,1009.848
10.549854279,-0.0998338,0.04275652,0.004691616,-0.007270017,-0.001069467,1.002855,42.60839,-10.24161,-22.12418,1009.845
10.569670677,-0.09985223,0.1031049,-0.3009021,-0.007786921,0.0008616527,0.9970757,42.60839,-10.24161,-22.12418,1009.845
10.589488030,0.02269233,-0.01797052,0.005224034,-0.0107049,0.0008465514,0.9970916,42.60839,-10.24161,-22.12418,1009.844
10.609304428,0.2062781,0.103157,0.005210914,-0.007756436,-0.006938514,0.993174,42.2321,-9.878894,-22.12927,1009.844
10.629120827,0.02232897,0.1031069,0.005409047,-0.007293502,-0.0001085077,0.9975508,42.2321,-9.878894,-22.12927,1009.843
10.648938179,0.08341031,0.2239875,0.06676909,-0.006323568,0.0003834504,0.997548,42.2321,-9.878894,-22.12927,1009.843
10.668754578,0.08323933,-0.0181699,-0.1166556,-0.01069998,0.0008500667,0.9985397,42.2321,-9.878894,-22.12927,1009.846
10.688571453,0.02193138,0.10292,-0.116286,-0.007302785,0.0003737293,0.9956225,42.2321,-9.878894,-22.12927,1009.846
10.708387852,0.08309054,0.1027946,-0.1161668,-0.004366219,0.0008909887,1.001884,42.97317,-9.870928,-22.13205,1009.842
10.728205204,0.08295882,-0.01852687,-0.1160096,-0.008761796,-0.001100454,0.9932095,42.97317,-9.870928,-22.13205,1009.842
10.748021603,0.08300044,0.1627728,-0.05478626,-0.00680223,0.001364157,1.001417,42.9781,-10.24604,-22.56892,1009.847
10.767838955,-0.03955957,0.2233137,0.006360084,-0.00873667,-0.002060242,0.9989966,42.9781,-10.24604,-22.56892,1009.847
10.790132523,0.2054476,-0.01885507,-0.1157333,-0.005328508,-8.437876E-05,1.003332,42.9781,-10.24604,-22.56892,1009.844
10.809948921,-0.1009473,0.04172393,-0.1156732,-0.005841626,-0.0005949123,0.9946442,42.97388,-9.86371,-21.75203,1009.844
10.829766274,0.1438748,0.04139116,0.06795102,-0.005348759,-0.002054341,0.9941514,42.97388,-9.86371,-21.75203,1009.844
10.849582672,0.2049201,0.04124919,0.06803,-0.003862962,-7.214095E-05,1.005255,42.60263,-9.87491,-22.13066,1009.844
10.869400025,-0.04020145,0.0410317,-0.1153787,-0.006807239,-0.004505888,0.9902854,42.60263,-9.87491,-22.13066,1009.845
10.889216423,0.143446,0.04100461,-0.1763667,-0.007277682,-0.002052691,0.9989886,42.60263,-9.87491,-22.13066,1009.845
10.909033299,0.1432589,-0.01957301,0.007333167,-0.004853102,0.0003992035,1.000919,42.9781,-10.24604,-22.56892,1009.846
10.928850174,0.02064374,0.1619951,-0.1761533,-0.004867349,-0.00205534,0.9927007,42.9781,-10.24604,-22.56892,1009.846
10.948667050,-0.1019519,0.1013986,0.007565148,-0.004872177,0.003807675,1.000936,42.97892,-10.23762,-22.12557,1009.845
10.968483448,0.1429304,0.1618656,-0.05334767,-0.004391898,0.001361508,0.995129,42.97892,-10.23762,-22.12557,1009.845
10.988299847,0.2039971,0.04068077,-0.05311769,-0.006818627,0.001352439,0.9965903,42.97892,-10.23762,-22.12557,1009.845
11.008117199,0.02005365,-0.01983909,-0.1140893,-0.005397857,0.003777036,0.9893548,42.60756,-10.25003,-22.56753,1009.845
11.027933598,0.01996479,0.161635,-0.1750229,-0.005341094,-0.001071118,0.9980178,42.60756,-10.25003,-22.56753,1009.846
11.047750950,0.1422661,0.04046985,-0.2359763,-0.008267799,-0.0001147133,0.9970734,42.23127,-9.887314,-22.57262,1009.846
11.070044518,0.08088078,-0.02002411,-0.2357706,-0.004379936,-0.002540919,0.9922128,42.23127,-9.887314,-22.57262,1009.845
11.089861870,0.01959799,-0.02016377,-0.05190253,-0.007282624,-0.003522838,0.9951198,42.23127,-9.887314,-22.57262,1009.845
11.109678268,0.08082072,-0.08083475,-0.1129539,-0.004849868,-0.002531718,0.9970422,42.60756,-10.25003,-22.56753,1009.847
11.129495621,0.08079077,0.04022266,-0.3573585,-0.01071582,0.001327617,0.9946808,42.60756,-10.25003,-22.56753,1009.847
11.149312019,0.08054951,0.1610712,0.01001423,-0.01215243,-0.0006194294,0.9980574,42.97234,-9.879347,-22.5754,1009.844
11.169128418,0.08040497,-0.02066229,-0.1734023,-0.008262902,-0.00157783,0.9961005,42.97234,-9.879347,-22.5754,1009.844
11.188945293,-0.1035358,-0.02072438,0.01011734,-0.008242719,-0.004007766,0.9980186,42.97234,-9.879347,-22.5754,1009.845
11.208762169,0.08017468,-0.02059631,-0.1731651,-0.01017603,-0.004986995,0.9999549,42.24277,-10.6207,-22.55966,1009.845
11.228579044,0.08018468,0.1608036,-0.05073182,-0.001940622,-0.001545111,0.996066,42.24277,-10.6207,-22.55966,1009.846
11.248395443,0.1412553,-0.02079629,0.0103852,-0.008731242,-0.004500723,0.9965706,42.60334,-9.867694,-21.75064,1009.846
11.268212795,0.07970564,0.0396736,0.07163682,-0.005794123,-0.003494195,1.0038,42.60334,-9.867694,-21.75064,1009.846
11.288029194,0.1408544,0.0396311,-0.05069514,-0.005369429,0.004286224,0.9985282,42.60334,-9.867694,-21.75064,1009.846
11.307846546,0.07955565,-0.02103809,-0.05070227,-0.01166994,-0.001108524,0.9961216,42.60839,-10.24161,-22.12418,1009.847
11.330140114,0.07952309,-0.08158629,-0.05053991,-0.005811604,-0.003017817,0.9994584,42.60839,-10.24161,-22.12418,1009.847
11.349957466,-0.04300903,-0.02115367,-0.05050901,-0.0082602,-0.003531387,0.993677,42.97892,-10.23762,-22.12557,1009.846
11.369773865,0.07937378,0.03920311,-0.1727263,-0.004860769,-0.0005840196,0.9970523,42.97892,-10.23762,-22.12557,1009.846
11.389590740,-0.04325391,0.1599972,-0.05014055,-0.002452584,0.001856157,0.9941556,42.97892,-10.23762,-22.12557,1009.849
11.409407616,-0.04335671,-0.2637655,0.01103257,-0.009216973,-0.001080706,1.002383,42.97892,-10.23762,-22.12557,1009.849
11.429224491,-0.1046157,0.2203526,-0.1111857,-0.006793546,-0.002540613,0.9975355,42.97892,-10.23762,-22.12557,1009.848
11.449040890,0.01780635,0.0386221,0.01130323,-0.008211058,-0.006429499,1.003316,42.97892,-10.23762,-22.12557,1009.848
11.468857288,0.1402862,0.09924676,-0.1720974,-0.007316456,-0.0001249129,0.9907932,42.23785,-10.24559,-22.12279,1009.85
11.488674641,0.0174863,-0.02214169,0.07267731,-0.006771168,-0.004480109,1.000904,42.23785,-10.24559,-22.12279,1009.85
11.508491039,0.01751924,0.09869239,-0.1107813,-0.004861345,-0.002539921,0.9936635,42.2321,-9.878894,-22.12927,1009.849
11.528308392,-0.166129,0.09865341,0.133993,-0.007736761,-0.006924453,0.9989661,42.2321,-9.878894,-22.12927,1009.849
11.548124790,-0.04364856,0.09855767,-0.04935095,-0.00776348,-0.003032571,0.9975383,42.2321,-9.878894,-22.12927,1009.851
11.567942143,0.0174639,0.0984812,-0.1103511,-0.01069072,-0.001098803,0.9980469,42.97234,-9.879347,-22.5754,1009.851
11.590235710,0.07855202,0.03786146,-0.1710869,-0.005791974,-0.00593702,1.000409,42.97234,-9.879347,-22.5754,1009.852
11.610053063,0.1395691,-0.02276529,-0.2319542,-0.008732859,-0.003035262,0.998509,42.23127,-9.887314,-22.57262,1009.852
11.629869461,0.01688632,-0.02272718,0.1351614,-0.007796781,-0.0006120105,0.9917588,42.23127,-9.887314,-22.57262,1009.853
11.649686337,-0.1056998,-0.0832399,-0.0482429,-0.01312343,0.0008433412,1.000966,42.23127,-9.887314,-22.57262,1009.853
11.669502735,0.07799692,0.03772862,-0.04823699,-0.007788029,-0.0001168835,0.99514,42.9781,-10.24604,-22.56892,1009.852
11.689320088,0.1389384,-0.02297378,0.01310413,-0.006804447,-0.0005929153,0.9975456,42.9781,-10.24604,-22.56892,1009.852
11.709136486,0.01635328,-0.2046442,0.07444484,-0.008743783,-0.002554196,0.9960981,42.60181,-9.88333,-22.57401,1009.853
11.728953839,0.1386446,-0.02318111,-0.1702384,-0.007276088,-0.004984783,0.9946295,42.60181,-9.88333,-22.57401,1009.853
11.748770237,0.1385848,0.09775057,-0.04775497,-0.006802762,0.002341521,1.00287,42.60181,-9.88333,-22.57401,1009.853
11.768587113,0.07706107,0.03708744,-0.04763518,-0.006278303,-0.005939537,1.000411,42.61414,-10.6083,-22.1177,1009.853
11.788403988,-0.106679,0.09758299,0.01364687,-0.002900741,-0.003496671,0.9965439,42.61414,-10.6083,-22.1177,1009.854
11.808220864,0.1995063,0.09737595,-0.0474538,-0.005823036,-9.275461E-05,1.000922,42.97892,-10.23762,-22.12557,1009.854
11.828037262,0.1380603,-0.02372307,-0.1085739,-0.004853102,0.0003992035,1.000919,42.97892,-10.23762,-22.12557,1009.855
11.847854614,-0.04564071,0.03686814,0.01400435,-0.009238819,-0.0001185751,0.9975614,42.97892,-10.23762,-22.12557,1009.855
11.870148182,0.01537582,-0.02357776,0.01413763,-0.005298001,-0.006417913,1.001852,42.60181,-9.88333,-22.57401,1009.851
11.889965058,0.07641694,-0.02351855,-0.1080309,-0.004856381,0.0003968601,0.9999534,42.60181,-9.88333,-22.57401,1009.851
11.909781933,-0.04616493,-0.08421912,-0.04673151,-0.004363516,-0.001062568,0.9994605,42.97317,-9.870928,-22.13205,1009.854
11.929598332,0.01501137,0.09707453,-0.04661424,-0.006796249,-0.0005870564,0.999959,42.97317,-9.870928,-22.13205,1009.854
11.949415684,0.01483921,0.2179703,-0.1687837,-0.01069619,-0.001591587,0.995631,42.97317,-9.870928,-22.13205,1009.853
11.969232559,0.01474429,0.09670164,-0.107543,-0.008244358,-0.004008938,0.9975359,42.23702,-10.25401,-22.56614,1009.853
11.989049435,0.01461112,-0.02450952,-0.107369,-0.008730688,-0.004011454,0.9975386,42.23702,-10.25401,-22.56614,1009.853
12.008866310,0.07578872,-0.02473291,0.0152064,-0.006787519,-0.001558562,1.000919,42.60263,-9.87491,-22.13066,1009.853
12.028682709,-0.04671472,0.1566963,-0.04585982,-0.004869498,0.0003874856,0.996092,42.60263,-9.87491,-22.13066,1009.853
12.048500061,0.1368146,0.03546747,-0.04574475,-0.00776893,-0.002058723,0.9975434,42.60263,-9.87491,-22.13066,1009.853
12.068316460,0.01431179,0.2773342,0.01557098,-0.00873503,-0.002059069,0.9994793,42.9781,-10.24604,-22.56892,1009.852
12.088133812,0.1979956,-0.08583039,-0.1678979,-0.005348183,-9.84401E-05,0.9975402,42.9781,-10.24604,-22.56892,1009.852
12.107950211,-0.04697401,-0.02540607,-0.0453435,-0.008725747,-0.002541307,1.001408,42.60263,-9.87491,-22.13066,1009.851
12.127767086,0.1977703,0.09549316,-0.1676122,-0.01120538,0.004256021,0.99856,42.60263,-9.87491,-22.13066,1009.851
12.150061131,0.01381889,0.03472983,-0.106226,-0.004860192,0.001371881,1.000441,42.60263,-9.87491,-22.13066,1009.851
12.169877529,0.1973885,0.0951173,-0.04479689,-0.006296339,-0.005952426,0.9951019,42.9896,-10.97943,-22.55596,1009.851
12.189694881,0.01350011,-0.02601399,0.01642044,-0.007755259,-0.00156008,1.002373,42.9896,-10.97943,-22.55596,1009.854
12.209511757,0.01352391,-0.08665124,0.01659032,-0.008685403,-0.00886781,1.002823,42.96742,-9.504232,-22.13853,1009.854
12.229328156,0.07458886,-0.02622491,0.0778647,-0.008781934,0.004262746,0.9961333,42.96742,-9.504232,-22.13853,1009.856
12.249145508,0.01316818,-0.2078491,-0.1055687,-0.00677611,-0.005950257,0.9970352,42.96742,-9.504232,-22.13853,1009.856
12.268961906,0.1967779,-0.02635896,-0.1664854,-0.006312666,-0.001564247,0.9975379,42.2321,-9.878894,-22.12927,1009.854
12.288779259,0.07412444,-0.02653974,-0.0441456,-0.003879358,-8.385885E-05,1.000428,42.2321,-9.878894,-22.12927,1009.854
12.308595657,0.1353448,-0.08723277,0.01714687,-0.01069236,-0.001099975,0.9975643,42.59689,-9.508215,-22.13714,1009.855
12.328412533,-0.04838789,0.09425841,0.01743023,-0.009714225,-0.0006021576,0.9999749,42.59689,-9.508215,-22.13714,1009.855
12.348228932,0.07395069,0.03341409,-0.1047657,-0.004840053,-0.00399132,0.9975174,42.59689,-9.508215,-22.13714,1009.856
12.368046284,0.07388035,0.03321624,-0.1045795,-0.006790266,-0.00253827,0.9985009,42.60756,-10.25003,-22.56753,1009.856
12.387862682,-0.1099863,0.1539494,0.01785447,-0.004867304,0.0008779258,0.9975426,42.60756,-10.25003,-22.56753,1009.857
12.410157204,0.1348738,0.09326791,-0.165549,-0.003878318,-0.00350522,0.9951012,42.60263,-9.87491,-22.13066,1009.857
12.429973602,0.01226048,0.09309068,-0.04307716,-0.003876656,-0.002037416,0.9980048,42.60263,-9.87491,-22.13066,1009.857
12.449790955,0.07350159,0.1533887,-0.1651788,-0.008745931,-0.000111371,0.9994894,42.60263,-9.87491,-22.13066,1009.857
12.469607353,0.0734324,0.03235803,-0.04280399,-0.003391965,-0.002036071,0.9975196,42.97317,-9.870928,-22.13205,1009.858
12.489424706,-0.04910354,0.03227684,0.01836997,-0.004374462,-0.002048136,0.9946287,42.97317,-9.870928,-22.13205,1009.858
12.509241104,0.01204183,0.03211991,-0.1039818,-0.006812091,-0.0001095063,0.9961001,42.22635,-9.512198,-22.13575,1009.857
12.529057980,0.1344785,-0.02862533,-0.1039321,-0.007750917,-0.003512465,1.000432,42.22635,-9.512198,-22.13575,1009.857
12.548874378,0.1344868,0.0923199,0.01848104,-0.006305046,-0.003514289,0.9965625,42.22635,-9.512198,-22.13575,1009.858
12.568691731,0.07314644,0.03178443,-0.04245901,-0.005325251,-0.001548668,1.001877,42.60756,-10.25003,-22.56753,1009.858
12.588508129,0.01180622,0.1527111,-0.1646581,-0.0106891,-0.002564264,0.9961087,42.60756,-10.25003,-22.56753,1009.853
12.608325482,-0.04959142,0.0315682,-0.1032934,-0.004839499,-0.003502051,0.9984853,42.60756,-10.25003,-22.56753,1009.853
12.628142357,0.1339836,0.03147002,-0.04196758,-0.009224084,-0.001574662,0.9994845,42.60263,-9.87491,-22.13066,1009.857
12.647958756,-0.0498995,-0.02914074,-0.103044,-0.01017552,-0.007430992,0.9960809,42.60263,-9.87491,-22.13066,1009.857
12.667776108,0.07246217,0.03123615,-0.1640054,-0.008731751,-0.002056726,1.000445,42.96742,-9.504232,-22.13853,1009.854
12.690070152,-0.0501326,-0.02936476,-0.2248966,-0.008750319,-0.001092251,0.9965883,42.96742,-9.504232,-22.13853,1009.854
12.709886551,0.01103452,0.03110769,-0.1635535,-0.007248792,-0.006920764,0.9994462,42.97892,-10.23762,-22.12557,1009.855
12.729703427,0.1333969,-0.0900908,-0.04116353,-0.007304957,0.001349922,0.9965929,42.97892,-10.23762,-22.12557,1009.855
12.749520779,0.0720592,0.09148352,-0.04104101,-0.00680223,0.001364157,1.001417,42.97892,-10.23762,-22.12557,1009.856
12.769337177,-0.1117451,0.09138671,-0.04091884,-0.004369521,-0.0005779874,0.9984977,42.60756,-10.25003,-22.56753,1009.856
12.789154530,0.0719283,-0.2113872,-0.1631026,-0.004856958,-0.001559041,0.9965646,42.60756,-10.25003,-22.56753,1009.856
12.808970928,0.01062955,0.09115624,-0.1016457,-0.007758007,-0.002539788,0.9999542,42.60756,-10.25003,-22.56753,1009.856
12.828787804,0.01067973,0.09090837,-0.04047758,-0.005331832,-0.003019987,0.9975251,42.97963,-10.23041,-21.74555,1009.857
12.848604202,0.07179025,0.03039537,0.02067131,-0.01067869,-0.0006013324,1.002394,42.97963,-10.23041,-21.74555,1009.857
12.868421555,0.1940577,-0.03017465,0.08193549,-0.005340562,-0.002048483,0.9965647,42.23702,-10.25401,-22.56614,1009.855
12.888238907,0.07146876,0.2119139,-0.1015464,-0.005829639,-0.003030706,0.994149,42.23702,-10.25401,-22.56614,1009.855
12.908055306,0.01022886,0.151173,-0.1013682,-0.006793568,-0.004007245,0.9951146,42.23702,-10.25401,-22.56614,1009.858
12.927872181,0.1325356,-0.03049775,-0.1625642,-0.00730447,-0.002560707,0.9902981,42.60405,-9.860477,-21.37062,1009.858
12.950166226,0.1324304,0.1509556,-0.1624313,-0.005317076,-0.003009441,1.001869,42.60405,-9.860477,-21.37062,1009.857
12.969982624,0.009919196,0.09036777,-0.03990979,-0.003850468,-0.004951932,1.000886,42.60181,-9.88333,-22.57401,1009.857
12.989799500,0.009740643,-0.03075148,-0.03982881,-0.007291331,-0.001084701,0.9965804,42.60181,-9.88333,-22.57401,1009.859
13.009616852,-0.1128853,-0.03095908,0.08253853,-0.01066617,-0.004014491,1.000445,42.60181,-9.88333,-22.57401,1009.859
13.029433250,0.00953833,0.1504858,-0.1620497,-0.008261817,-0.002065927,0.9956152,42.97234,-9.879347,-22.5754,1009.862
13.049250603,0.07061322,0.2109626,-0.0396059,-0.007765674,-0.003523011,0.9960878,42.97234,-9.879347,-22.5754,1009.862
13.069067001,0.07041673,0.02931271,0.02179038,-0.003872799,-7.91715E-05,1.002359,42.97234,-9.879347,-22.5754,1009.862
13.088884354,-0.1133644,0.1502834,0.02185084,-0.004391944,-0.001571757,0.9902872,42.97234,-9.879347,-22.5754,1009.862
13.108700752,0.009233408,-0.03142309,-0.1002986,-0.01311962,-0.0001316797,1.000479,42.97234,-9.879347,-22.5754,1009.863
13.128517628,-0.1131606,-0.03143916,0.02199012,-0.004832963,-0.004963997,0.997995,42.97234,-9.879347,-22.5754,1009.863
13.148334980,0.009186774,0.02890569,0.02208845,-0.006306662,-0.002048829,0.9985008,42.97234,-9.879347,-22.5754,1009.865
13.168151379,0.1314769,0.08934578,0.0220906,-0.008274911,-0.0006086684,0.9941749,42.59702,-9.577751,-22.57941,1009.865
13.187968731,0.008872062,0.149824,0.02216948,-0.004366819,-0.002531545,0.9960743,42.59702,-9.577751,-22.57941,1009.86
13.207785130,0.008734457,0.02859343,0.1445155,-0.006307194,-0.001071464,0.9999539,42.59702,-9.577751,-22.57941,1009.86
13.230079651,-0.1136995,0.149576,0.1445104,-0.006765187,-0.006431323,0.9994461,42.60263,-9.87491,-22.13066,1009.861
13.249896050,0.13127,0.1494854,-0.1001183,-0.00387116,-7.79999E-05,1.002842,42.60263,-9.87491,-22.13066,1009.861
13.269712925,-0.05258695,0.2099076,-0.03881966,-0.008278745,-0.00110028,0.9922416,42.59702,-9.577751,-22.57941,1009.862
13.289529324,-0.1139958,0.08871602,-0.03872225,-0.00875958,0.0008566189,0.997081,42.59702,-9.577751,-22.57941,1009.862
13.309346676,0.008449696,0.1491388,0.08369996,-0.006811559,-0.001086871,0.994647,42.59702,-9.577751,-22.57941,1009.861
13.329163075,0.008447707,-0.03258383,-0.09972869,-0.00582687,-0.0005843665,0.9989882,42.9781,-10.24604,-22.56892,1009.861
13.348980427,-0.05297992,0.08829542,-0.1608711,-0.00969187,-0.004008286,1.000923,42.9781,-10.24604,-22.56892,1009.862
13.368797302,-0.1142533,0.02769402,-0.03843032,-0.001453184,-0.0005640581,0.9979991,42.59631,-9.584968,-22.95943,1009.862
13.388614178,0.008192971,0.1484979,0.02279019,-0.010206,0.0003691744,0.9999826,42.59631,-9.584968,-22.95943,1009.86
13.408431053,0.1917959,0.02730852,-0.09941908,-0.01069402,-0.002567779,0.9946606,42.59631,-9.584968,-22.95943,1009.86
13.428247452,0.1304846,0.02718297,-0.09947661,-0.008750319,-0.001092251,0.9965883,42.59702,-9.577751,-22.57941,1009.861
13.448064804,-0.05327425,0.1481212,-0.2216861,-0.00535749,-0.001082835,0.993191,42.59702,-9.577751,-22.57941,1009.861
13.467881680,0.06917264,0.1481862,-0.09916939,-0.009207712,-0.003029576,1.00189,42.97234,-9.879347,-22.5754,1009.858
13.490175724,0.0689773,-0.09411211,0.1456261,-0.006805533,-0.0001048192,0.9980308,42.97234,-9.879347,-22.5754,1009.858
13.509992123,-0.176072,0.2084977,-0.09902465,-0.006308856,-0.002539268,0.9970502,42.97234,-9.879347,-22.5754,1009.859
13.529809475,0.007570684,0.2688289,0.08442334,-0.008731774,-0.003523358,0.9980237,42.60839,-10.24161,-22.12418,1009.859
13.549626351,0.1300763,0.08718562,-0.03794085,-0.008751959,-0.001093423,0.9961057,42.60839,-10.24161,-22.12418,1009.859
13.569442749,-0.05381607,-0.09445743,-0.03794159,-0.007301146,0.0003749011,0.9961053,42.29961,-10.24493,-22.12302,1009.859
13.589260101,0.06851692,-0.09444825,-0.282573,-0.007295163,-0.001576312,0.9946471,42.29961,-10.24493,-22.12302,1009.86
13.609076500,0.06844105,0.1475928,-0.09893299,-0.00926339,0.00133048,0.9927421,42.29961,-10.24493,-22.12302,1009.86
13.628893852,0.007189408,-0.03408795,0.08478352,-0.004362431,-0.001550665,0.9989753,42.60263,-9.87491,-22.13066,1009.862
13.648710728,0.06832799,0.1474218,0.2071643,-0.006794609,-0.0005858848,1.000442,42.60263,-9.87491,-22.13066,1009.862
13.668527126,0.06831022,-0.0947522,0.02367515,-0.006323058,-0.002060547,0.993674,42.96838,-9.565348,-22.13745,1009.863
13.688344479,-0.05432811,-0.09470427,-0.1596989,-0.006827909,0.001834676,0.994662,42.96838,-9.565348,-22.13745,1009.863
13.708160877,0.006849475,0.08672968,-0.03718431,-0.002896353,-0.002515791,0.999445,42.96838,-9.565348,-22.13745,1009.866
13.727978230,-0.05442039,0.02609424,-0.09823418,-0.00679678,0.0003903075,1.001412,42.97234,-9.879347,-22.5754,1009.866
13.747795105,0.00675749,-0.09495868,0.02426056,-0.007767291,-0.002057551,0.998026,42.97234,-9.879347,-22.5754,1009.868
13.770089150,0.06806801,-0.2160388,0.0856424,-0.006324676,-0.0005950858,0.9956122,42.60334,-9.867694,-21.75064,1009.868
13.789906025,0.00664445,0.2681683,-0.03678241,-0.007804956,0.0008487632,0.9917664,42.60334,-9.867694,-21.75064,1009.869
13.809722424,0.006589353,0.2074952,-0.09796772,-0.007284241,-0.002057378,0.997058,42.60334,-9.867694,-21.75064,1009.869
13.829539776,0.06778703,-0.03467775,-0.03686646,-0.005849801,0.0008658612,0.9946517,42.60756,-10.25003,-22.56753,1009.869
13.849356175,0.006460257,-0.03464758,-0.1590988,-0.008757962,-0.0006088417,0.9951428,42.60756,-10.25003,-22.56753,1009.869
13.869173527,0.06760069,0.02595206,-0.03666241,-0.01117217,-0.00403107,0.9946557,42.60839,-10.24161,-22.12418,1009.87
13.888990402,0.06745012,0.08647562,-0.03655115,-0.006780429,-0.002531239,1.001397,42.60839,-10.24161,-22.12418,1009.87
13.908806801,0.006201103,0.1468661,-0.1586499,-0.008727409,-0.004009111,0.998504,42.60839,-10.24161,-22.12418,1009.869
13.928624153,0.006070226,-0.156009,-0.09724268,-0.005815414,-0.002042796,0.9999462,42.60756,-10.25003,-22.56753,1009.869
13.948440552,0.1285987,0.08611055,0.1474977,-0.009226855,-0.004021002,0.9946451,42.60756,-10.25003,-22.56753,1009.87
13.968257904,0.1286026,0.08595141,-0.1583393,-0.005837814,-0.001569933,0.9941566,42.60756,-10.25003,-22.56753,1009.87
13.988074780,-0.0552477,-0.03534675,-0.09706736,-0.00680828,-0.001084527,0.9956123,42.97963,-10.23041,-21.74555,1009.869
14.007891178,0.006009161,0.1461472,0.08662522,-0.00292418,0.0003975532,0.9960814,42.97963,-10.23041,-21.74555,1009.869
14.030185699,-0.05539507,0.02495584,-0.03575242,-0.003901735,0.001855637,0.9970596,42.60839,-10.24161,-22.12418,1009.866
14.050002098,0.005689114,0.2065453,-0.03581616,-0.005830149,-0.0005867099,0.9980229,42.60839,-10.24161,-22.12418,1009.866
14.069819450,0.189356,0.2064446,-0.1580703,-0.006307748,-0.001560732,0.9989858,42.60839,-10.24161,-22.12418,1009.866
14.089635849,0.1277624,-0.09614342,-0.03563649,-0.008763945,0.001342371,0.9966009,42.60839,-10.24161,-22.12418,1009.866
14.109453201,-0.05583581,-0.0355792,-0.03543184,-0.005824122,0.0003953413,1.001407,42.60839,-10.24161,-22.12418,1009.867
14.129270077,-0.05588788,-0.09611652,-0.09648609,-0.01166721,-0.001595449,0.996119,42.96838,-9.565348,-22.13745,1009.867
14.149086952,0.06645028,0.2063465,-0.2798656,-0.009721869,-0.0001187485,0.9985294,42.96838,-9.565348,-22.13745,1009.864
14.168903828,0.1275553,0.08516391,-0.09619394,-0.003384322,-0.00251948,0.9989649,42.96838,-9.565348,-22.13745,1009.864
14.188720226,0.004921995,0.2060895,-0.03498191,-0.01120758,0.003765582,0.9971094,42.60181,-9.88333,-22.57401,1009.866
14.208537579,0.004775137,0.1453443,0.02617236,-0.01169338,0.0027857,0.9956589,42.60181,-9.88333,-22.57401,1009.866
14.228354454,-0.117723,0.08469469,0.02616423,-0.008728495,-0.003521014,0.998989,41.92754,-10.26454,-22.94501,1009.867
14.248171330,0.00471276,-0.03641037,-0.09611128,-0.004387048,-0.003034874,0.9893143,41.92754,-10.26454,-22.94501,1009.867
14.267988205,0.004585624,0.2055419,0.08750225,-0.007295673,0.0008676848,0.9985211,41.92754,-10.26454,-22.94501,1009.867
14.287805557,0.004477985,0.02390553,-0.0959169,-0.001966301,-0.001074591,0.9893112,42.29303,-9.88665,-22.57285,1009.867
14.310099125,-0.05705632,0.02374309,0.1488887,-0.008760134,0.0003673506,0.9961132,42.29303,-9.88665,-22.57285,1009.864
14.329916477,0.004070587,0.08402524,0.148822,-0.00678865,-0.004003731,0.9965626,42.60263,-9.87491,-22.13066,1009.864
14.349732876,0.00404115,0.08398522,-0.03457826,-0.009232283,-0.001580521,0.9970711,42.60263,-9.87491,-22.13066,1009.863
14.369549751,0.1264595,0.2051416,-0.034549,-0.009230598,0.001353916,1.002396,42.60263,-9.87491,-22.13066,1009.863
14.389366627,0.003886543,0.1445318,0.08774752,-0.006807172,-0.0001059908,0.9975482,42.60181,-9.88333,-22.57401,1009.862
14.409183502,0.003819183,0.02339041,-0.09567218,-0.005338922,-0.002047311,0.9970474,42.60181,-9.88333,-22.57401,1009.862
14.429000855,-0.05738543,0.08390134,-0.1569401,-0.008260686,0.0003792418,0.999972,42.97234,-9.879347,-22.5754,1009.864
14.448817253,-0.05741432,0.02325397,-0.217958,-0.01068799,-0.001585728,0.9980444,42.97234,-9.879347,-22.5754,1009.864
14.468634129,0.003732733,0.1440501,0.08778717,-0.008239395,-0.001072157,1.003826,42.97234,-9.879347,-22.5754,1009.864
14.488451481,0.003646456,0.02298583,0.02665377,-0.00971427,-0.003535422,0.995133,42.30536,-10.61162,-22.11654,1009.864
14.508267880,0.003637299,0.02302313,-0.0344796,-0.01263386,-0.002085064,0.9970871,42.30536,-10.61162,-22.11654,1009.864
14.528085232,0.06476557,-0.09807912,-0.09547874,-0.001926974,-0.002513101,0.9984744,41.92402,-9.874996,-21.7481,1009.864
14.547902107,0.125894,0.02298362,-0.03423016,-0.009238863,-0.00305184,0.9927195,41.92402,-9.874996,-21.7481,1009.861
14.567718983,-0.05804565,-0.1585743,-0.09517227,-0.008715378,-0.00351164,1.00285,41.92402,-9.874996,-21.7481,1009.861
14.590013027,-0.05807392,0.02293687,-0.0338562,-0.008765075,-0.001102797,0.9922442,42.29385,-9.87823,-22.1295,1009.86
14.609829903,0.00307484,0.02287929,-0.03392471,-0.005353633,0.0008754089,0.9975452,42.29385,-9.87823,-22.1295,1009.86
14.629646778,0.003028743,-0.09822245,-0.09502125,-0.007283155,-0.002545474,0.9965728,42.60263,-9.87491,-22.13066,1009.862
14.649463177,0.002982728,-0.03776706,0.02752299,-0.008267268,-0.001092078,0.9956203,42.60263,-9.87491,-22.13066,1009.862
14.669280529,0.003032923,-0.0378811,-0.09479424,-0.0067717,-0.003502744,1.002357,42.60263,-9.87491,-22.13066,1009.863
14.689097405,-0.05834265,0.2041509,0.08877756,-0.01167213,-0.001598964,0.9946709,42.60827,-10.24281,-22.18752,1009.863
14.708914280,-0.05836917,0.08303071,0.02771861,-0.005345458,-0.0005853646,0.9975377,42.60827,-10.24281,-22.18752,1009.866
14.728731156,0.06393687,-0.03818415,0.02774499,-0.003896885,-0.002540746,0.9912449,42.29961,-10.24493,-22.12302,1009.866
14.748548508,0.002581373,0.02227249,0.02771375,-0.008757385,0.001347059,0.9985316,42.29961,-10.24493,-22.12302,1009.868
14.768364906,0.06375067,0.02217855,-0.09458469,-0.005313819,-0.00447373,1.000414,42.29961,-10.24493,-22.12302,1009.868
14.788181782,0.1249202,-0.03821889,0.02793919,-0.007321884,0.002315569,0.9932192,42.60756,-10.25003,-22.56753,1009.866
14.807999134,0.002235726,-0.09888255,-0.03313988,-0.00824221,-0.006451763,0.9941447,42.60756,-10.25003,-22.56753,1009.866
14.827815533,-0.05906099,0.082543,0.02795228,-0.007774381,-0.001084874,0.9975484,42.29303,-9.88665,-22.57285,1009.869
14.850110054,0.06338059,0.2035822,0.1503325,-0.009729535,-0.001101972,0.9946629,42.29303,-9.88665,-22.57285,1009.869
14.869926453,-0.05930304,0.1430902,0.1501855,-0.006280474,-0.004963345,1.001382,42.29303,-9.88665,-22.57285,1009.868
14.889743805,0.06308221,-0.1595478,-0.1556775,-0.01213116,-0.003537461,0.9994903,42.96826,-9.566551,-22.20078,1009.868
14.909560681,0.001824923,0.08248559,-0.03344165,-0.01017,-0.004004944,1.003339,42.96826,-9.566551,-22.20078,1009.87
14.929377079,0.06307304,0.1428481,0.02772797,-0.005824676,-9.392644E-05,1.000439,42.60181,-9.88333,-22.57401,1009.87
14.949194432,0.1243788,0.1427364,-0.09462827,-0.007259138,-0.004483798,1.000424,42.60181,-9.88333,-22.57401,1009.871
14.969011784,-0.1205789,-0.03900809,-0.09460188,-0.009691847,-0.002541653,1.003344,42.60181,-9.88333,-22.57401,1009.871
14.988828182,0.1244654,0.02145067,-0.09457552,-0.009745331,0.002308843,0.9956458,42.60756,-10.25003,-22.56753,1009.873
15.008645058,-0.05941303,0.0213588,-0.1556158,-0.003883191,-0.0005754705,0.9984951,42.60756,-10.25003,-22.56753,1009.873
15.028462410,-0.05945602,0.1422926,0.0279168,-0.006311604,-0.003518976,0.9946318,42.97234,-9.879347,-22.5754,1009.876
15.048278809,0.06300642,0.08184043,-0.033143,-0.006791375,-0.003516806,0.9965651,42.97234,-9.879347,-22.5754,1009.876
15.068096161,0.06284828,0.2026983,-0.09414548,-0.009242652,-0.000610187,0.9956281,42.97234,-9.879347,-22.5754,1009.876
15.087913036,0.1851766,0.1421136,0.02828137,-0.01021859,-0.0006175642,0.994668,41.92824,-10.25733,-22.56499,1009.876
15.110207081,-0.05993433,0.1420162,-0.03290351,-0.002419861,-0.002520306,0.9965463,41.92824,-10.25733,-22.56499,1009.873
15.130023956,0.1848425,-0.03961261,-0.1551458,-0.008271654,-0.002072958,0.9927192,42.97388,-9.86371,-21.75203,1009.873
15.149840355,0.06239195,0.02090459,-0.03273845,-0.01068254,-0.002559577,0.9980394,42.97388,-9.86371,-21.75203,1009.874
15.169657707,-0.1826024,0.02089009,-0.09379952,-0.007292971,-0.001085872,0.9960977,42.97388,-9.86371,-21.75203,1009.874
15.189475060,0.062444,0.0813503,-0.09377523,-0.005832874,-9.978539E-05,0.9980255,42.97963,-10.23041,-21.74555,1009.875
15.209291458,0.06242178,0.02051924,-0.09378943,-0.006308856,-0.002539268,0.9970502,42.97963,-10.23041,-21.74555,1009.875
15.229108334,0.1235369,0.3835628,-0.2773485,-0.006332829,0.00233232,0.9980407,42.97963,-10.23041,-21.74555,1009.875
15.248925686,0.0009905472,0.02009337,0.0285458,-0.00435809,-0.00350305,0.9970345,43.35663,-10.5859,-21.36044,1009.875
15.268742085,0.0008920729,-0.04048868,-0.1547636,-0.008276529,0.0008567921,0.9961131,43.35663,-10.5859,-21.36044,1009.874
15.288559437,0.0619311,0.1408092,-0.03231901,-0.004866264,-0.002543436,0.9922155,42.97963,-10.23041,-21.74555,1009.874
15.308376312,-0.06053749,0.1406647,0.2122968,-0.006339941,0.001838365,0.9951422,42.97963,-10.23041,-21.74555,1009.873
15.328192711,0.0006751046,0.2010331,-0.03231014,-0.004365711,-0.001553009,0.99801,42.97963,-10.23041,-21.74555,1009.873
15.348010063,0.1231596,0.07993989,-0.2157164,-0.005836729,-0.00205803,0.9936714,42.67002,-10.24215,-22.18775,1009.874
15.367826939,-0.1219489,0.01924553,-0.03218658,-0.005309455,-0.004959483,1.000894,42.67002,-10.24215,-22.18775,1009.874
15.390120983,0.06163463,-0.04151151,-0.2155254,-0.006302298,-0.002534581,0.9989808,42.6098,-10.22717,-21.36414,1009.875
15.409937859,0.0002464652,0.1400738,-0.0317658,-0.01067598,-0.00255489,0.9999701,42.6098,-10.22717,-21.36414,1009.875
15.429754734,0.0002266616,0.01894376,-0.09292533,-0.005836175,-0.001568761,0.9946392,42.6098,-10.22717,-21.36414,1009.875
15.449571610,0.1226353,0.01878226,-0.2152089,-0.005820333,-0.002046312,0.9984981,42.97963,-10.23041,-21.74555,1009.875
15.469388962,-4.335493E-05,0.07926679,-0.03169949,-0.002926397,-0.001559519,0.9922099,42.97963,-10.23041,-21.74555,1009.872
15.489205361,0.06115168,-0.1628311,-0.09282076,-0.006814284,-0.0005999461,0.9946495,42.60909,-10.23439,-21.74416,1009.872
15.509022236,0.06092136,0.07913462,-0.03157887,-0.006780983,-0.003020507,1.000429,42.60909,-10.23439,-21.74416,1009.871
15.528839588,-0.0005227104,-0.04210843,0.09097897,-0.007286434,-0.002547818,0.9956074,42.60909,-10.23439,-21.74416,1009.871
15.548655987,-0.1843371,-0.1029144,0.02976086,-0.004318208,-0.004452291,1.007166,43.72071,-10.22244,-21.74833,1009.872
15.568473339,0.06057911,0.0181604,0.09086788,-0.005814883,-0.00302016,0.9984931,43.72071,-10.22244,-21.74833,1009.872
15.588290215,-0.0006527677,0.1390261,0.09088921,-0.00974263,0.0003552861,0.9932224,42.97388,-9.86371,-21.75203,1009.872
15.608107090,-0.1232526,0.07843028,-0.03137586,-0.01071148,-0.0006247682,0.99274,42.97388,-9.86371,-21.75203,1009.872
15.627923966,0.06041127,-0.1033046,-0.03133546,-0.004845503,-0.00301747,0.9975224,42.97388,-9.86371,-21.75203,1009.873
15.647741318,0.06039411,-0.1033492,-0.03125677,-0.007257476,-0.003015993,1.003328,42.97388,-9.86371,-21.75203,1009.873
15.670034886,0.121457,0.1387467,0.09130996,-0.005803429,-0.00447859,0.9994509,42.97388,-9.86371,-21.75203,1009.87
15.689852238,-0.1235704,0.1384553,-0.03097545,-0.002923118,-0.001557176,0.9931752,43.34442,-9.859728,-21.75342,1009.87
15.709669113,-0.06244951,0.1383355,0.03043758,-0.001441707,-0.0005558557,1.001378,43.34442,-9.859728,-21.75342,1009.869
15.729485512,0.1823913,-0.04328406,-0.03060931,-0.006323635,-0.004016447,0.9902852,43.34442,-9.859728,-21.75342,1009.869
15.749302864,-0.1850253,0.01709045,-0.09169488,-0.01068201,-0.003536941,0.9965863,43.34935,-10.23484,-22.19029,1009.868
15.769120217,-0.06255509,-0.1039779,-0.1527807,-0.01117432,-0.001588245,0.9980471,43.34935,-10.23484,-22.19029,1009.868
15.788936615,0.1210717,0.1380491,-0.0914458,-0.005822505,-0.001070119,0.9994684,42.60405,-9.860477,-21.37062,1009.867
15.808753491,-0.001410879,-0.04370263,-0.03016895,-0.006295739,-0.002529894,1.000912,42.60405,-9.860477,-21.37062,1009.867
15.828570843,-0.1238934,0.0166349,-0.2135998,-0.003879958,-0.003506392,0.9946185,42.60405,-9.860477,-21.37062,1009.866
15.848387718,-0.06267563,0.01647916,-0.09112254,-0.007262971,-0.004975409,0.998491,42.99113,-10.9638,-21.73259,1009.866
15.868204594,0.1211052,-0.04407492,-0.02990413,-0.007242788,-0.007405344,1.000409,42.99113,-10.9638,-21.73259,1009.865
15.888021469,0.05979833,0.0162635,0.09241914,-0.006306154,-0.004492825,0.9946267,42.60827,-10.24281,-22.18752,1009.865
15.907838822,-0.1853626,0.01626066,0.03135102,-0.007799461,0.002808179,0.9966031,42.60827,-10.24281,-22.18752,1009.869
15.930132389,0.05961429,0.0766134,-0.02980404,-0.0107076,0.002800108,0.9995151,42.60827,-10.24281,-22.18752,1009.869
15.949949742,-0.06302147,-0.04460435,-0.0909685,-0.01266389,0.0003378412,0.992273,42.98538,-10.5971,-21.73907,1009.868
15.969766140,-0.1243082,-0.1657647,-0.02967365,-0.009696743,-0.001078536,1.004316,42.98538,-10.5971,-21.73907,1009.868
15.989583015,-0.06322389,-0.044741,-0.09074248,-0.007790754,0.0003700408,0.9951426,43.35017,-10.22642,-21.74694,1009.869
16.009400368,0.05917116,0.01584602,-0.09070668,-0.007735075,-0.003990015,1.004291,43.35017,-10.22642,-21.74694,1009.869
16.029217720,-0.002076291,-0.1053142,0.03169244,-0.00826997,0.0008614792,0.9980437,43.35017,-10.22642,-21.74694,1009.869
16.049034119,-0.002186395,0.1366402,0.03178554,-0.008751404,-0.0006041545,0.9970735,42.98538,-10.5971,-21.73907,1009.869
16.068850994,0.05893721,0.1366771,0.03182086,-0.00875794,0.0008577907,0.9975638,42.98538,-10.5971,-21.73907,1009.871
16.088668346,0.05869313,-0.1658687,-0.09046878,-0.005340562,-0.002048483,0.9965647,42.96909,-9.558131,-21.75743,1009.871
16.108484745,0.05869947,-0.1053764,-0.09041445,-0.008248124,-0.000100652,1.002865,42.96909,-9.558131,-21.75743,1009.872
16.128302097,-0.00258527,-0.04475106,0.09320388,-0.007774957,-0.003040774,0.9941596,42.96909,-9.558131,-21.75743,1009.872
16.148118973,-0.1249689,0.01576008,-0.09028715,-0.008244336,-0.002542305,0.9999569,42.60909,-10.23439,-21.74416,1009.873
16.167935371,0.05877621,-0.1657797,-0.02905165,-0.0077793,-0.001088389,0.9961004,42.60909,-10.23439,-21.74416,1009.873
16.187752724,0.1199581,0.1368201,-0.02884448,-0.003371805,-0.005932638,0.9970167,42.97388,-9.86371,-21.75203,1009.875
16.210047245,0.05865486,-0.0447246,0.0323802,-0.0102,-0.0001154065,1.000945,42.97388,-9.86371,-21.75203,1009.875
16.229863644,-0.06380558,-0.105277,0.03249081,-0.006795762,-0.004497685,0.9936641,42.97388,-9.86371,-21.75203,1009.876
16.249680996,0.1198436,-0.1052976,-0.08983885,-0.006289758,-0.004481107,0.9994535,42.97881,-10.23883,-22.1889,1009.876
16.269497871,-0.0639462,0.01572621,0.03246195,-0.005305667,-0.007401136,0.9979851,42.97881,-10.23883,-22.1889,1009.876
16.289314270,0.05843151,-0.04480683,-0.0898293,-0.00875743,-0.001586206,0.9936898,42.60909,-10.23439,-21.74416,1009.876
16.309131622,-0.1866107,-0.0448273,-0.02865265,-0.00678701,-0.004002559,0.9970453,42.60909,-10.23439,-21.74416,1009.877
16.328948498,0.05833043,-0.1055883,-0.08972415,-0.003382659,-0.001051676,1.001869,42.60909,-10.23439,-21.74416,1009.877
16.348765850,0.05829933,0.075892,-0.02831727,-0.004845503,-0.00301747,0.9975224,42.97963,-10.23041,-21.74555,1009.878
16.368582249,-0.1254129,-0.2266912,0.03289714,-0.006812091,-0.0001095063,0.9961001,42.97963,-10.23041,-21.74555,1009.878
16.388399601,-0.002919421,0.0154159,-0.08933766,-0.004355895,-0.00301261,0.9984851,42.97963,-10.23041,-21.74555,1009.875
16.408216477,-0.1255712,0.01539624,0.03313478,-0.006294123,-0.003995355,0.9989733,42.60405,-9.860477,-21.37062,1009.875
16.428033829,0.1806231,0.1968387,-0.2115598,-0.01067705,-0.0006001608,1.002876,42.60405,-9.860477,-21.37062,1009.877
16.447850227,0.0580871,0.07560397,0.03308358,-0.009742076,0.0008445545,0.9941904,43.35017,-10.22642,-21.74694,1009.877
16.470144749,-0.0643708,-0.1665654,0.03314383,-0.008737755,-0.001572145,0.9994819,43.35017,-10.22642,-21.74694,1009.876
16.489961147,0.05804635,0.07546668,0.03311821,-0.006798465,-0.002544129,0.9960875,42.98034,-10.22319,-21.36553,1009.876
16.509778500,-0.1255692,0.07522028,-0.1503755,-0.004364025,0.001381428,1.003335,42.98034,-10.22319,-21.36553,1009.878
16.529595375,-0.1255806,0.07505036,-0.02798025,-0.004832386,-0.003008096,1.001384,42.98034,-10.22319,-21.36553,1009.878
16.549412727,0.119284,-0.1064672,0.09433802,-0.008748701,-0.002557712,0.99465,42.97388,-9.86371,-21.75203,1009.881
16.569229126,-0.003347881,0.0749204,0.0331691,-0.00290014,-7.41377E-05,1.002354,42.97388,-9.86371,-21.75203,1009.881
16.589046002,-0.00328175,-0.04614112,-0.08895104,-0.0063165,-0.002055859,0.9956046,42.97388,-9.86371,-21.75203,1009.881
16.608863354,-0.06464151,-0.04631018,-0.02766129,-0.005817077,-0.0035106,0.9970425,42.98538,-10.5971,-21.73907,1009.881
16.628680706,-0.003399551,0.07460354,-0.02772622,-0.01021145,0.001343023,0.9999876,42.98538,-10.5971,-21.73907,1009.882
16.648497105,0.118999,0.0141314,-0.1500007,-0.00338924,-0.002522995,0.997517,42.97388,-9.86371,-21.75203,1009.882
16.668313980,0.1802413,-0.2278599,0.03359453,-0.008733413,-0.00352453,0.9975411,42.97388,-9.86371,-21.75203,1009.883
16.688131333,-0.125898,0.1353135,-0.08875722,-0.005353102,-0.0001019556,0.9960921,42.97388,-9.86371,-21.75203,1009.883
16.707947731,0.05781091,0.1352587,0.03367532,-0.00821653,-0.006922282,1.0009,42.97459,-9.856494,-21.37201,1009.885
16.727765083,0.1802673,0.0746724,0.09482995,-0.00872249,-0.004005595,0.999952,42.97459,-9.856494,-21.37201,1009.885
16.750059128,-0.003500171,0.01402474,-0.08859903,-0.01068365,-0.003538113,0.9961037,42.6651,-9.86703,-21.75087,1009.884
16.769876003,0.1190139,0.07448329,0.03377558,-0.009217571,-0.004503239,0.9965733,42.6651,-9.86703,-21.75087,1009.884
16.789692879,0.05763539,0.1955306,-0.02743323,-0.01021914,-0.001106832,0.9937002,42.6651,-9.86703,-21.75087,1009.886
16.809510231,0.1190315,0.01386253,0.09497973,-0.005355273,0.000874237,0.9970625,42.67085,-10.23373,-21.74439,1009.886
16.829327107,0.05776831,0.01377081,0.03384767,-0.007748724,-0.003022025,1.001882,42.67085,-10.23373,-21.74439,1009.887
16.849143505,-0.1260195,0.07413486,0.03383949,-0.004826891,-0.00104868,1.006221,42.66427,-9.87545,-22.19423,1009.887
16.868960858,0.05770897,0.1346895,0.03388891,-0.007282601,-0.002056206,0.9975407,42.66427,-9.87545,-22.19423,1009.888
16.888778210,-0.1258672,0.07406639,-0.08836745,-0.01216938,-0.001120415,0.9922628,42.66427,-9.87545,-22.19423,1009.888
16.908595085,0.1802317,0.01351956,-0.02715594,-0.0116579,-0.0006110535,1.000468,42.67731,-10.5932,-21.35789,1009.883
16.928411484,-0.06480865,-0.04700812,-0.02714531,-0.009215909,-0.003035435,0.9994769,42.67731,-10.5932,-21.35789,1009.883
16.948228836,0.2412907,0.07415433,-0.08837396,-0.009244801,0.001832638,0.9990194,43.34583,-9.845295,-20.99338,1009.884
16.968045712,-0.06500182,-0.1679497,-0.0271624,-0.009225724,-0.001575834,0.9990017,43.34583,-9.845295,-20.99338,1009.884
16.987863064,-0.003682084,0.1951302,0.03408747,-0.002878386,-0.006902799,0.9974917,43.34583,-9.845295,-20.99338,1009.884
17.010157108,0.05754261,0.01342068,0.03408705,-0.008751912,0.001839842,1.000948,43.34513,-9.852511,-21.3734,1009.884
17.029973984,0.05743659,0.07388068,0.03400145,-0.009235009,-0.001093596,0.9970736,43.34513,-9.852511,-21.3734,1009.885
17.049791336,0.118545,0.01331551,0.09513619,-0.006315392,-0.001077323,0.9975405,42.96909,-9.558131,-21.75743,1009.885
17.069607735,0.05712926,0.0737949,-0.02725478,-0.007746599,-0.006931484,0.9960701,42.96909,-9.558131,-21.75743,1009.886
17.089424610,-0.06530818,0.01338186,0.1563586,-0.004373908,-0.001558868,0.9955966,42.96909,-9.558131,-21.75743,1009.886
17.109241962,0.1185369,0.07387996,-0.02721415,-0.006326891,-0.002552158,0.9917408,42.97388,-9.86371,-21.75203,1009.888
17.129059315,0.05733264,0.01327671,-0.0271074,-0.009714801,-0.002558059,0.996586,42.97388,-9.86371,-21.75203,1009.888
17.148875713,-0.06512456,0.0133192,-0.0881059,-0.002392034,-0.005433649,0.99991,42.30606,-10.6044,-21.73652,1009.887
17.168692589,-0.003823742,0.0132857,0.09542992,-0.008254727,-0.003038604,0.996093,42.30606,-10.6044,-21.73652,1009.887
17.188509941,0.1187297,-0.04726037,-0.1491523,-0.005355804,0.001851601,0.9985156,42.30606,-10.6044,-21.73652,1009.888
17.208326817,0.05760176,0.01327599,-0.08788419,-0.007266205,-0.002044488,1.002367,42.97459,-9.856494,-21.37201,1009.888
17.228143692,0.05757251,0.01326166,-0.08779788,-0.007753088,-0.002536273,1.001402,42.97459,-9.856494,-21.37201,1009.889
17.247960568,0.05748568,0.01324739,0.09583315,-0.003927414,0.002326156,0.9903047,42.30606,-10.6044,-21.73652,1009.889
17.267777920,-0.1261668,-0.1078303,-0.02648287,-0.009719166,-0.002072306,0.9961059,42.30606,-10.6044,-21.73652,1009.884
17.290071487,-0.00353571,0.07368945,0.09587847,-0.004853169,-0.004000694,0.993656,42.30606,-10.6044,-21.73652,1009.884
17.309888840,0.1189401,0.01314366,-0.0263032,-0.007759647,-0.00254096,0.9994715,43.35017,-10.22642,-21.74694,1009.885
17.329705715,-0.003537118,0.0736804,0.03502121,-0.006336662,0.001840709,0.9961075,43.35017,-10.22642,-21.74694,1009.885
17.349523068,-0.1260912,0.07349547,-0.02617161,-0.005822527,-0.002536751,0.9970475,42.97388,-9.86371,-21.75203,1009.883
17.369339466,-0.003538363,0.07331082,0.03503738,-0.005813798,-0.003508257,0.9980078,42.97388,-9.86371,-21.75203,1009.883
17.389156818,-0.06470533,-0.04782267,-0.0872411,-0.00825907,-0.001086219,0.9980336,42.97388,-9.86371,-21.75203,1009.884
17.408973694,0.05767424,-0.1084433,-0.02587886,-0.007276597,-0.002540787,0.9985036,42.67226,-10.21929,-20.98436,1009.884
17.428791046,-0.003607914,-0.04801924,0.1576159,-0.007286389,0.0003854472,1.000449,42.67226,-10.21929,-20.98436,1009.885
17.448607445,-0.003483623,0.01250004,-0.02584483,-0.008256921,-0.003529043,0.9946423,42.97388,-9.86371,-21.75203,1009.885
17.468424320,0.1189729,-0.1085757,-0.02589507,-0.005817631,-0.003999868,0.9960747,42.97388,-9.86371,-21.75203,1009.884
17.488241673,0.05770987,0.07315905,-0.08701174,-0.003892497,-0.001559866,0.994146,42.97388,-9.86371,-21.75203,1009.884
17.508059025,-0.1871959,0.07316525,-0.08687007,-0.008753045,-0.0006053266,0.9965908,42.29048,-9.558216,-21.37487,1009.885
17.527875900,-0.003505938,0.07313348,0.0967586,-0.006315414,-0.002543955,0.9951195,42.29048,-9.558216,-21.37487,1009.885
17.547692299,-0.003689311,0.0124562,0.03552606,-0.004866219,0.0003898293,0.9970573,42.29048,-9.558216,-21.37487,1009.885
17.569986820,0.05751606,0.01242103,0.03540658,-0.00924263,0.0008564454,0.998049,42.97963,-10.23041,-21.74555,1009.885
17.589804173,-0.003842548,-0.1086736,-0.087084,-0.004333518,-0.004952106,1.001854,42.97963,-10.23041,-21.74555,1009.886
17.609620571,0.05722763,-0.0481729,0.0964108,-0.01119125,-0.000622598,0.9946733,42.67085,-10.23373,-21.74439,1009.886
17.629437447,-0.004053332,-0.1086596,0.03519825,-0.006294146,-0.005461987,0.9965524,42.67085,-10.23373,-21.74439,1009.881
17.649254799,-0.003985576,-0.048159,-0.02599499,-0.004362962,-0.0005733003,1.000428,42.97459,-9.856494,-21.37201,1009.881
17.669072151,-0.00376416,0.1333861,0.03515599,-0.006785857,-9.075762E-05,1.003823,42.97459,-9.856494,-21.37201,1009.88
17.688888550,-0.003831595,0.07284235,-0.08719951,-0.01216612,-0.002584704,0.9908071,42.97459,-9.856494,-21.37201,1009.88
17.708705425,-0.003898881,0.1332292,0.09639158,-0.006322483,-0.0001046457,0.9970627,42.97459,-9.856494,-21.37201,1009.879
17.728522778,-0.06512264,-0.04854831,0.09641837,-0.006811005,-0.0005976027,0.9956148,42.97459,-9.856494,-21.37201,1009.879
17.748339653,0.1187989,0.01204824,-0.0259182,-0.006783731,-0.004000215,0.9980106,42.97459,-9.856494,-21.37201,1009.88
17.768157005,0.05742092,-0.04853263,-0.02594906,-0.00534816,0.001368192,0.9999611,42.97388,-9.86371,-21.75203,1009.88
17.787973404,-0.003764495,0.01194997,0.09651775,-0.007307727,-0.001096418,0.9917537,42.97388,-9.86371,-21.75203,1009.881
17.807790756,-0.06479637,0.011882,0.03536247,-0.008282555,-0.0001252594,0.9927293,42.96909,-9.558131,-21.75743,1009.881
17.830085278,-0.06490169,-0.04887327,-0.02578473,-0.002918222,-0.003020293,0.9922024,42.96909,-9.558131,-21.75743,1009.881
17.849901676,-0.06475799,0.1326166,-0.148064,-0.003872291,-0.002523169,0.998485,42.96909,-9.558131,-21.75743,1009.881
17.869718552,0.05767939,0.1324356,-0.02565539,-0.000972904,-0.003010225,0.9921918,42.6651,-9.86703,-21.75087,1009.882
17.889535904,0.1190179,-0.1097388,-0.086715,-0.007791863,-0.0006084954,0.9932067,42.6651,-9.86703,-21.75087,1009.882
17.909352780,-0.003670886,0.01127724,0.1580757,-0.006315414,-0.002543955,0.9951195,42.68306,-10.9599,-21.35142,1009.879
17.929170132,0.05764859,-0.1704601,-0.02544372,-0.009225724,-0.001575834,0.9990017,42.68306,-10.9599,-21.35142,1009.879
17.948986531,0.05769611,-0.1100513,0.03584021,-0.005358575,-0.0005947391,0.9936762,42.68306,-10.9599,-21.35142,1009.879
17.968803883,-0.06478117,0.1925986,0.03586539,-0.00583613,0.001364504,0.999481,42.97963,-10.23041,-21.74555,1009.879
17.988620758,-0.003615633,0.01084277,-0.08653027,-0.007278767,-0.001564594,0.9994739,42.97963,-10.23041,-21.74555,1009.88
18.008438110,0.1186105,-0.1103048,-0.02524656,-0.006329085,-0.003042598,0.9902903,42.96826,-9.566551,-22.20078,1009.88
18.028254986,-0.003923506,0.07114945,-0.2085553,-0.01262622,-0.002568473,0.9985327,42.96826,-9.566551,-22.20078,1009.883
18.048071861,-0.003952123,-0.1105673,0.09733909,-0.007808213,0.002313052,0.9932218,42.96826,-9.566551,-22.20078,1009.883
18.067888737,-0.06521407,-0.05013792,-0.2697264,-0.008228539,-0.00595312,0.9989738,42.6651,-9.86703,-21.75087,1009.883
18.087706089,-0.004028223,-0.1712084,-0.0860994,-0.006325184,0.001848911,0.9994862,42.6651,-9.86703,-21.75087,1009.883
18.109999657,-0.004055299,0.01049037,-0.02480899,-0.005335134,-0.004488963,0.9941388,42.67085,-10.23373,-21.74439,1009.88
18.129817009,-0.004218116,-0.04987768,0.03639657,-0.00632359,-0.001083182,0.9951271,42.67085,-10.23373,-21.74439,1009.88
18.149633884,-0.004207551,0.01066533,-0.1471438,-0.006322527,-0.00303791,0.9922209,42.67085,-10.23373,-21.74439,1009.879
18.169451237,-0.004120149,-0.1708995,0.15875,-0.001920393,-0.001041782,1.002826,42.98609,-10.58988,-21.35905,1009.879
18.189268112,-0.1877333,-0.1103567,0.03642953,-0.004823103,-0.003490333,1.003312,42.98609,-10.58988,-21.35905,1009.878
18.209084988,0.05719151,-0.04964283,0.03651082,-0.004376079,-0.0005826748,0.996567,43.35592,-10.59312,-21.74046,1009.878
18.228901863,-0.06526523,-0.2310752,-0.02453215,-0.002412772,-0.003492982,0.9970239,43.35592,-10.59312,-21.74046,1009.879
18.248719215,-0.06523587,-0.04946981,0.03673019,-0.00828147,-0.0006133558,0.9922441,43.35592,-10.59312,-21.74046,1009.879
18.268536091,-0.003954023,-0.1099912,-0.02444766,-0.01359779,-0.003061603,0.9980528,43.34513,-9.852511,-21.3734,1009.88
18.288353443,0.1185229,0.01096842,-0.02440546,-0.01068042,-0.006469035,0.9922271,43.34513,-9.852511,-21.3734,1009.88
18.308169842,-0.06530213,0.07143459,0.2814681,-0.005814883,-0.00302016,0.9984931,42.6766,-10.60042,-21.73791,1009.878
18.327987194,-0.06527263,0.01097054,0.1590508,-0.00337774,-0.00104816,1.003317,42.6766,-10.60042,-21.73791,1009.878
18.347804070,0.05726212,0.01092402,0.03674892,-0.004391898,0.001361508,0.995129,42.6766,-10.60042,-21.73791,1009.875
18.370098591,-0.00394085,-0.04954354,0.09801883,-0.008735009,-0.0005924366,1.0019,42.97388,-9.86371,-21.75203,1009.875
18.389914990,0.05737945,0.131967,0.03687909,-0.008728517,-0.004987647,0.9965681,42.97388,-9.86371,-21.75203,1009.874
18.409732342,-0.1261191,-0.04971254,-0.02429923,-0.01021256,0.0003644871,0.9980518,42.66427,-9.87545,-22.19423,1009.874
18.429549217,-0.003566273,0.01081108,0.09808662,-0.006313199,-0.0005868834,0.9989909,42.66427,-9.87545,-22.19423,1009.875
18.449366570,0.05765694,-0.1102794,-0.02435006,-0.00682627,0.001835848,0.9951448,42.66427,-9.87545,-22.19423,1009.875
18.469183445,-0.06493556,0.07115567,-0.2078147,-0.008732859,-0.003035262,0.998509,42.30606,-10.6044,-21.73652,1009.874
18.489000321,-0.003596693,0.1316797,-0.02407436,-0.002914366,-0.001062049,0.9965565,42.30606,-10.6044,-21.73652,1009.874
18.508817196,-0.06487879,-0.04990405,-0.02405238,-0.005807239,-0.003503569,0.9999386,42.97305,-9.87213,-22.19538,1009.867
18.528634548,-0.06488887,-0.1708802,0.09827522,-0.006325716,0.002826276,1.000939,42.97305,-9.87213,-22.19538,1009.867
18.548451424,-0.003550231,0.1317324,-0.02406609,-0.006822459,0.0008608274,0.994657,42.97305,-9.87213,-22.19538,1009.866
18.568268776,-0.00340683,0.1314965,-0.1463114,-0.007252048,-0.005456475,1.000902,42.97459,-9.856494,-21.37201,1009.866
18.588085652,-0.003436722,-0.05008668,-0.08512722,-0.006802275,-0.001569108,0.9965752,42.97459,-9.856494,-21.37201,1009.867
18.607902527,0.0577285,-0.05030269,-0.1462295,-0.005839433,-0.0001044725,0.9960948,42.97305,-9.87213,-22.19538,1009.867
18.627719402,-0.00345771,-0.05040434,0.0372986,-0.006821905,0.001350095,0.9956249,42.97305,-9.87213,-22.19538,1009.862
18.650013924,-0.06464303,0.07040266,-0.1461789,-0.008261795,-0.0005992944,0.9980362,42.97305,-9.87213,-22.19538,1009.862
18.669831276,0.05787084,0.1307196,-0.08501418,-0.008755192,0.001837499,0.9999822,42.6651,-9.86703,-21.75087,1009.861
18.689647675,-0.125821,-0.05095675,-0.145944,-0.006344351,-0.0006091471,0.9898201,42.6651,-9.86703,-21.75087,1009.861
18.709464550,-0.003384069,0.009417892,0.09868821,-0.005837814,-0.001569933,0.9941566,42.30606,-10.6044,-21.73652,1009.861
18.729281902,-0.06458985,0.009394385,-0.08479735,-0.004828598,-0.00544975,0.9984752,42.30606,-10.6044,-21.73652,1009.861
18.749099255,-0.1259303,0.1304342,0.03756773,-0.009710413,-0.001577178,0.9994872,42.30606,-10.6044,-21.73652,1009.864
18.768916130,0.05772111,-0.1118111,-0.08483236,-0.007807104,0.003291588,0.9951577,42.6766,-10.60042,-21.73791,1009.864
18.788733483,0.1801201,-0.2328787,0.03747516,-0.004832386,-0.003008096,1.001384,42.6766,-10.60042,-21.73791,1009.86
18.808549881,-0.1874637,0.009130001,0.03740031,-0.009229558,-0.002067445,0.9970686,42.6651,-9.86703,-21.75087,1009.86
18.828366757,0.05746031,-0.1120513,0.09854565,-0.009734409,0.001827777,0.9980567,42.6651,-9.86703,-21.75087,1009.861
18.848184109,-0.003821269,-0.05146625,-0.02381553,-0.005364534,0.002823107,0.9975553,42.6651,-9.86703,-21.75087,1009.861
18.868001461,-0.003696308,0.009023674,-0.02379417,-0.01069233,0.0003666575,0.9999852,42.67731,-10.5932,-21.35789,1009.862
18.887818337,0.1800134,-0.05153062,-0.0237536,-0.01019621,-0.00255706,0.9980367,42.67731,-10.5932,-21.35789,1009.862
18.910112381,-0.06489071,-0.1725814,0.09860008,-0.009231774,-0.004024518,0.9931971,42.98538,-10.5971,-21.73907,1009.863
18.929929257,-0.003628835,0.06954176,-0.02374201,-0.005348183,-9.84401E-05,0.9975402,42.98538,-10.5971,-21.73907,1009.863
18.949746609,-0.06485315,0.06936718,-0.08488323,-0.006311581,-0.002052344,0.9970527,42.98538,-10.5971,-21.73907,1009.863
18.969563484,-0.06486338,0.1298577,-0.1459669,-0.003897879,0.00381388,1.001414,42.67156,-10.22651,-21.36437,1009.863
18.989380836,0.05759352,0.06936079,-0.08468762,-0.007765142,-0.004500376,0.9946347,42.67156,-10.22651,-21.36437,1009.864
19.009197235,-0.06488342,-0.1122185,-0.08472461,-0.01069125,-0.0001214386,0.9995,42.67156,-10.22651,-21.36437,1009.864
19.029014587,-0.00358317,0.008594617,-0.2069136,-0.005349246,0.001856288,1.000446,42.67577,-10.60884,-22.18127,1009.859
19.048831463,-0.06490374,0.1295605,0.0378141,-0.004868435,-0.001567243,0.9931858,42.67577,-10.60884,-22.18127,1009.859
19.068648815,-0.06476009,0.00841859,-0.1457874,-0.00777221,-0.002061067,0.996578,42.67156,-10.22651,-21.36437,1009.859
19.088465691,0.1189683,0.06900514,0.03770129,-0.00679955,-0.002056033,0.9965727,42.67156,-10.22651,-21.36437,1009.859
19.108283043,0.1799991,-0.05221258,-0.02340217,-0.009724617,-0.001098457,0.996111,42.67156,-10.22651,-21.36437,1009.86
19.128099442,-0.003672637,0.3106718,0.03778059,-0.007276042,-0.002051519,0.9994714,42.99255,-10.94936,-20.97255,1009.86
19.147916794,0.1187266,-0.1131653,-0.02336155,-0.005816523,-0.003021332,0.9980103,42.99255,-10.94936,-20.97255,1009.861
19.167733669,0.1799502,-0.05269126,-0.02316847,-0.007279322,-0.002053862,0.9985061,43.34513,-9.852511,-21.3734,1009.861
19.190028191,-0.06518432,0.007628523,0.0379058,-0.004850999,-0.004976886,0.9926856,43.34513,-9.852511,-21.3734,1009.862
19.209845543,0.1798556,-0.05292235,-0.08428389,-0.006285948,-0.005456128,0.9989657,43.34513,-9.852511,-21.3734,1009.862
19.229661942,0.0572446,-0.05296037,-0.02317861,-0.004843265,0.0004062343,1.003815,42.6766,-10.60042,-21.73791,1009.86
19.249478817,0.1797408,0.1285208,-0.2066078,-0.00582636,-0.003028363,0.9951143,42.6766,-10.60042,-21.73791,1009.86
19.269296169,0.05716833,0.06779946,-0.02306251,-0.01019238,-0.002065448,0.99997,42.66581,-9.859814,-21.37086,1009.862
19.289113045,0.05714004,0.06785717,0.03804267,-0.01019515,-0.004511788,0.9951307,42.66581,-9.859814,-21.37086,1009.862
19.308930397,-0.06533583,-0.05324361,0.09926314,-0.006319203,-0.0001023023,0.9980281,42.66581,-9.859814,-21.37086,1009.863
19.328747749,-0.06515259,0.007193804,0.03804349,-0.007270038,-0.0025361,1.000434,42.67156,-10.22651,-21.36437,1009.863
19.348564148,-0.1263187,0.007156804,0.03810147,-0.005862918,0.0008564867,0.9907903,42.67156,-10.22651,-21.36437,1009.86
19.368381023,0.118644,0.06757552,-0.08408877,-0.009756831,0.0008340082,0.9898462,43.34442,-9.859728,-21.75342,1009.86
19.388198376,-0.1878405,-0.05339161,0.03842803,-0.008775952,0.002311533,0.9946752,43.34442,-9.859728,-21.75342,1009.861
19.408015251,0.1184333,-0.1140362,-0.08376299,-0.00876503,0.001830468,0.997086,43.34442,-9.859728,-21.75342,1009.861
19.427832604,-0.004254058,0.06773115,-0.08374472,-0.007795673,0.0003665253,0.9936945,42.98538,-10.5971,-21.73907,1009.861
19.450126171,-0.0655523,0.0675588,-0.08370009,-0.004856936,-9.240815E-05,0.9989855,42.98538,-10.5971,-21.73907,1009.861
19.469943524,0.05694464,0.1279399,0.03871975,-0.01165629,-0.002076515,0.9985299,42.98609,-10.58988,-21.35905,1009.862
19.489760876,0.1181697,0.006764241,-0.1448072,-0.005823058,-0.001559387,0.9985006,42.98609,-10.58988,-21.35905,1009.862
19.509577751,-0.004382491,0.006633334,0.0387749,-0.008740503,-0.002551853,0.9970634,42.98609,-10.58988,-21.35905,1009.863
19.529395104,-0.1880527,0.0672053,0.1000704,-0.007777638,0.0003794148,0.9990039,42.67156,-10.22651,-21.36437,1009.863
19.549211979,0.05702665,0.00661882,-0.02221781,-0.01069346,-0.002078512,0.9956285,42.67156,-10.22651,-21.36437,1009.863
19.569029331,-0.004311539,0.1274756,-0.205707,-0.004863448,0.00283617,1.001897,42.67731,-10.5932,-21.35789,1009.863
19.588845730,-0.004204534,-0.05413564,-0.08323045,-0.007737846,-0.006436357,0.9994514,42.67731,-10.5932,-21.35789,1009.86
19.608663082,-0.004290134,0.006303944,-0.1442992,-0.00730879,0.0008583106,0.9946597,42.67731,-10.5932,-21.35789,1009.86
19.628479958,-0.004317872,0.1272944,-0.02188076,-0.009238841,-0.001585208,0.9951404,42.67085,-10.23373,-21.74439,1009.863
19.648297310,0.05686872,0.06691798,-0.08289236,-0.005839986,-0.0005937405,0.9951269,42.67085,-10.23373,-21.74439,1009.863
19.668114185,-0.004488304,0.006275333,-0.02163696,-0.006788051,-0.0005811974,1.002372,42.6766,-10.60042,-21.73791,1009.863
19.687931538,0.05660266,0.006107546,-0.1438307,-0.003389749,-7.899851E-05,1.001391,42.6766,-10.60042,-21.73791,1009.863
19.707748413,-0.1272014,-0.1148573,0.03969137,-0.005359106,0.0003826253,0.9951293,42.6766,-10.60042,-21.73791,1009.864
19.730042458,0.0564931,0.06668245,0.03973285,-0.006810473,-0.001574967,0.9941619,42.98034,-10.22319,-21.36553,1009.864
19.749859333,0.1176616,0.248224,-0.08263424,-0.005849801,0.0008658612,0.9946517,42.98034,-10.22319,-21.36553,1009.865
19.769676686,0.056325,0.187506,-0.02136037,-0.007761264,-0.0010755,1.00141,42.97388,-9.86371,-21.75203,1009.865
19.789494038,-0.004915282,-0.05461669,-0.02136442,-0.003851576,-0.005930468,0.9989499,42.97388,-9.86371,-21.75203,1009.863
19.809310913,-0.06619405,0.06643179,-0.02148366,-0.007289159,-0.002060893,0.9956099,42.97388,-9.86371,-21.75203,1009.863
19.829128266,-0.1275496,0.005847253,-0.1438698,-0.00337774,-0.00104816,1.003317,43.35017,-10.22642,-21.74694,1009.862
19.848944664,-0.1274985,-0.1150599,0.03967158,-0.007308235,0.001347578,0.9956276,43.35017,-10.22642,-21.74694,1009.862
19.868761540,0.1786622,0.06636824,-0.02147533,-0.009206094,-0.004495037,0.9999521,42.97963,-10.23041,-21.74555,1009.863
19.888578892,0.1172684,0.1872651,0.0395107,-0.006328464,0.001846567,0.9985209,42.97963,-10.23041,-21.74555,1009.863
19.908396244,-0.005223811,-0.1155216,0.1007851,-0.006797933,-0.003521493,0.9946344,42.97963,-10.23041,-21.74555,1009.865
19.928213120,0.05598447,-0.1757253,-0.143657,-0.01117924,-0.00159176,0.996599,42.67085,-10.23373,-21.74439,1009.865
19.948030472,-0.0665269,0.1266716,-0.02114417,-0.001947711,-0.0005724339,0.9955884,42.67085,-10.23373,-21.74439,1009.867
19.967847347,0.05578025,-0.1153364,-0.2044825,-0.007277173,-0.004496687,0.9951147,42.67085,-10.23373,-21.74439,1009.867
19.987664700,-0.0667498,0.06624433,0.04029671,-0.006307172,0.0003951683,1.002375,42.67085,-10.23373,-21.74439,1009.868
20.009958267,0.05565583,0.1267218,-0.02082597,-0.01022566,0.001821745,0.9966113,42.67085,-10.23373,-21.74439,1009.868
20.029775620,0.05549688,-0.05490648,-0.08203208,-0.009702216,-0.00157132,1.001901,42.98455,-10.60552,-22.18242,1009.865
20.049592495,-0.06705167,-0.05484464,0.04034523,-0.006301766,-0.003511945,0.9975279,42.98455,-10.60552,-22.18242,1009.865
20.069409847,-0.0669602,0.1266981,-0.08196582,-0.005842711,-0.0001068159,0.9951295,42.30102,-10.23049,-21.36299,1009.867
20.089226723,0.1168506,-0.2363543,-0.1429225,-0.009742076,0.0008445545,0.9941904,42.30102,-10.23049,-21.36299,1009.867
20.109044075,-0.189264,-0.05494458,-0.1426021,-0.009232283,-0.001580521,0.9970711,42.30102,-10.23049,-21.36299,1009.868
20.128861427,-0.1279782,-0.1152814,0.0411282,-0.009725193,-0.003054357,0.9927222,42.98609,-10.58988,-21.35905,1009.868
20.148677826,0.05571681,-0.05472615,-0.02008,-0.006824122,-0.0006069767,0.9917535,42.98609,-10.58988,-21.35905,1009.87
20.168494701,0.05565383,0.005677052,-0.01997207,-0.01410592,0.0008312766,0.9980755,42.98609,-10.58988,-21.35905,1009.87
20.188312054,0.1170358,0.06634649,0.04127907,-0.004353147,-0.002032903,1.000904,42.97963,-10.23041,-21.74555,1009.873
20.208128929,-0.005378932,0.06625596,-0.1421776,-0.008271633,-0.000606325,0.9951402,42.97963,-10.23041,-21.74555,1009.873
