Time (s),Gyroscope X (deg/s),Gyroscope Y (deg/s),Gyroscope Z (deg/s),Accelerometer X (g),Accelerometer Y (g),Accelerometer Z (g),Magnetometer X (uT),Magnetometer Y (uT),Magnetometer Z (uT),Barometer (hPa)
0.002476692,0.1976999,0.1220172,-0.03742781,-0.001447688,0.001395358,1.002836,33.94368,6.522867,-23.08749,1004.789
0.004953861,0.1976999,0.1220172,-0.1597527,-0.00634867,0.002809871,0.9941819,33.94368,6.522867,-23.08749,1004.789
0.007430553,0.2589334,0.1825299,-0.1597527,-0.005350354,0.0008777523,0.9985106,33.94368,6.522867,-23.08749,1004.789
0.009907722,0.2589334,0.1825299,-0.1597527,-0.009215909,-0.003035435,0.9994769,33.94368,6.522867,-23.08749,1004.789
0.012384415,0.1976999,0.1825299,-0.2209152,-0.002435103,0.001379778,0.9984972,33.95589,5.796692,-22.69451,1004.789
0.014862061,0.1364664,0.2430426,-0.2209152,-0.001929699,-0.002026177,0.9984769,33.95589,5.796692,-22.69451,1004.789
0.017338276,0.1364664,0.1220172,-0.2209152,-0.00872681,-0.0005865777,1.004314,33.95589,5.796692,-22.69451,1004.789
0.019815922,0.1364664,0.0615045,-0.1597527,-0.006811514,0.001846394,0.9994888,33.95589,5.796692,-22.69451,1004.789
0.022292614,0.1976999,0.1220172,-0.1597527,-0.001436234,-6.307196E-05,1.003794,33.95589,5.796692,-22.69451,1004.789
0.024769783,0.1976999,0.1220172,-0.2820776,-0.001934041,-7.379148E-05,1.000418,33.95589,5.796692,-22.69451,1004.789
0.027246475,0.0139995,0.3035553,-0.1597527,-0.007309321,0.001835675,0.9961128,33.95589,5.796692,-22.69451,1004.789
0.029723644,0.0139995,0.364068,-0.1597527,-0.005333958,0.0008894702,1.003337,33.95589,5.796692,-22.69451,1004.789
0.032200813,0.1364664,0.0009917939,-0.2209152,-0.003887533,0.001376914,1.000436,33.95589,5.796692,-22.69451,1004.79
0.034677506,0.2589334,-0.05952091,-0.1597527,-0.01115848,-0.002065795,1.001906,33.95589,5.796692,-22.69451,1004.79
0.039631844,0.1364664,0.2430426,-0.1597527,-0.003399563,0.001380603,1.000916,33.95589,5.796692,-22.69451,1004.79
0.042109013,0.07523298,0.1220172,-0.03742781,-0.0102109,0.001832291,1.000955,33.95589,5.796692,-22.69451,1004.79
0.044585705,0.1976999,0.2430426,-0.2209152,-0.006798442,-0.001077496,0.9985085,33.95589,5.796692,-22.69451,1004.79
0.047062874,0.1364664,0.2430426,-0.2820776,-0.008757385,0.001347059,0.9985316,33.95589,5.796692,-22.69451,1004.79
0.049539566,0.1364664,0.1220172,-0.2820776,-0.0009520976,-0.0005509949,1.002341,33.95589,5.796692,-22.69451,1004.79
0.052016735,0.1364664,0.0615045,-0.03742781,-0.002912126,0.002361656,1.002849,33.95589,5.796692,-22.69451,1004.79
0.054493427,0.07523298,0.1825299,-0.1597527,-0.009763876,0.00473995,0.9942105,33.95589,5.796692,-22.69451,1004.79
0.056970596,0.0139995,0.1825299,-0.2209152,-0.005824122,0.0003953413,1.001407,33.95589,5.796692,-22.69451,1004.79
0.059448242,0.0139995,0.0615045,-0.2209152,-0.007282579,-0.0005895733,0.9999617,33.95589,5.796692,-22.69451,1004.79
0.061924934,0.07523298,0.1825299,-0.2820776,-0.004873817,0.003806503,1.000454,33.94943,6.156171,-23.08101,1004.79
0.064402103,0.1364664,-0.05952091,-0.2209152,-0.003388663,-0.0005670947,1.000906,33.94943,6.156171,-23.08101,1004.79
0.066878796,0.2589334,0.0615045,-0.2820776,-0.003873399,-0.003501705,0.9965492,33.94943,6.156171,-23.08101,1004.79
0.069355965,0.1364664,0.2430426,-0.2209152,-0.006302321,-0.004001214,0.9965599,33.94943,6.156171,-23.08101,1004.79
0.071832657,0.1976999,0.1220172,-0.4044026,-0.005326359,-0.002527204,0.999941,33.94943,6.156171,-23.08101,1004.79
0.074309826,0.1364664,0.2430426,-0.2820776,-0.00924263,0.0008564454,0.998049,33.94943,6.156171,-23.08101,1004.79
0.076786518,-0.04723396,0.0615045,-0.03742781,-0.005828509,-0.0005855381,0.9985057,33.94943,6.156171,-23.08101,1004.79
0.079263687,0.07523298,0.0615045,-0.2209152,-0.004894024,0.004769806,0.9961147,33.94943,6.156171,-23.08101,1004.79
0.081740379,0.1364664,0.2430426,-0.2820776,-0.0009717732,-0.0005650567,0.9965484,33.94943,6.156171,-23.08101,1004.79
0.084218025,0.1364664,0.0615045,-0.2209152,-0.002417091,-7.396471E-05,1.001386,33.94943,6.156171,-23.08101,1004.79
0.086694717,0.0139995,0.1220172,-0.1597527,-0.009220805,-0.001572318,1.00045,33.94943,6.156171,-23.08101,1004.79
0.089171886,-0.04723396,0.1220172,-0.1597527,-0.007764034,-0.00352184,0.9965704,33.94943,6.156171,-23.08101,1004.79
0.091649056,0.1364664,0.1825299,-0.2209152,-0.006332275,0.002821588,0.9990085,33.94943,6.156171,-23.08101,1004.79
0.094125748,0.2589334,0.1220172,-0.1597527,-0.001479326,0.005283723,0.9999601,33.94943,6.156171,-23.08101,1004.79
0.096602917,0.07523298,0.0615045,-0.2820776,-0.002930693,0.003326131,0.9989924,33.94943,6.156171,-23.08101,1004.79
0.099079609,0.07523298,0.1220172,-0.1597527,-0.006312113,-0.00107498,0.9985058,33.94943,6.156171,-23.08101,1004.79
0.101557255,0.1976999,0.0615045,-0.2209152,-0.004389705,0.001851948,0.9965795,33.94943,6.156171,-23.08101,1004.79
0.104033470,-0.04723396,0.1825299,-0.2209152,-0.01118033,-0.001103664,0.9970842,33.94943,6.156171,-23.08101,1004.79
0.106511116,0.3201669,0.0615045,-0.4044026,-0.006806641,-0.001083355,0.9960951,33.94943,6.156171,-23.08101,1004.79
0.108987808,0.1976999,0.1220172,-0.2820776,-0.006324099,0.001360815,0.999001,33.94943,6.156171,-23.08101,1004.79
0.111464977,0.3201669,0.2430426,-0.09859026,-0.008736138,-0.003037605,0.9975436,33.94943,6.156171,-23.08101,1004.791
0.113941669,0.07523298,-0.05952091,-0.3432401,-0.01020273,0.0003715178,1.000948,33.58464,5.785493,-23.07314,1004.791
0.116418839,-0.04723396,0.0615045,-0.2820776,-0.00195531,0.00284424,0.9989846,33.58464,5.785493,-23.07314,1004.791
0.118896008,0.1976999,0.1825299,-0.3432401,-0.002899609,-0.001051502,1.000901,33.58464,5.785493,-23.07314,1004.791
0.121372700,0.2589334,0.1220172,-0.3432401,-0.006325208,0.0003822786,0.9970652,33.58464,5.785493,-23.07314,1004.791
0.123850346,0.2589334,0.0615045,-0.4044026,-0.006335045,0.000375248,0.9941693,33.58464,5.785493,-23.07314,1004.791
0.126327038,0.0139995,0.0009917939,-0.2820776,-0.002919793,0.001378433,0.9989824,33.58464,5.785493,-23.07314,1004.791
0.128804207,0.07523298,-0.1200336,-0.2209152,-0.0048722,0.002341043,0.9985155,33.58464,5.785493,-23.07314,1004.791
0.131280899,0.1364664,0.2430426,-0.2209152,-0.004870006,0.002831483,0.999966,33.58464,5.785493,-23.07314,1004.791
0.133758068,0.1976999,0.1825299,-0.2209152,-0.008235008,-9.127753E-05,1.006727,33.58464,5.785493,-23.07314,1004.791
0.136234760,0.1364664,0.2430426,-0.2820776,-0.004361323,-0.0005721285,1.000911,33.58464,5.785493,-23.07314,1004.791
0.138711929,0.07523298,0.364068,-0.1597527,-0.002409424,0.0009092586,1.005252,33.58464,5.785493,-23.07314,1004.791
0.141188622,0.1976999,0.1825299,-0.2209152,-0.007297867,0.0003772448,0.9970706,33.58464,5.785493,-23.07314,1004.791
0.143665791,0.07523298,0.0009917939,-0.2820776,-0.005870516,0.004273161,0.9941868,33.58464,5.785493,-23.07314,1004.791
0.146142483,0.07523298,0.1220172,-0.1597527,-0.002423118,-0.001056016,0.9980019,33.58464,5.785493,-23.07314,1004.791
0.148620129,0.0139995,0.1220172,-0.2209152,-0.006305577,-0.002536925,0.9980155,33.58464,5.785493,-23.07314,1004.791
0.151096344,0.2589334,0.2430426,-0.2209152,-0.005332341,-0.0005759906,1.001399,33.58464,5.785493,-23.07314,1004.791
0.153573990,0.3201669,0.1825299,-0.1597527,-0.004853633,0.001376568,1.002372,33.58464,5.785493,-23.07314,1004.79
0.156051159,0.07523298,0.1220172,-0.09859026,-0.01019069,0.0008689886,1.005294,33.58464,5.785493,-23.07314,1004.79
0.158527851,0.0139995,0.1220172,-0.09859026,-0.009687528,-0.005960671,0.9989818,33.58464,5.785493,-23.07314,1004.79
0.161005020,0.1976999,0.0615045,-0.2820776,-0.003875547,-0.00105888,0.9999406,33.58464,5.785493,-23.07314,1004.79
0.163481712,0.2589334,0.0615045,-0.09859026,-0.004379336,0.0008816143,0.9980226,33.95518,5.789476,-23.07453,1004.79
0.165958881,0.1364664,0.1220172,-0.09859026,-0.007282047,-0.001566938,0.9985086,33.95518,5.789476,-23.07453,1004.79
0.168435573,0.07523298,0.1220172,-0.1597527,-0.004864602,-0.001075631,0.9951191,33.95518,5.789476,-23.07453,1004.79
0.170913219,0.07523298,-0.05952091,-0.2209152,-0.00584599,-0.0001091594,0.9941642,33.95518,5.789476,-23.07453,1004.79
0.173389911,0.1364664,0.0009917939,-0.2820776,-0.00631209,0.0003916528,1.000927,33.95518,5.789476,-23.07453,1004.79
0.175867080,0.07523298,0.1825299,-0.2209152,-0.003911018,0.002337874,0.9951314,33.95518,5.789476,-23.07453,1004.79
0.178343773,-0.04723396,0.1825299,-0.09859026,-0.0009832273,0.0008933735,0.9955906,33.95518,5.789476,-23.07453,1004.79
0.180820942,0.07523298,0.1825299,-0.1597527,-0.0004587471,-0.005921052,0.9955527,33.95518,5.789476,-23.07453,1004.79
0.183298111,0.07523298,0.0615045,-0.2209152,-0.002456441,-0.0001020874,0.9898015,33.95518,5.789476,-23.07453,1004.79
0.185774803,0.0139995,0.0615045,-0.3432401,0.0009659461,0.002861685,0.9999343,33.95518,5.789476,-23.07453,1004.79
0.188252449,0.1976999,0.0009917939,-0.2209152,-0.007298975,-0.0006012912,0.9951349,33.95518,5.789476,-23.07453,1004.79
0.190728664,0.3814003,0.1825299,-0.2820776,-0.006830612,0.003788233,0.9970855,33.95518,5.789476,-23.07453,1004.79
0.193206310,0.1976999,0.3035553,-0.2209152,-0.006319203,-0.0001023023,0.9980281,33.95518,5.789476,-23.07453,1004.791
0.195683002,0.1364664,0.1825299,-0.09859026,-0.007298975,-0.0006012912,0.9951349,33.95518,5.789476,-23.07453,1004.791
0.198160171,0.1976999,0.1220172,-0.1597527,-0.003891897,0.001862667,0.9999557,33.95518,5.789476,-23.07453,1004.791
0.200636864,0.1976999,0.0615045,-0.2209152,-0.0009640835,0.001884799,1.002836,33.95518,5.789476,-23.07453,1004.791
0.203114033,0.07523298,0.0615045,-0.09859026,-0.006802808,-0.0005917437,0.9980282,33.95518,5.789476,-23.07453,1004.791
0.205590725,-0.04723396,0.1220172,-0.03742781,-0.006324608,0.003804812,1.002875,33.95518,5.789476,-23.07453,1004.791
0.208067894,0.0139995,0.3035553,-0.2209152,-0.001453761,-0.002519959,0.9946103,33.95518,5.789476,-23.07453,1004.791
0.210544586,0.1364664,0.2430426,-0.2820776,-0.005830703,-0.001075978,0.9970551,33.95518,5.789476,-23.07453,1004.791
0.213021755,0.1364664,0.3035553,-0.09859026,-0.005829018,0.001858459,1.00238,33.94522,6.538503,-22.26412,1004.791
0.215499401,0.07523298,0.2430426,-0.2209152,-0.005365065,0.003800471,0.9990082,33.94522,6.538503,-22.26412,1004.791
0.217976093,0.07523298,0.1825299,-0.3432401,-0.003873885,0.0004089244,1.002844,33.94522,6.538503,-22.26412,1004.791
0.220453262,-0.04723396,0.1825299,-0.1597527,-0.005341094,-0.001071118,0.9980178,33.94522,6.538503,-22.26412,1004.791
0.222929954,0.0139995,0.1825299,-0.2209152,-0.002453647,0.003810885,0.9970617,33.94522,6.538503,-22.26412,1004.791
0.225407123,0.0139995,0.1220172,-0.465565,0.002449505,0.00142018,1.004745,33.94522,6.538503,-22.26412,1004.791
0.227883816,0.07523298,0.0009917939,-0.2209152,-0.006320843,-0.0001034739,0.9975455,33.94522,6.538503,-22.26412,1004.791
0.230360985,0.07523298,0.1220172,-0.2209152,-0.006791906,-0.002539442,0.9980181,33.94522,6.538503,-22.26412,1004.791
0.232837677,0.1364664,0.0615045,-0.2209152,-0.004364625,-0.002041105,0.9975248,33.94522,6.538503,-22.26412,1004.786
0.235315323,0.3201669,0.1825299,-0.2820776,-0.002960782,0.001349138,0.9869156,33.94522,6.538503,-22.26412,1004.786
0.237791538,0.1976999,0.1825299,-0.2209152,-0.0004832728,-0.001538732,0.9955754,33.94522,6.538503,-22.26412,1004.786
0.240269184,0.1364664,0.1220172,-0.03742781,-0.004844373,-0.0005723017,1.001879,33.94522,6.538503,-22.26412,1004.786
0.242746353,0.0139995,0.2430426,-0.1597527,-0.002930693,0.003326131,0.9989924,33.94522,6.538503,-22.26412,1004.786
0.245223045,0.0139995,0.1220172,-0.2820776,-0.006825739,0.0008584837,0.9936917,33.94522,6.538503,-22.26412,1004.786
0.247700214,0.1364664,0.1825299,-0.2209152,-0.005376033,0.001348272,0.9917557,33.94522,6.538503,-22.26412,1004.786
0.250176906,-0.04723396,0.1220172,-0.03742781,-0.001458657,-0.001056842,0.9955832,33.94522,6.538503,-22.26412,1004.786
0.252654075,0.2589334,0.1220172,-0.1597527,-0.008249233,-0.001079188,1.00093,33.94522,6.538503,-22.26412,1004.786
0.255130768,0.07523298,0.0009917939,-0.2820776,-0.005818672,-0.0005785075,1.001402,33.94522,6.538503,-22.26412,1004.786
0.257608414,0.1364664,-0.1200336,-0.03742781,-0.00679574,-0.003031053,0.996085,33.94522,6.538503,-22.26412,1004.786
0.260084629,-0.04723396,0.0009917939,-0.09859026,-0.005360723,0.001848086,0.9970675,33.94522,6.538503,-22.26412,1004.786
0.262562275,0.1976999,0.1220172,-0.1597527,-0.00873503,-0.002059069,0.9994793,33.94522,6.538503,-22.26412,1004.786
0.265038967,0.2589334,0.1825299,-0.09859026,-0.003867903,-0.001542289,1.001386,34.32643,5.800675,-22.6959,1004.786
0.267516136,0.1364664,0.1220172,-0.1597527,-0.005361278,0.001358818,0.9960997,34.32643,5.800675,-22.6959,1004.786
0.269993305,0.1364664,0.2430426,-0.03742781,-0.008729603,-0.00449955,0.9970533,34.32643,5.800675,-22.6959,1004.786
0.272469997,0.2589334,0.3035553,-0.1597527,-0.005361831,0.0008695499,0.9951319,34.32643,5.800675,-22.6959,1004.787
0.274947166,0.1364664,0.0009917939,-0.03742781,-0.006825208,-0.0001188805,0.9922387,34.32643,5.800675,-22.6959,1004.787
0.277423858,0.0139995,0.0615045,-0.09859026,-0.01069945,-0.0001272976,0.9970866,34.32643,5.800675,-22.6959,1004.787
0.279901504,0.1364664,0.0615045,0.02373465,-0.01120705,0.002788217,0.9956563,34.32643,5.800675,-22.6959,1004.787
0.282378197,0.2589334,0.1220172,-0.03742781,-0.009240435,0.001346885,0.9994996,34.32643,5.800675,-22.6959,1004.787
0.284855366,0.1976999,0.1825299,-0.09859026,-0.006803893,-0.0001036474,0.9985135,34.32643,5.800675,-22.6959,1004.787
0.287332058,0.07523298,-0.05952091,-0.03742781,-0.003884831,-0.0005766423,0.9980124,34.32643,5.800675,-22.6959,1004.787
0.289809227,0.2589334,0.2430426,-0.2820776,-0.005852549,-0.0001138467,0.9922334,34.32643,5.800675,-22.6959,1004.787
0.292285919,0.1364664,0.2430426,-0.4044026,-0.006331212,0.0008668596,0.9961025,34.32643,5.800675,-22.6959,1004.787
0.294763088,0.1364664,0.0615045,-0.2209152,-0.003415937,0.002835518,0.9985101,34.32643,5.800675,-22.6959,1004.787
0.297239780,0.2589334,0.0615045,-0.2209152,-0.009754061,0.003280349,0.9946855,34.32643,5.800675,-22.6959,1004.787
0.299716949,0.1976999,0.1220172,-0.2209152,-0.004859106,0.0008837847,0.999956,34.32643,5.800675,-22.6959,1004.787
0.302194595,0.07523298,0.0615045,-0.2209152,-0.004395177,0.001359165,0.9941638,34.32643,5.800675,-22.6959,1004.787
0.307148456,0.07523298,0.2430426,-0.2209152,-0.00531814,-0.001054713,1.004775,34.32643,5.800675,-22.6959,1004.787
0.309625149,-0.1084674,0.0615045,-0.2820776,-0.004351508,-0.002031731,1.001386,34.32643,5.800675,-22.6959,1004.787
0.312102318,0.2589334,0.1825299,-0.2209152,-0.001966255,0.001858674,0.994153,34.32643,5.800675,-22.6959,1004.786
0.314579010,0.2589334,0.1825299,-0.1597527,-0.007282047,-0.001566938,0.9985086,34.32643,5.800675,-22.6959,1004.786
0.317056179,0.0139995,-0.05952091,-0.1597527,-0.008766115,0.002318564,0.9975713,34.32643,5.800675,-22.6959,1004.786
0.319532871,0.07523298,0.1220172,-0.2209152,-0.006318095,0.000876234,0.9999639,34.32643,5.800675,-22.6959,1004.786
0.322010040,0.2589334,0.3035553,-0.2209152,-0.004396794,0.002824625,0.996102,34.32643,5.800675,-22.6959,1004.786
0.324486732,0.1976999,0.0615045,-0.2209152,-0.008749233,-0.001580347,0.9961032,34.32643,5.800675,-22.6959,1004.786
0.326964378,0.1976999,-0.1200336,-0.2209152,-0.003364138,-0.004949416,1.000883,34.32643,5.800675,-22.6959,1004.786
0.329441070,0.1976999,0.1220172,-0.2820776,-0.002937828,0.001365543,0.9936731,34.32643,5.800675,-22.6959,1004.786
0.331918239,0.07523298,0.1220172,-0.2820776,-0.002908361,-0.001546629,0.9975194,34.32643,5.800675,-22.6959,1004.786
0.334395408,0.1364664,0.0615045,-0.2209152,-0.004384255,0.0008780988,0.9965745,34.32643,5.800675,-22.6959,1004.786
0.336872101,0.1364664,0.1825299,-0.2209152,-0.003886447,0.0008888184,0.9999506,34.32643,5.800675,-22.6959,1004.786
0.339349270,0.0139995,0.1825299,-0.09859026,-0.004838922,-0.001546151,1.001874,34.32643,5.800675,-22.6959,1004.786
0.341825962,0.0139995,0.1825299,-0.2820776,-0.005370006,0.002330323,0.9951394,34.32643,5.800675,-22.6959,1004.786
0.344303608,0.1976999,0.1220172,-0.2820776,-0.007302785,0.0003737293,0.9956225,34.32643,5.800675,-22.6959,1004.786
0.346779823,0.3201669,0.0009917939,-0.1597527,-0.008757385,0.001347059,0.9985316,34.32643,5.800675,-22.6959,1004.786
0.349257469,0.07523298,0.1825299,-0.1597527,-0.005348692,0.002345556,1.001414,34.32643,5.800675,-22.6959,1004.786
0.351734161,0.07523298,0.1825299,-0.1597527,-0.006302276,-0.001067949,1.001402,34.32643,5.800675,-22.6959,1004.786
0.354211330,0.1364664,0.1220172,-0.2209152,-0.002423626,0.001387981,1.001876,34.32643,5.800675,-22.6959,1004.786
0.356688022,0.07523298,0.0009917939,0.02373465,-0.004396263,0.001847261,0.9946488,34.32643,5.800675,-22.6959,1004.786
0.359165192,0.2589334,0.1220172,-0.09859026,-0.005815946,-0.001065432,1.001399,34.32643,5.800675,-22.6959,1004.786
0.361642361,0.2589334,0.1220172,-0.2209152,-0.005385849,0.002807874,0.9912804,34.32643,5.800675,-22.6959,1004.786
0.364119053,0.1976999,0.0009917939,-0.09859026,-0.00731096,0.001834503,0.9956301,33.95518,5.789476,-23.07453,1004.786
0.366596699,0.1364664,0.1825299,-0.2209152,-0.003407253,-0.001069252,0.9946284,33.95518,5.789476,-23.07453,1004.786
0.369073391,0.1976999,0.0615045,-0.2820776,-0.004366265,-0.002042277,0.9970421,33.95518,5.789476,-23.07453,1004.786
0.371550560,0.1976999,0.2430426,-0.1597527,-0.007771102,-0.00108253,0.9985138,33.95518,5.789476,-23.07453,1004.786
0.374027252,0.07523298,0.3035553,-0.1597527,-0.005363449,0.002335011,0.99707,33.95518,5.789476,-23.07453,1004.786
0.376504421,-0.1084674,0.1220172,-0.2209152,-0.009261705,0.004264917,0.9980667,33.95518,5.789476,-23.07453,1004.786
0.378981113,-0.1084674,0.3035553,-0.2209152,-0.006828441,0.002812041,0.9961152,33.95518,5.789476,-23.07453,1004.786
0.381458282,0.07523298,0.1220172,-0.3432401,-0.006296803,-0.0005751653,1.003818,33.95518,5.789476,-23.07453,1004.786
0.383934975,0.1364664,0.2430426,-0.2820776,-0.009700645,-0.005970045,0.9951205,33.95518,5.789476,-23.07453,1004.786
0.386412144,0.1364664,0.2430426,-0.2820776,-0.003873377,-0.002035073,0.9989701,33.95518,5.789476,-23.07453,1004.786
0.388889789,-0.1084674,0.1825299,-0.1597527,-0.002900186,-0.003007403,0.9975119,33.95518,5.789476,-23.07453,1004.786
0.391366482,0.1976999,0.1220172,-0.1597527,-0.005338323,0.001375223,1.002857,33.95518,5.789476,-23.07453,1004.786
0.393843651,0.2589334,0.1825299,-0.1597527,-0.004854742,0.0003980317,1.000436,33.95518,5.789476,-23.07453,1004.787
0.396320343,0.1364664,0.1220172,-0.2209152,-0.00580396,-0.003501226,1.000904,33.95518,5.789476,-23.07453,1004.787
0.398797512,0.07523298,0.3035553,-0.1597527,-0.004359152,-0.001548321,0.9999408,33.95518,5.789476,-23.07453,1004.787
0.401274204,0.0139995,0.3035553,-0.09859026,-0.004887488,0.003307861,0.9956244,33.95518,5.789476,-23.07453,1004.787
0.403751373,0.1976999,0.3035553,-0.03742781,-0.005372777,-0.0001160169,0.9903001,33.95518,5.789476,-23.07453,1004.787
0.406228065,0.0139995,0.1825299,-0.2209152,-0.005330747,-0.003508084,0.9970399,33.95518,5.789476,-23.07453,1004.787
0.408705234,0.07523298,0.1220172,-0.1597527,-0.003909379,0.002339046,0.9956141,33.95518,5.789476,-23.07453,1004.787
0.411181927,0.07523298,0.0009917939,-0.09859026,-0.005815946,-0.001065432,1.001399,33.95518,5.789476,-23.07453,1004.787
0.413659572,0.07523298,0.0615045,-0.09859026,-0.01019621,-0.00255706,0.9980367,33.95518,5.789476,-23.07453,1004.787
0.416136265,0.07523298,0.1220172,-0.2820776,-0.005313797,-0.003007098,1.002834,33.95014,6.163388,-22.70099,1004.787
0.418613434,0.2589334,0.2430426,-0.2209152,-0.001980966,0.004781392,0.9946507,33.95014,6.163388,-22.70099,1004.787
0.421090603,0.1364664,0.0615045,-0.2820776,-0.000963598,-0.002025831,0.9965408,33.95014,6.163388,-22.70099,1004.787
0.423567295,0.07523298,0.1825299,-0.2820776,-0.002893074,-0.002513448,1.00041,33.95014,6.163388,-22.70099,1004.787
0.426044464,0.07523298,0.1220172,-0.2209152,-0.003884831,-0.0005766423,0.9980124,33.95014,6.163388,-22.70099,1004.787
0.428521156,0.1364664,0.2430426,-0.09859026,-0.007783111,-0.0001133685,0.996588,33.95014,6.163388,-22.70099,1004.787
0.430998802,0.1976999,0.364068,-0.2209152,-0.004375502,0.001373226,0.9999558,33.95014,6.163388,-22.70099,1004.787
0.433475017,0.1976999,0.1220172,0.02373465,-0.001452098,-0.001052154,0.9975139,33.95014,6.163388,-22.70099,1004.789
0.435952663,0.1976999,0.0615045,-0.03742781,-0.007298997,-0.002067924,0.9927139,33.95014,6.163388,-22.70099,1004.789
0.438429355,0.1364664,0.1220172,-0.2209152,-0.008276529,0.0008567921,0.9961131,33.95014,6.163388,-22.70099,1004.789
0.440906525,0.2589334,0.1220172,-0.2209152,-0.007298952,0.0008653414,0.9975558,33.95014,6.163388,-22.70099,1004.789
0.443383217,0.1976999,0.1220172,-0.2820776,-0.003903397,0.0003878325,0.9941561,33.95014,6.163388,-22.70099,1004.789
0.445860386,0.2589334,0.1825299,-0.2209152,-0.002450414,0.0008799639,0.9931852,33.95014,6.163388,-22.70099,1004.789
0.448337555,0.1976999,0.2430426,-0.4044026,-0.005325805,-0.002037936,1.000909,33.95014,6.163388,-22.70099,1004.789
0.450814247,-0.04723396,0.2430426,-0.3432401,-0.007253134,-0.004968379,1.001387,33.95014,6.163388,-22.70099,1004.789
0.453291893,0.07523298,0.1220172,-0.2209152,-0.003874485,-0.003013609,0.9970344,33.95014,6.163388,-22.70099,1004.789
0.455768108,0.07523298,0.1220172,-0.2209152,3.102003E-06,0.00139705,1.000414,33.95014,6.163388,-22.70099,1004.789
0.458245754,0.1976999,0.1220172,-0.2820776,-0.004879799,0.005757717,1.001912,33.95014,6.163388,-22.70099,1004.789
0.460722446,0.2589334,0.1220172,-0.1597527,-0.004379336,0.0008816143,0.9980226,33.95014,6.163388,-22.70099,1004.789
0.463199615,0.1976999,0.0009917939,-0.09859026,-0.00532689,-0.00154984,1.001394,33.95014,6.163388,-22.70099,1004.789
0.465676308,0.2589334,0.2430426,-0.1597527,-0.006332251,0.00428822,1.001429,33.28232,5.422696,-22.68549,1004.789
0.468153477,0.2589334,0.1825299,-0.09859026,-0.007779831,-0.0001110246,0.9975534,33.28232,5.422696,-22.68549,1004.789
0.470630169,0.1364664,0.1220172,-0.03742781,-0.00776235,-0.0005874031,1.001895,33.28232,5.422696,-22.68549,1004.789
0.473107338,0.1976999,0.0615045,-0.1597527,-0.001464107,-8.299248E-05,0.9955882,33.28232,5.422696,-22.68549,1004.786
0.475584984,0.1364664,0.1220172,-0.2209152,-0.005357975,0.002827794,0.9994859,33.28232,5.422696,-22.68549,1004.786
0.478061676,0.0139995,0.1825299,-0.1597527,-0.001925311,-0.001045297,1.001378,33.28232,5.422696,-22.68549,1004.786
0.480538845,0.0139995,0.1220172,-0.2209152,-0.005847584,0.002822933,0.9985233,33.28232,5.422696,-22.68549,1004.786
0.483015537,0.1976999,0.1220172,-0.2209152,-0.004385362,-0.0001004371,0.9946387,33.28232,5.422696,-22.68549,1004.786
0.485492706,0.2589334,0.0615045,-0.3432401,-0.004399033,-0.0005990795,0.9898095,33.28232,5.422696,-22.68549,1004.786
0.487969398,0.2589334,0.3035553,-0.2820776,-0.00436735,-0.00155418,0.9975274,33.28232,5.422696,-22.68549,1004.786
0.490446567,0.1364664,0.1220172,-0.2820776,-0.004352108,-0.005454263,0.9955764,33.28232,5.422696,-22.68549,1004.786
0.492923260,0.07523298,0.364068,-0.2209152,-0.002445472,0.002350112,0.9970542,33.28232,5.422696,-22.68549,1004.786
0.495400429,0.07523298,0.1825299,-0.2209152,-0.003402289,0.001867528,1.000918,33.28232,5.422696,-22.68549,1004.786
0.497877121,0.1364664,0.3035553,-0.09859026,-0.004827444,-0.001537949,1.005253,33.28232,5.422696,-22.68549,1004.786
0.500354767,0.1976999,0.1220172,-0.2209152,-0.008261241,-0.0001100264,0.999004,33.28232,5.422696,-22.68549,1004.786
0.502831459,0.0139995,0.0009917939,-0.2820776,-0.006824099,0.0008596558,0.9941745,33.28232,5.422696,-22.68549,1004.786
0.505308628,0.0139995,0.0615045,-0.2209152,-0.004850908,0.0008896437,1.002369,33.28232,5.422696,-22.68549,1004.786
0.507785797,0.1364664,0.1220172,-0.03742781,-0.001926974,-0.002513101,0.9984744,33.28232,5.422696,-22.68549,1004.786
0.510262489,0.0139995,0.1220172,-0.1597527,-0.003905014,0.001853293,0.9960943,33.28232,5.422696,-22.68549,1004.786
0.512739658,0.07523298,0.1220172,-0.09859026,-0.003429608,0.002336875,0.9936807,33.28232,5.422696,-22.68549,1004.789
0.515216350,0.07523298,0.3035553,-0.2209152,-0.005336774,-0.004490135,0.9936561,33.57819,6.144972,-23.45964,1004.789
0.517693519,0.1364664,0.364068,-0.1597527,-0.006826824,0.00134658,0.994177,33.57819,6.144972,-23.45964,1004.789
0.520170212,0.1364664,0.1220172,-0.2209152,-0.007809298,0.002801148,0.9937071,33.57819,6.144972,-23.45964,1004.789
0.522647858,0.1976999,0.0615045,-0.09859026,-0.005853058,0.00233015,0.9961074,33.57819,6.144972,-23.45964,1004.789
0.525124550,0.1364664,0.1220172,-0.09859026,-0.00531599,-0.003497538,1.001384,33.57819,6.144972,-23.45964,1004.789
0.527601719,0.1364664,0.1220172,-0.2209152,-0.007792925,0.001346233,0.9961129,33.57819,6.144972,-23.45964,1004.789
0.530078411,0.0139995,0.0615045,-0.2209152,-0.003416514,0.0008796174,0.9951212,33.57819,6.144972,-23.45964,1004.789
0.532555580,0.0139995,0.0009917939,-0.1597527,-0.009739836,0.004268259,1.000483,33.57819,6.144972,-23.45964,1004.789
0.535032272,0.1976999,0.364068,-0.2820776,-0.004367304,0.001379085,1.002369,33.57819,6.144972,-23.45964,1004.789
0.537509441,0.2589334,0.364068,-0.2820776,-0.00680768,0.002338006,1.001422,33.57819,6.144972,-23.45964,1004.789
0.539987087,0.1364664,0.364068,-0.1597527,-0.009254084,0.002314875,0.9970912,33.57819,6.144972,-23.45964,1004.789
0.542463303,0.1976999,0.1825299,-0.09859026,-0.009234454,-0.000604328,0.9980415,33.57819,6.144972,-23.45964,1004.789
0.544940948,0.2589334,0.1220172,-0.2820776,-0.008254704,-0.001571971,0.9985139,33.57819,6.144972,-23.45964,1004.789
0.547417641,0.1976999,0.3035553,-0.1597527,-0.00680992,-0.001085699,0.9951297,33.57819,6.144972,-23.45964,1004.789
0.549894810,0.1364664,0.2430426,-0.1597527,-0.003423581,0.003318927,0.9970645,33.57819,6.144972,-23.45964,1004.789
0.552371502,0.07523298,0.3035553,-0.1597527,-0.003373953,-0.003489814,1.000408,33.57819,6.144972,-23.45964,1004.79
0.554848671,0.1976999,0.1825299,-0.2209152,-0.001467917,0.0008920284,0.996076,33.57819,6.144972,-23.45964,1004.79
0.557325363,0.1364664,-0.05952091,-0.4044026,-0.003897902,0.002347248,0.9989927,33.57819,6.144972,-23.45964,1004.79
0.559802532,0.1364664,0.0615045,-0.1597527,-0.007773273,-0.0001063375,0.9994841,33.57819,6.144972,-23.45964,1004.79
0.562280178,-0.1084674,0.0009917939,-0.03742781,-0.006318117,-0.0005903984,0.997543,33.57819,6.144972,-23.45964,1004.79
0.564756870,0.07523298,0.1825299,-0.2209152,-0.005798533,-0.005941708,0.998478,33.57819,6.144972,-23.45964,1004.79
0.567234039,0.0139995,0.0615045,-0.1597527,-0.009220206,0.001850215,1.00626,33.27657,5.789391,-22.69197,1004.79
0.569710731,-0.04723396,0.1220172,-0.2209152,-0.005828995,0.003325091,1.004801,33.27657,5.789391,-22.69197,1004.79
0.572187900,0.4426338,0.2430426,-0.3432401,-0.005826847,0.000882266,1.001409,33.27657,5.789391,-22.69197,1004.79
0.577141762,0.07523298,0.2430426,-0.1597527,-0.008771056,0.0008484162,0.9937024,33.27657,5.789391,-22.69197,1004.79
0.579618454,0.3814003,0.1220172,-0.1597527,-0.004377165,-9.457814E-05,0.9970521,33.27657,5.789391,-22.69197,1004.79
0.582095623,0.2589334,0.1825299,-0.1597527,-0.001949837,0.003337024,1.001401,33.27657,5.789391,-22.69197,1004.79
0.584572315,0.1976999,0.0009917939,-0.2820776,-0.005822459,0.001863146,1.00431,33.27657,5.789391,-22.69197,1004.79
0.587049961,0.1364664,0.0009917939,-0.2209152,-0.00533017,-0.001552183,1.000429,33.27657,5.789391,-22.69197,1004.79
0.589527130,0.1976999,0.2430426,-0.2209152,0.0004970296,-0.002017108,0.9970156,33.27657,5.789391,-22.69197,1004.79
0.592003822,0.07523298,0.2430426,-0.03742781,-0.004831855,-0.003985461,0.9999308,33.27657,5.789391,-22.69197,1004.787
0.594480991,0.0139995,0.0615045,-0.2209152,-0.007315879,0.001830988,0.9941822,33.27657,5.789391,-22.69197,1004.787
0.596957683,0.1364664,0.1220172,-0.1597527,-0.004377119,0.002838687,1.001894,33.27657,5.789391,-22.69197,1004.787
0.599434853,0.1976999,0.3035553,-0.2820776,-0.006801699,0.0003867925,0.9999641,33.27657,5.789391,-22.69197,1004.787
0.601911545,0.07523298,0.0009917939,-0.2820776,-0.005873818,0.002804185,0.9908004,33.27657,5.789391,-22.69197,1004.787
0.604388714,0.1364664,0.0615045,-0.3432401,-0.004402267,0.002331842,0.993686,33.27657,5.789391,-22.69197,1004.787
0.606865406,0.3814003,0.1220172,-0.2209152,-0.005814374,-0.005464158,0.994619,33.27657,5.789391,-22.69197,1004.787
0.609343052,0.1364664,0.1220172,-0.03742781,-0.00533839,-0.003024675,0.9955943,33.27657,5.789391,-22.69197,1004.787
0.611819744,0.0139995,0.2430426,-0.2209152,-0.005829595,-9.744195E-05,0.9989908,33.27657,5.789391,-22.69197,1004.787
0.614296913,0.1364664,0.1220172,-0.1597527,-0.006831743,0.001343065,0.9927289,33.27657,5.789391,-22.69197,1004.787
0.616774082,0.1976999,0.1825299,-0.1597527,-0.001450482,-0.002517615,0.9955757,33.95014,6.163388,-22.70099,1004.787
0.619250774,0.07523298,0.0615045,-0.1597527,-0.006330658,0.001356128,0.9970703,33.95014,6.163388,-22.70099,1004.787
0.621727943,0.2589334,0.0615045,-0.09859026,-0.006764011,-0.001052889,1.008645,33.95014,6.163388,-22.70099,1004.787
0.624204636,0.1976999,0.1220172,-0.2209152,-0.003876102,-0.001548148,0.9989726,33.95014,6.163388,-22.70099,1004.787
0.626682281,0.0139995,0.2430426,-0.1597527,-0.003914806,0.004779527,0.99804,33.95014,6.163388,-22.70099,1004.787
0.629158497,0.3201669,0.1825299,-0.2209152,-0.001922055,-0.002509586,0.9999225,33.95014,6.163388,-22.70099,1004.787
0.631636143,0.3201669,0.1825299,-0.09859026,-0.01020764,0.0003680026,0.9994999,33.95014,6.163388,-22.70099,1004.789
0.634112835,0.0139995,0.0615045,-0.2820776,-0.004375548,-0.001560039,0.995114,33.95014,6.163388,-22.70099,1004.789
0.636590004,-0.04723396,0.3035553,-0.1597527,-0.00388266,-0.001552835,0.9970419,33.95014,6.163388,-22.70099,1004.789
0.639066696,0.07523298,-0.05952091,-0.2209152,-0.006789181,-0.003026366,0.9980156,33.95014,6.163388,-22.70099,1004.789
0.641543865,0.07523298,0.0615045,-0.2820776,-0.002432378,0.0008928536,0.9984947,33.95014,6.163388,-22.70099,1004.789
0.644020557,0.1976999,0.1825299,-0.3432401,-0.00336684,-0.002995858,1.003307,33.95014,6.163388,-22.70099,1004.789
0.646497726,0.1364664,0.4245807,-0.2820776,-0.008262349,-0.001088562,0.9970683,33.95014,6.163388,-22.70099,1004.789
0.648975372,0.0139995,0.2430426,-0.1597527,-0.009245377,-0.0001232624,0.9956306,33.95014,6.163388,-22.70099,1004.789
0.651451588,0.07523298,0.1220172,-0.2209152,-0.0087563,0.0008589623,0.9980464,33.95014,6.163388,-22.70099,1004.789
0.653929233,0.07523298,0.1825299,-0.2209152,-0.004889105,0.004773322,0.9975627,33.95014,6.163388,-22.70099,1004.789
0.656405926,0.1364664,0.1825299,-0.2209152,-0.004867836,0.00185529,0.9989955,33.95014,6.163388,-22.70099,1004.789
0.658883095,0.1976999,0.0009917939,-0.09859026,-0.007300038,0.001353437,0.998041,33.95014,6.163388,-22.70099,1004.789
0.661359787,0.1364664,0.1825299,-0.09859026,-0.002467827,0.00575624,0.9961064,33.95014,6.163388,-22.70099,1004.789
0.663836956,0.1364664,0.2430426,-0.09859026,0.0004621351,0.003335546,0.9955952,33.95014,6.163388,-22.70099,1004.789
0.666313648,-0.1697009,0.2430426,-0.2820776,-0.005815392,-0.0005761636,1.002367,33.95448,5.782259,-23.45455,1004.789
0.668790817,-0.1084674,0.1825299,-0.2209152,-0.008296711,0.003286728,0.994195,33.95448,5.782259,-23.45455,1004.789
0.671267509,0.1976999,0.1220172,-0.2209152,-0.004355341,-0.002523342,0.9994529,33.95448,5.782259,-23.45455,1004.789
0.673745155,0.1364664,0.2430426,-0.1597527,-0.005835576,0.001853772,1.000449,33.95448,5.782259,-23.45455,1004.79
0.676222324,0.1976999,0.1825299,-0.09859026,-0.005842134,0.001849084,0.9985182,33.95448,5.782259,-23.45455,1004.79
0.678699016,0.3201669,0.1220172,-0.09859026,-0.003898479,0.0003913476,0.995604,33.95448,5.782259,-23.45455,1004.79
0.681176186,0.07523298,0.1825299,-0.2209152,-0.00536675,0.0008660344,0.9936838,33.95448,5.782259,-23.45455,1004.79
0.683652878,0.1364664,0.1220172,-0.1597527,-0.006809897,0.0003809335,0.9975507,33.95448,5.782259,-23.45455,1004.79
0.686130047,0.1364664,0.1825299,-0.1597527,-0.006336639,0.003307341,0.9985285,33.95448,5.782259,-23.45455,1004.79
0.688606739,0.0139995,0.2430426,-0.2209152,-0.00534271,0.0003943432,0.9999561,33.95448,5.782259,-23.45455,1004.79
0.691083908,0.1976999,0.0615045,-0.3432401,-0.004824211,-0.00446887,1.001376,33.95448,5.782259,-23.45455,1004.79
0.693560600,0.07523298,0.1825299,-0.1597527,-0.005847584,0.002822933,0.9985233,33.95448,5.782259,-23.45455,1004.79
0.696038246,-0.04723396,0.2430426,-0.2820776,-0.004385871,0.00234356,0.9985128,33.95448,5.782259,-23.45455,1004.79
0.698514938,0.07523298,0.1825299,-0.2209152,-0.004355296,0.000409923,1.004295,33.95448,5.782259,-23.45455,1004.79
0.700992107,0.07523298,0.1220172,-0.1597527,-0.006820243,0.0028179,0.9985286,33.95448,5.782259,-23.45455,1004.79
0.703469276,0.3201669,0.1220172,-0.1597527,-0.005833982,-0.001078322,0.9960898,33.95448,5.782259,-23.45455,1004.79
0.705945969,0.1976999,0.1220172,-0.09859026,-0.005814883,-0.00302016,0.9984931,33.95448,5.782259,-23.45455,1004.79
0.708423138,0.07523298,0.0615045,-0.2820776,-0.006794654,-0.003519149,0.9955997,33.95448,5.782259,-23.45455,1004.79
0.710899830,0.07523298,0.0615045,-0.1597527,-0.007276042,-0.002051519,0.9994714,33.95448,5.782259,-23.45455,1004.79
0.713376999,0.1364664,0.1220172,-0.1597527,-0.007771633,-0.0001051656,0.9999668,33.95448,5.782259,-23.45455,1004.791
0.715853691,-0.04723396,0.2430426,-0.4044026,-0.007767268,-0.0005909186,1.000447,33.95448,5.782259,-23.45455,1004.791
0.718331337,0.1364664,0.1825299,-0.2209152,-0.002901826,-0.003008575,0.9970291,33.64711,5.793374,-22.69336,1004.791
0.720808029,0.3201669,0.0009917939,-0.09859026,-0.005835068,-0.0005902254,0.9965749,33.64711,5.793374,-22.69336,1004.791
0.723285198,0.1976999,0.1825299,-0.1597527,-0.007792371,0.001835502,0.9970807,33.64711,5.793374,-22.69336,1004.791
0.725761890,0.1364664,0.2430426,-0.09859026,-0.0087454,-0.001088736,0.9980363,33.64711,5.793374,-22.69336,1004.791
0.728239059,0.07523298,0.3035553,-0.1597527,-0.00777057,-0.002059895,0.9970607,33.64711,5.793374,-22.69336,1004.791
0.730716228,0.1364664,0.1825299,-0.2209152,-0.006817518,0.002330975,0.9985261,33.64711,5.793374,-22.69336,1004.791
0.733192921,0.1976999,0.2430426,-0.2209152,-0.004857467,0.0008849563,1.000439,33.64711,5.793374,-22.69336,1004.791
0.735670566,0.1976999,0.1825299,-0.1597527,-0.00776616,0.0003876176,1.002383,33.64711,5.793374,-22.69336,1004.791
0.738146782,0.1364664,0.1825299,-0.09859026,-0.005337282,-0.002046139,0.9975301,33.64711,5.793374,-22.69336,1004.791
0.740624428,0.07523298,0.1220172,-0.1597527,-0.004363562,-0.003995833,0.9946187,33.64711,5.793374,-22.69336,1004.791
0.743101120,0.1364664,0.1825299,-0.03742781,-0.004386471,-0.001078973,0.9927031,33.64711,5.793374,-22.69336,1004.791
0.745578289,0.07523298,0.1825299,-0.03742781,-0.005851441,0.0008646896,0.9941692,33.64711,5.793374,-22.69336,1004.791
0.748054981,0.1364664,0.1825299,-0.1597527,-0.005347098,-0.0005865365,0.9970549,33.64711,5.793374,-22.69336,1004.791
0.750532150,0.0139995,0.0009917939,-0.2820776,-0.0009832273,0.0008933735,0.9955906,33.64711,5.793374,-22.69336,1004.791
0.753008842,0.07523298,0.2430426,-0.2820776,-0.001446625,-0.0005593707,0.9999298,33.64711,5.793374,-22.69336,1004.788
0.755486011,0.07523298,0.1825299,-0.1597527,0.0004894086,-6.706594E-05,0.997991,33.64711,5.793374,-22.69336,1004.788
0.757963657,0.2589334,0.2430426,-0.2209152,-0.004839454,-0.0005687864,1.003327,33.64711,5.793374,-22.69336,1004.788
0.760440350,0.1364664,0.1220172,-0.2820776,-0.00486571,-0.002054168,0.9931833,33.64711,5.793374,-22.69336,1004.788
0.762917519,0.1976999,0.1220172,-0.2209152,-0.002438428,-0.00155583,0.99269,33.64711,5.793374,-22.69336,1004.788
0.765394211,0.07523298,0.1220172,-0.1597527,-0.007306596,0.00134875,0.9961103,33.64711,5.793374,-22.69336,1004.788
0.767871380,-0.04723396,0.1220172,-0.2209152,-0.006798996,-0.001566764,0.9975406,33.6349,6.519548,-23.08633,1004.788
0.770348072,0.1976999,0.1220172,-0.2820776,-0.007269484,-0.002046832,1.001402,33.6349,6.519548,-23.08633,1004.788
0.772825241,0.1976999,0.1220172,-0.1597527,-0.001924757,-0.0005560287,1.002346,33.6349,6.519548,-23.08633,1004.788
0.775301933,0.1976999,0.0615045,-0.2820776,-0.002395267,-0.002502728,1.003786,33.6349,6.519548,-23.08633,1004.788
0.777779102,0.1364664,0.1825299,-0.3432401,-0.004852593,-0.002044794,0.9970447,33.6349,6.519548,-23.08633,1004.788
0.780255794,0.0139995,0.2430426,-0.1597527,-0.00682022,0.004284532,1.00095,33.6349,6.519548,-23.08633,1004.788
0.782733440,0.1364664,0.1220172,-0.1597527,-0.006798397,0.001855768,1.00335,33.6349,6.519548,-23.08633,1004.788
0.785210609,0.2589334,0.0615045,-0.2209152,-2.370914E-06,0.0009042661,0.9979987,33.6349,6.519548,-23.08633,1004.788
0.787687302,0.07523298,0.364068,-0.2209152,-0.007804911,0.003782028,0.9966081,33.6349,6.519548,-23.08633,1004.788
0.790164471,0.07523298,0.0615045,-0.1597527,-0.01120049,0.002792904,0.9975871,33.6349,6.519548,-23.08633,1004.788
0.792641163,0.0139995,-0.05952091,-0.2209152,-0.006809897,0.0003809335,0.9975507,33.6349,6.519548,-23.08633,1004.788
0.795118332,0.1976999,0.1220172,-0.1597527,-0.003865178,-0.002029214,1.001384,33.6349,6.519548,-23.08633,1004.788
0.797595024,0.1976999,0.2430426,-0.2209152,-0.007292948,0.0003807601,0.9985186,33.6349,6.519548,-23.08633,1004.788
0.800072193,0.07523298,0.3035553,-0.2209152,-0.004864579,0.0003910011,0.9975401,33.6349,6.519548,-23.08633,1004.788
0.802548885,0.1364664,0.2430426,-0.1597527,-0.001442261,-0.001045124,1.00041,33.6349,6.519548,-23.08633,1004.788
0.805026531,0.07523298,0.1220172,-0.1597527,-0.006795141,0.0003914796,1.001895,33.6349,6.519548,-23.08633,1004.788
0.807503223,0.1976999,0.2430426,-0.1597527,-0.005824676,-9.392644E-05,1.000439,33.6349,6.519548,-23.08633,1004.788
0.809980392,0.1364664,0.1825299,-0.2820776,-0.003879381,-0.001550492,0.9980073,33.6349,6.519548,-23.08633,1004.788
0.812457561,0.07523298,0.1825299,-0.2820776,-0.00534054,-0.0005818496,0.9989856,33.6349,6.519548,-23.08633,1004.788
0.814934254,0.2589334,0.2430426,-0.1597527,-0.004336797,-0.004954449,1.000888,33.6349,6.519548,-23.08633,1004.788
0.817411423,0.1976999,0.0615045,-0.1597527,-0.008236137,-0.002536446,1.00237,33.6349,6.519548,-23.08633,1004.788
0.819888115,0.0139995,0.0615045,-0.1597527,-0.0004663228,-0.001037746,1.00137,33.65215,5.419462,-23.06689,1004.788
0.822365761,0.0139995,0.2430426,-0.2209152,-0.00535689,0.002339697,0.9990007,33.65215,5.419462,-23.06689,1004.788
0.824841976,0.2589334,0.1825299,-0.1597527,-0.00631209,0.0003916528,1.000927,33.65215,5.419462,-23.06689,1004.788
0.827319622,0.2589334,0.1220172,-0.09859026,-0.003391965,-0.002036071,0.9975196,33.65215,5.419462,-23.06689,1004.788
0.829796314,0.1364664,-0.05952091,-0.3432401,-0.003874416,0.001386289,1.004297,33.65215,5.419462,-23.06689,1004.788
0.832273483,-0.04723396,0.1220172,-0.3432401,-0.0004810109,0.003351605,1.004289,33.65215,5.419462,-23.06689,1004.787
0.834750175,0.07523298,0.0615045,-0.1597527,-0.00436407,-0.001551837,0.9984927,33.65215,5.419462,-23.06689,1004.787
0.837227344,-0.2309344,0.0009917939,-0.2820776,-0.002928013,-9.405799E-05,0.9941483,33.65215,5.419462,-23.06689,1004.787
0.839704514,0.0139995,0.1825299,-0.2820776,-0.002419284,-0.0005644045,0.9999352,33.65215,5.419462,-23.06689,1004.787
0.842181206,0.1976999,0.364068,-0.1597527,-0.001452075,0.0004144781,0.9999349,33.65215,5.419462,-23.06689,1004.787
0.847135067,0.1364664,0.0009917939,-0.1597527,-0.008287983,0.002315222,0.9951553,33.65215,5.419462,-23.06689,1004.787
0.849612713,0.07523298,0.0615045,-0.2209152,-0.002454201,0.003321617,0.9960939,33.65215,5.419462,-23.06689,1004.787
0.852089405,0.1364664,0.1220172,-0.2820776,-0.00487384,0.002339871,0.9980327,33.65215,5.419462,-23.06689,1004.787
0.854566574,0.1976999,0.1825299,-0.2209152,-0.004852571,-0.0005781606,0.9994657,33.65215,5.419462,-23.06689,1004.787
0.857043266,0.2589334,0.1220172,-0.1597527,-0.003893537,0.001861496,0.999473,33.65215,5.419462,-23.06689,1004.787
0.859520435,0.0139995,0.1825299,-0.1597527,-0.006299596,-0.004488138,0.9965574,33.65215,5.419462,-23.06689,1004.787
0.861997604,0.07523298,0.0615045,-0.09859026,-0.004876056,0.0003827987,0.9941614,33.65215,5.419462,-23.06689,1004.787
0.864474297,0.1976999,0.1825299,-0.2820776,-0.003899033,-9.792019E-05,0.9946361,33.65215,5.419462,-23.06689,1004.787
0.866951942,0.1976999,0.0615045,-0.2820776,-0.007293502,-0.0001085077,0.9975508,33.65215,5.419462,-23.06689,1004.787
0.869428635,0.1976999,0.0009917939,-0.1597527,-0.004371691,0.0003982051,0.999468,33.96093,5.422781,-23.06805,1004.787
0.871905804,0.0139995,0.0615045,-0.09859026,-0.004870606,-0.0005910501,0.9941564,33.96093,5.422781,-23.06805,1004.788
0.874382496,0.1364664,0.0009917939,-0.1597527,-0.01021693,0.0008502401,0.9975717,33.96093,5.422781,-23.06805,1004.788
0.876859665,0.1976999,0.0615045,-0.2820776,-0.009735494,0.002315874,0.998542,33.96093,5.422781,-23.06805,1004.788
0.879336357,0.3201669,0.1220172,-0.2820776,-0.008287983,0.002315222,0.9951553,33.96093,5.422781,-23.06805,1004.788
0.881813526,0.1364664,0.1220172,-0.1597527,-0.004873886,-0.000593394,0.9931909,33.96093,5.422781,-23.06805,1004.788
0.884290218,0.07523298,0.1825299,-0.2209152,-0.009743138,0.002799283,0.9970964,33.96093,5.422781,-23.06805,1004.788
0.886767387,0.1976999,0.2430426,-0.2209152,-0.008780317,0.002797286,0.9941952,33.96093,5.422781,-23.06805,1004.788
0.889245033,0.1364664,0.2430426,-0.2209152,-0.009245355,0.00134337,0.9980515,33.96093,5.422781,-23.06805,1004.788
0.891721725,0.07523298,0.2430426,-0.1597527,-0.002901757,0.001391323,1.004292,33.96093,5.422781,-23.06805,1004.788
0.894198894,0.07523298,0.0615045,-0.2209152,-0.002442193,0.002352455,0.9980195,33.96093,5.422781,-23.06805,1004.788
0.896675587,-0.04723396,-0.1200336,-0.2209152,-0.006774447,-0.004482452,0.9999389,33.96093,5.422781,-23.06805,1004.788
0.899152756,0.07523298,0.0009917939,-0.2209152,-0.005824698,-0.001560559,0.9980179,33.96093,5.422781,-23.06805,1004.788
0.901629448,0.1364664,0.1825299,-0.2820776,-0.007278723,0.001368671,1.004316,33.96093,5.422781,-23.06805,1004.788
0.904106617,0.1364664,0.3035553,-0.3432401,-0.003883214,-0.002042104,0.9960741,33.96093,5.422781,-23.06805,1004.788
0.906584263,0.1976999,0.1825299,-0.1597527,-0.004367881,-0.0005768158,0.9989803,33.96093,5.422781,-23.06805,1004.788
0.909060478,0.1364664,0.0615045,-0.2209152,-0.005824099,0.001861974,1.003828,33.96093,5.422781,-23.06805,1004.788
0.911537170,0.07523298,0.1825299,-0.4044026,-0.001972237,0.003809887,0.995611,33.96093,5.422781,-23.06805,1004.788
0.914014816,0.07523298,0.4245807,-0.2209152,-0.004875502,0.0008720668,0.9951292,33.96093,5.422781,-23.06805,1004.789
0.916491985,0.2589334,0.2430426,-0.03742781,-0.006295762,-0.003996526,0.9984907,33.96093,5.422781,-23.06805,1004.789
0.918968678,0.1364664,0.0009917939,-0.1597527,-0.00680828,-0.001084527,0.9956123,33.94368,6.522867,-23.08749,1004.789
0.921445847,0.1364664,0.1220172,-0.2820776,-0.002918176,-8.702744E-05,0.9970442,33.94368,6.522867,-23.08749,1004.789
0.923922539,0.1364664,0.2430426,-0.09859026,-0.007782601,-0.002557365,0.992714,33.94368,6.522867,-23.08749,1004.789
0.926399708,0.2589334,0.2430426,-0.2209152,-0.007761817,-0.001564767,1.000442,33.94368,6.522867,-23.08749,1004.789
0.928876400,0.3201669,0.2430426,-0.2209152,-0.008263434,-0.000600466,0.9975536,33.94368,6.522867,-23.08749,1004.789
0.931354046,0.1976999,0.1220172,-0.1597527,-0.006804469,-0.002059548,0.9951247,33.94368,6.522867,-23.08749,1004.789
0.933830261,0.1364664,0.0009917939,-0.2820776,-0.006330126,0.0003787631,0.9956172,33.94368,6.522867,-23.08749,1004.789
0.936307907,0.1976999,0.1220172,-0.1597527,-0.006821374,0.0003727311,0.994172,33.94368,6.522867,-23.08749,1004.789
0.938784599,0.0139995,0.1825299,-0.2820776,-0.003905545,0.002830657,0.9975473,33.94368,6.522867,-23.08749,1004.789
0.941261768,0.07523298,0.1825299,-0.2209152,-0.003889727,0.0008864745,0.9989852,33.94368,6.522867,-23.08749,1004.789
0.943738937,0.1976999,0.1220172,-0.2209152,-0.009707667,-0.0005974704,1.001906,33.94368,6.522867,-23.08749,1004.789
0.946215630,0.1364664,0.0615045,-0.2209152,-0.007293479,0.001358125,0.9999717,33.94368,6.522867,-23.08749,1004.789
0.948692799,0.2589334,0.1220172,-0.2209152,-0.002879426,-0.003481438,1.002819,33.94368,6.522867,-23.08749,1004.789
0.951169491,0.07523298,0.0009917939,-0.1597527,-0.006815901,0.0008655143,0.9965878,33.94368,6.522867,-23.08749,1004.789
0.953647137,0.2589334,0.0615045,-0.3432401,-0.005858485,0.004770631,0.9985334,33.94368,6.522867,-23.08749,1004.785
0.956123352,0.3201669,0.1825299,-0.2209152,-0.006787519,-0.001558562,1.000919,33.94368,6.522867,-23.08749,1004.785
0.958600998,0.1976999,0.1825299,-0.2209152,-0.007767823,-0.001080187,0.9994791,33.94368,6.522867,-23.08749,1004.785
0.961077690,0.1976999,0.1825299,-0.2209152,-0.004373354,-0.001069599,0.9965644,33.94368,6.522867,-23.08749,1004.785
0.963554859,0.1976999,-0.1805463,-0.09859026,-0.003860282,-0.00349233,1.000411,33.94368,6.522867,-23.08749,1004.785
0.966031551,0.0139995,0.1825299,-0.03742781,-0.00827706,0.001834156,0.9975662,33.94368,6.522867,-23.08749,1004.785
0.968508720,0.0139995,0.1825299,-0.09859026,-0.006335576,0.001352612,0.9956223,33.94368,6.522867,-23.08749,1004.785
0.970985889,-0.1697009,0.0615045,-0.1597527,-0.007301654,0.002818898,0.9999793,33.95436,5.781056,-23.51788,1004.785
0.973462582,-0.04723396,0.1825299,-0.1597527,-0.006271191,-0.005445582,1.00331,33.95436,5.781056,-23.51788,1004.785
0.975940228,0.07523298,0.1825299,-0.09859026,-0.003398478,0.0008925069,1.000431,33.95436,5.781056,-23.51788,1004.785
0.978416920,0.1364664,0.3035553,-0.2209152,-0.00289469,-0.001047987,1.002349,33.95436,5.781056,-23.51788,1004.785
0.980894089,0.1364664,0.1220172,-0.1597527,-0.007773758,0.003804292,1.005779,33.95436,5.781056,-23.51788,1004.785
0.983370781,0.07523298,0.0009917939,0.02373465,-0.005806131,-0.002525033,1.001874,33.95436,5.781056,-23.51788,1004.785
0.985847950,0.1976999,0.1220172,-0.1597527,-0.003391411,-0.001546803,0.9984874,33.95436,5.781056,-23.51788,1004.785
0.988324642,0.0139995,0.0615045,-0.3432401,-0.002422032,-0.001544113,0.9975168,33.95436,5.781056,-23.51788,1004.785
0.990801811,0.07523298,0.2430426,-0.2820776,-0.006317541,0.001365502,1.000932,33.95436,5.781056,-23.51788,1004.785
0.993278503,0.0139995,0.1220172,-0.2209152,-0.005325805,-0.002037936,1.000909,33.95436,5.781056,-23.51788,1004.788
0.995755672,0.1364664,0.2430426,-0.3432401,-0.003867903,-0.001542289,1.001386,33.95436,5.781056,-23.51788,1004.788
0.998233318,0.1976999,0.2430426,-0.2209152,-0.002427436,0.002363001,1.002364,33.95436,5.781056,-23.51788,1004.788
1.000710011,0.1976999,0.364068,-0.2209152,-0.004366241,-0.0005756437,0.999463,33.95436,5.781056,-23.51788,1004.788
1.003187180,0.07523298,0.0615045,-0.1597527,-0.006325762,-0.0001069894,0.9960974,33.95436,5.781056,-23.51788,1004.788
1.005663872,0.07523298,0.1220172,0.02373465,-0.00145644,0.0009002311,0.9994547,33.95436,5.781056,-23.51788,1004.788
1.008141041,0.1364664,0.2430426,-0.09859026,-0.003401203,0.001379431,1.000433,33.95436,5.781056,-23.51788,1004.788
1.010617733,0.07523298,0.2430426,-0.2820776,-0.005859593,0.003792095,0.9965975,33.95436,5.781056,-23.51788,1004.788
1.013094902,-0.04723396,0.0615045,-0.3432401,-0.003412612,0.005771127,1.004317,33.95436,5.781056,-23.51788,1004.788
1.015571594,0.1364664,0.0615045,-0.3432401,-0.005337792,0.0003978582,1.001404,33.95436,5.781056,-23.51788,1004.788
1.018048763,0.1976999,0.1220172,-0.03742781,-0.005350953,-0.002544781,0.9927008,33.95436,5.781056,-23.51788,1004.788
1.020526409,0.07523298,0.1220172,-0.1597527,-0.005351463,-0.000100784,0.9965748,33.65286,5.426678,-22.68688,1004.788
1.023003101,0.1364664,0.1825299,-0.2820776,-0.008233922,-0.0005793739,1.006242,33.65286,5.426678,-22.68688,1004.788
1.025480270,0.2589334,0.0009917939,-0.2820776,-0.005826847,0.000882266,1.001409,33.65286,5.426678,-22.68688,1004.788
1.027956963,0.1976999,0.1825299,-0.3432401,-0.008770502,0.001337684,0.9946702,33.65286,5.426678,-22.68688,1004.788
1.030434132,0.07523298,0.1825299,-0.1597527,-0.006821929,-0.0001165371,0.993204,33.65286,5.426678,-22.68688,1004.788
1.032910824,0.1364664,0.0615045,-0.2820776,-0.00339797,-0.00155149,0.9965566,33.65286,5.426678,-22.68688,1004.789
1.035387993,0.07523298,0.1825299,-0.2209152,-0.005827424,-0.001073634,0.9980204,33.65286,5.426678,-22.68688,1004.789
1.037864685,0.0139995,0.0009917939,-0.3432401,-0.003427437,0.001360683,0.9927104,33.65286,5.426678,-22.68688,1004.789
1.040342331,0.1364664,0.3035553,-0.09859026,-0.01070603,-0.001598617,0.992735,33.65286,5.426678,-22.68688,1004.789
1.042818546,0.1364664,0.2430426,-0.09859026,-0.00780551,0.0003594945,0.9907984,33.65286,5.426678,-22.68688,1004.789
1.045296192,0.1976999,0.3035553,-0.3432401,-0.001469025,-8.650753E-05,0.9941403,33.65286,5.426678,-22.68688,1004.789
1.047773361,0.1364664,0.1220172,-0.2820776,-0.003414897,-0.0005858433,0.9931829,33.65286,5.426678,-22.68688,1004.789
1.050250053,0.2589334,0.1825299,-0.09859026,-0.006816433,0.001842879,0.9980408,33.65286,5.426678,-22.68688,1004.789
1.052727222,0.2589334,0.1825299,-0.09859026,-0.005824698,-0.001560559,0.9980179,33.65286,5.426678,-22.68688,1004.789
1.055203915,0.2589334,0.2430426,-0.2209152,-0.007312023,0.003789232,0.9985363,33.65286,5.426678,-22.68688,1004.789
1.057681084,0.07523298,0.2430426,-0.1597527,-0.002929608,0.002838035,0.9985074,33.65286,5.426678,-22.68688,1004.789
1.060157776,0.1976999,0.1220172,-0.2820776,-0.00389901,0.001368712,0.997057,33.65286,5.426678,-22.68688,1004.789
1.062635422,0.07523298,0.0615045,-0.4044026,-0.004375016,-0.002537404,0.9936609,33.65286,5.426678,-22.68688,1004.789
1.065112114,0.1364664,0.2430426,-0.2820776,-0.004379313,0.002348247,1.000443,33.65286,5.426678,-22.68688,1004.789
1.067589283,0.3814003,0.0009917939,-0.2209152,-0.009742076,0.0008445545,0.9941904,33.65286,5.426678,-22.68688,1004.789
1.070065975,0.3201669,0.1220172,-0.2820776,-0.007798376,0.002320082,0.9961179,34.32068,6.16737,-22.70238,1004.789
1.072543144,0.07523298,0.0615045,-0.1597527,-0.004906077,0.002805703,0.9893472,34.32068,6.16737,-22.70238,1004.791
1.075020313,0.07523298,0.0615045,-0.1597527,-0.001465746,-8.416409E-05,0.9951056,34.32068,6.16737,-22.70238,1004.791
1.077497005,0.07523298,0.1825299,-0.3432401,-0.003897902,0.002347248,0.9989927,34.32068,6.16737,-22.70238,1004.791
1.079974175,0.07523298,0.2430426,-0.3432401,-0.008258493,0.0008696816,1.001422,34.32068,6.16737,-22.70238,1004.791
1.082450867,0.1976999,0.0615045,-0.1597527,-0.006796803,-0.001076325,0.998991,34.32068,6.16737,-22.70238,1004.791
1.084928513,0.2589334,0.2430426,-0.3432401,-0.00337393,-0.002023182,1.002829,34.32068,6.16737,-22.70238,1004.791
1.087405205,0.0139995,0.0009917939,-0.1597527,-5.07338E-06,0.002857823,1.000422,34.32068,6.16737,-22.70238,1004.791
1.089882374,0.1364664,0.1220172,-0.2209152,-0.0009750065,0.002365865,1.000425,34.32068,6.16737,-22.70238,1004.791
1.092359066,0.07523298,0.3035553,-0.2209152,-0.005832874,-9.978539E-05,0.9980255,34.32068,6.16737,-22.70238,1004.791
1.094836235,0.1364664,0.1825299,-0.09859026,-0.003894091,0.001372227,0.9985051,34.32068,6.16737,-22.70238,1004.791
1.097312927,-0.1084674,0.1220172,-0.1597527,-0.005336197,-0.002534235,0.9970449,34.32068,6.16737,-22.70238,1004.791
1.099790096,0.07523298,0.1220172,0.02373465,-0.00824325,-0.003030401,0.9994717,34.32068,6.16737,-22.70238,1004.791
1.102267742,0.1364664,0.2430426,-0.1597527,-0.008742652,-0.0001090276,1.000455,34.32068,6.16737,-22.70238,1004.791
1.104743958,-0.1697009,0.0615045,-0.2820776,-0.01170594,0.003265594,0.9927654,34.32068,6.16737,-22.70238,1004.791
1.107221603,-0.1084674,0.1825299,-0.09859026,-0.00733059,0.004753707,0.9946798,34.32068,6.16737,-22.70238,1004.791
1.109698296,0.1364664,0.3035553,-0.09859026,-0.006329018,0.0013573,0.9975531,34.32068,6.16737,-22.70238,1004.791
1.114652157,0.1976999,0.0615045,-0.3432401,-0.007310429,0.000857139,0.9941771,34.32068,6.16737,-22.70238,1004.79
1.117129326,0.2589334,0.0615045,-0.3432401,-0.006808234,0.001848738,1.000454,34.32068,6.16737,-22.70238,1004.79
1.119606018,0.07523298,0.2430426,-0.2209152,-0.005831189,0.002834651,1.00335,34.32068,6.16737,-22.70238,1004.79
1.122083187,0.07523298,0.2430426,-0.1597527,-0.006338301,0.001839537,0.9956248,33.94943,6.156171,-23.08101,1004.79
1.124560833,0.1364664,0.2430426,-0.2209152,-0.00339028,0.0008983659,1.002844,33.94943,6.156171,-23.08101,1004.79
1.127037525,0.1364664,0.2430426,-0.1597527,-0.003382682,-0.002518308,0.9994476,33.94943,6.156171,-23.08101,1004.79
1.129514694,0.0139995,0.2430426,-0.1597527,-0.006295186,-0.002040626,1.00188,33.94943,6.156171,-23.08101,1004.79
1.131991386,0.07523298,0.1220172,-0.1597527,-0.008256322,-0.0001065109,1.000452,33.94943,6.156171,-23.08101,1004.79
1.134468555,0.1976999,0.1220172,-0.2209152,-0.001922563,-6.558886E-05,1.003796,33.94943,6.156171,-23.08101,1004.79
1.136945248,0.2589334,0.0615045,-0.2209152,-0.003397947,-8.485746E-05,0.9989775,33.94943,6.156171,-23.08101,1004.79
1.139422417,0.1364664,0.2430426,-0.03742781,-0.004348252,-0.003496019,0.9999307,33.94943,6.156171,-23.08101,1004.79
1.141899109,0.1364664,0.1825299,-0.1597527,-0.007287498,-0.0005930888,0.9985136,33.94943,6.156171,-23.08101,1004.79
1.144376278,0.1364664,0.0615045,-0.2209152,-0.004377165,-9.457814E-05,0.9970521,33.94943,6.156171,-23.08101,1004.79
1.146852970,0.1976999,0.1220172,-0.4044026,-0.002912149,0.0008950238,1.000428,33.94943,6.156171,-23.08101,1004.79
1.149330616,0.3201669,0.0615045,-0.2820776,-0.002444387,0.001862015,0.9965689,33.94943,6.156171,-23.08101,1004.79
1.151807785,0.1976999,0.0615045,-0.2209152,-0.007306596,0.00134875,0.9961103,33.94943,6.156171,-23.08101,1004.792
1.154284477,0.0139995,0.1825299,-0.1597527,-0.003415937,0.002835518,0.9985101,33.94943,6.156171,-23.08101,1004.792
1.156761646,0.1364664,0.4245807,-0.2209152,-0.00733059,0.004753707,0.9946798,33.94943,6.156171,-23.08101,1004.792
1.159238339,0.2589334,0.1825299,-0.2820776,-0.00633232,-0.0001116763,0.9941668,33.94943,6.156171,-23.08101,1004.792
1.161715508,0.0139995,0.1220172,-0.2820776,-0.001936811,-0.002520132,0.9955783,33.94943,6.156171,-23.08101,1004.792
1.164192200,0.1364664,0.0009917939,-0.2209152,-0.004842778,-0.003504395,0.9975199,33.94943,6.156171,-23.08101,1004.792
1.166669369,0.1976999,0.3035553,-0.1597527,-0.000454891,-0.003962808,0.999907,33.94943,6.156171,-23.08101,1004.792
1.169146061,0.2589334,0.1220172,-0.1597527,-0.005828463,0.002347727,1.003348,33.94943,6.156171,-23.08101,1004.792
1.171623707,0.1364664,0.0009917939,-0.1597527,-0.007799461,0.002808179,0.9966031,33.64065,6.152853,-23.07985,1004.792
1.174100876,0.0139995,0.1220172,-0.2209152,-0.004844418,-0.003505567,0.9970372,33.64065,6.152853,-23.07985,1004.792
1.176577568,0.1364664,0.1825299,-0.2209152,-0.004398965,0.003800818,0.9970723,33.64065,6.152853,-23.07985,1004.792
1.179054737,0.0139995,0.1825299,-0.1597527,-0.006797357,-0.001565593,0.9980232,33.64065,6.152853,-23.07985,1004.792
1.181531429,0.07523298,0.3035553,-0.2209152,-0.005844814,0.005269274,1.003363,33.64065,6.152853,-23.07985,1004.792
1.184008598,0.07523298,0.1220172,-0.3432401,-0.004895686,0.003302002,0.993211,33.64065,6.152853,-23.07985,1004.792
1.186485290,0.07523298,0.1220172,-0.1597527,-0.003902267,0.002833001,0.9985127,33.64065,6.152853,-23.07985,1004.792
1.188962936,0.1364664,0.1825299,-0.1597527,-0.007270038,-0.0025361,1.000434,33.64065,6.152853,-23.07985,1004.792
1.191439152,0.1364664,0.0615045,-0.1597527,-0.007274913,0.0003936498,1.003828,33.64065,6.152853,-23.07985,1004.792
1.193916797,0.1364664,0.0009917939,-0.2209152,-0.004842755,-0.002037763,0.9999409,33.64065,6.152853,-23.07985,1004.793
1.196393490,0.07523298,0.2430426,-0.1597527,-0.003419261,-0.0001000904,0.9927028,33.64065,6.152853,-23.07985,1004.793
1.198870659,0.3201669,0.2430426,-0.2820776,-0.003859751,-0.004469695,0.9989575,33.64065,6.152853,-23.07985,1004.793
1.201347828,0.1364664,0.3035553,-0.2209152,-0.006331743,0.001844224,0.9975556,33.64065,6.152853,-23.07985,1004.793
1.203824520,0.07523298,0.2430426,-0.09859026,-0.003893583,-0.001071769,0.9946311,33.64065,6.152853,-23.07985,1004.793
1.206301689,0.1364664,0.364068,-0.2209152,0.0004899174,-0.002511063,0.9941171,33.64065,6.152853,-23.07985,1004.793
1.208778381,0.07523298,0.2430426,-0.1597527,-0.00389296,0.003817396,1.002862,33.64065,6.152853,-23.07985,1004.793
1.211256027,0.1976999,0.1220172,-0.3432401,-0.007308235,0.001347578,0.9956276,33.64065,6.152853,-23.07985,1004.793
1.213732242,0.07523298,0.3035553,-0.3432401,-0.003417068,0.0003903494,0.9941534,33.64065,6.152853,-23.07985,1004.793
1.216209888,0.1976999,0.1825299,-0.2820776,-0.002408384,-0.002512103,0.9999251,33.64065,6.152853,-23.07985,1004.793
1.218686580,0.07523298,0.0615045,-0.09859026,-0.004367327,-8.754735E-05,0.9999483,33.64065,6.152853,-23.07985,1004.793
1.221163750,-0.04723396,0.1220172,-0.1597527,-0.002918153,0.001379605,0.9994652,33.95014,6.163388,-22.70099,1004.793
1.223640442,0.1976999,0.0615045,-0.2209152,-0.004381507,0.001857807,0.9989929,33.95014,6.163388,-22.70099,1004.793
1.226117611,0.1364664,0.2430426,-0.2209152,-0.006302253,0.0003986836,1.003823,33.95014,6.163388,-22.70099,1004.793
1.228594780,0.1976999,0.1220172,-0.3432401,-0.002895822,-0.003493156,0.9979919,33.95014,6.163388,-22.70099,1004.793
1.231071472,0.2589334,-0.05952091,-0.1597527,-0.006320333,-0.002547471,0.9936715,33.95014,6.163388,-22.70099,1004.793
1.233549118,0.1976999,-0.05952091,-0.03742781,-0.004351531,-0.003498363,0.9989652,33.95014,6.163388,-22.70099,1004.792
1.236025810,0.1364664,0.0615045,-0.1597527,-0.008283641,0.0003628365,0.9932144,33.95014,6.163388,-22.70099,1004.792
1.238502979,0.1364664,0.0615045,-0.2209152,-0.004858597,-0.001560213,0.9960819,33.95014,6.163388,-22.70099,1004.792
1.240979671,0.1976999,0.1220172,-0.09859026,-0.008748125,-0.0006018111,0.9980388,33.95014,6.163388,-22.70099,1004.792
1.243456840,0.07523298,0.0615045,-0.3432401,-0.005851972,0.001842054,0.9956221,33.95014,6.163388,-22.70099,1004.792
1.245933533,0.07523298,0.1220172,-0.3432401,-0.004358044,-0.0005697848,1.001876,33.95014,6.163388,-22.70099,1004.792
1.248410702,0.2589334,0.1220172,-0.2209152,-0.008245975,-0.002543477,0.9994742,33.95014,6.163388,-22.70099,1004.792
1.250888347,0.2589334,0.1220172,-0.2209152,-0.00923771,0.0008599609,0.9994971,33.95014,6.163388,-22.70099,1004.792
1.253364563,0.0139995,0.0009917939,-0.2209152,-0.005329084,-0.00204028,0.9999435,33.95014,6.163388,-22.70099,1004.792
1.255842209,0.0139995,0.0615045,-0.2209152,-0.002905613,-0.0005669212,0.9999378,33.95014,6.163388,-22.70099,1004.792
1.258318901,0.07523298,0.364068,-0.2820776,-0.006794055,-9.66168E-05,1.001409,33.95014,6.163388,-22.70099,1004.792
1.260796070,0.07523298,0.1220172,-0.1597527,-0.005315482,-0.005941533,0.99751,33.95014,6.163388,-22.70099,1004.792
1.263272762,0.07523298,0.0615045,-0.2209152,-0.00726789,-0.004978925,0.9970429,33.95014,6.163388,-22.70099,1004.792
1.265749931,0.07523298,0.0615045,-0.1597527,-0.008753575,0.0003720378,0.9980439,33.95014,6.163388,-22.70099,1004.792
1.268226623,0.1364664,-0.1200336,-0.03742781,-0.006824077,0.002326288,0.9965953,33.95014,6.163388,-22.70099,1004.792
1.270703792,0.1364664,0.1220172,-0.2209152,-0.003379403,-0.002515965,1.000413,33.95014,6.163388,-22.70099,1004.792
1.273181438,0.07523298,0.1825299,-0.1597527,-0.008763945,0.001342371,0.9966009,33.96093,5.422781,-23.06805,1004.793
1.275657654,0.07523298,0.1825299,-0.09859026,-0.008739949,-0.002062585,0.9980313,33.96093,5.422781,-23.06805,1004.793
1.278135300,0.07523298,0.0615045,-0.2820776,-0.003852616,-0.002509107,1.004277,33.96093,5.422781,-23.06805,1004.793
1.280611992,0.1364664,0.364068,-0.2209152,-0.000928635,-0.002978587,1.005224,33.96093,5.422781,-23.06805,1004.793
1.283089161,0.1364664,0.0615045,-0.09859026,-0.008265628,-0.001090906,0.996103,33.96093,5.422781,-23.06805,1004.793
1.285565853,0.1364664,0.0009917939,-0.2209152,-0.005344926,-0.001562729,0.9960846,33.96093,5.422781,-23.06805,1004.793
1.288043022,-0.04723396,0.1825299,-0.09859026,-0.004856936,-9.240815E-05,0.9989855,33.96093,5.422781,-23.06805,1004.793
1.290519714,0.07523298,-0.05952091,-0.03742781,-0.007773827,-0.0005956057,0.9985163,33.96093,5.422781,-23.06805,1004.793
1.292996883,0.2589334,0.0615045,-0.03742781,-0.006319734,0.0008750622,0.9994811,33.96093,5.422781,-23.06805,1004.793
1.295473575,0.1976999,0.3035553,-0.1597527,-0.005336751,-0.003023503,0.9960771,33.96093,5.422781,-23.06805,1004.793
1.297951221,0.1364664,0.3035553,-0.2209152,-0.003385984,-0.003987284,0.9960614,33.96093,5.422781,-23.06805,1004.793
1.300428390,0.1364664,0.1825299,-0.1597527,-0.006799528,-0.0005894003,0.9989935,33.96093,5.422781,-23.06805,1004.793
1.302905083,-0.04723396,0.1825299,-0.2820776,-0.007262417,-0.004486141,0.9994588,33.96093,5.422781,-23.06805,1004.793
1.305382252,0.1364664,0.1220172,-0.2820776,-0.005841072,-0.0001056443,0.9956121,33.96093,5.422781,-23.06805,1004.793
1.307858944,0.0139995,0.1825299,-0.1597527,-0.003360305,-0.004457803,1.002816,33.96093,5.422781,-23.06805,1004.793
1.310336113,0.1364664,0.3035553,-0.2820776,-0.005849247,0.001355129,0.9956196,33.96093,5.422781,-23.06805,1004.793
1.312812805,0.1364664,0.2430426,-0.2820776,-0.006324122,-0.0001058178,0.9965801,33.96093,5.422781,-23.06805,1004.795
1.315289974,0.1364664,-0.05952091,-0.09859026,-0.005838878,0.0003847955,0.9970626,33.96093,5.422781,-23.06805,1004.795
1.317766666,0.07523298,0.0009917939,-0.2209152,-0.003892452,0.001373399,0.9989877,33.96093,5.422781,-23.06805,1004.795
1.320244312,0.0139995,0.1825299,-0.2820776,-0.007295163,-0.001576312,0.9946471,33.96093,5.422781,-23.06805,1004.795
1.322721481,0.1976999,0.1220172,-0.2209152,-0.004850399,-0.001554354,0.9984953,34.33793,5.067284,-22.68294,1004.795
1.325198173,0.1364664,0.0615045,-0.1597527,-0.003895154,0.003326956,1.001411,34.33793,5.067284,-22.68294,1004.795
1.327675342,0.2589334,0.1825299,-0.1597527,-0.00340014,-0.000575297,0.9975271,34.33793,5.067284,-22.68294,1004.795
1.330152035,0.1364664,0.1220172,-0.03742781,-0.002923095,-9.054295E-05,0.9955962,34.33793,5.067284,-22.68294,1004.795
1.332629204,0.0139995,0.0615045,-0.09859026,-0.00925085,-0.0006160459,0.9932147,34.33793,5.067284,-22.68294,1004.795
1.335105896,-0.1084674,0.0615045,-0.2820776,-0.006341604,0.0003705607,0.9922385,34.33793,5.067284,-22.68294,1004.795
1.337583065,0.1364664,0.1220172,-0.2820776,-0.002423672,-0.001545284,0.997034,34.33793,5.067284,-22.68294,1004.795
1.340059757,0.1364664,0.2430426,-0.1597527,-0.002920324,0.002355797,1.000435,34.33793,5.067284,-22.68294,1004.795
1.342537403,0.1364664,0.1220172,-0.1597527,-0.005862341,0.002812388,0.9941792,34.33793,5.067284,-22.68294,1004.795
1.345014095,0.07523298,0.0615045,-0.2209152,-0.009761196,0.001319761,0.9893661,34.33793,5.067284,-22.68294,1004.795
1.347491264,0.07523298,0.1220172,-0.3432401,-0.005360146,0.003803987,1.000456,34.33793,5.067284,-22.68294,1004.795
1.349968433,0.0139995,0.3035553,-0.09859026,-0.007773804,0.0008710269,1.000937,34.33793,5.067284,-22.68294,1004.795
1.352445125,0.1976999,0.4245807,-0.09859026,-0.006812645,-0.0005987743,0.9951322,34.33793,5.067284,-22.68294,1004.797
1.354922294,0.07523298,0.0615045,-0.09859026,-0.007284196,0.0008758875,1.0019,34.33793,5.067284,-22.68294,1004.797
1.357398987,-0.1697009,0.0615045,-0.03742781,-0.001458103,-0.0005675736,0.996551,34.33793,5.067284,-22.68294,1004.797
1.359876633,0.0139995,0.1825299,-0.1597527,-0.001964039,0.003815746,0.9980244,34.33793,5.067284,-22.68294,1004.797
1.362352848,0.0139995,0.2430426,-0.1597527,-0.006324654,0.0008715467,0.9980331,34.33793,5.067284,-22.68294,1004.797
1.364830494,0.0139995,0.2430426,-0.03742781,-0.002918176,-8.702744E-05,0.9970442,34.33793,5.067284,-22.68294,1004.797
1.367307186,0.0139995,0.2430426,0.02373465,-0.006808833,-0.001573795,0.9946445,34.33793,5.067284,-22.68294,1004.797
1.369784355,0.07523298,0.1220172,-0.1597527,-0.007306596,0.00134875,0.9961103,34.33793,5.067284,-22.68294,1004.797
1.372261047,0.0139995,0.1220172,-0.3432401,-0.007280962,-0.002055034,0.9980233,33.95014,6.163388,-22.70099,1004.797
1.374738216,0.07523298,0.0009917939,-0.2820776,-0.002922009,-0.0005786391,0.995111,33.95014,6.163388,-22.70099,1004.797
1.377215385,0.07523298,-0.05952091,-0.09859026,-0.0106749,-0.003042986,0.9994849,33.95014,6.163388,-22.70099,1004.797
1.379692077,0.1976999,0.0615045,-0.1597527,-0.006305555,-0.001070292,1.000436,33.95014,6.163388,-22.70099,1004.797
1.384646416,0.1364664,0.2430426,-0.2820776,-0.009249165,0.002318391,0.9985393,33.95014,6.163388,-22.70099,1004.797
1.387123585,0.1364664,0.0615045,-0.1597527,-0.004863515,-0.001563728,0.9946339,33.95014,6.163388,-22.70099,1004.797
1.389600277,0.1976999,0.0009917939,-0.09859026,-0.007755305,-0.004493345,0.9975308,33.95014,6.163388,-22.70099,1004.797
1.392077446,0.1364664,0.0615045,-0.2209152,-0.006812645,-0.0005987743,0.9951322,33.95014,6.163388,-22.70099,1004.798
1.394554138,0.0139995,0.0615045,-0.2820776,-0.001453161,0.0009025745,1.00042,33.95014,6.163388,-22.70099,1004.798
1.397031307,0.0139995,0.2430426,-0.2209152,-0.007740549,-0.004482799,1.001875,33.95014,6.163388,-22.70099,1004.798
1.399508476,0.2589334,-0.05952091,-0.1597527,-0.005853589,0.003307514,0.9975604,33.95014,6.163388,-22.70099,1004.798
1.401985168,0.1976999,0.1220172,-0.2209152,-0.006310428,0.001859457,1.00383,33.95014,6.163388,-22.70099,1004.798
1.404462814,0.07523298,0.2430426,-0.2209152,-0.007269484,-0.002046832,1.001402,33.95014,6.163388,-22.70099,1004.798
1.406939506,0.1364664,0.2430426,-0.1597527,-0.002919816,-8.819951E-05,0.9965615,33.95014,6.163388,-22.70099,1004.798
1.409416675,0.3201669,0.1220172,-0.2820776,-0.004384763,0.003322096,1.000448,33.95014,6.163388,-22.70099,1004.798
1.411893368,0.0139995,0.1220172,-0.2820776,-0.007791863,-0.0006084954,0.9932067,33.95014,6.163388,-22.70099,1004.798
1.414370537,0.07523298,0.0615045,-0.2820776,-0.004377119,0.002838687,1.001894,33.95014,6.163388,-22.70099,1004.798
1.416847229,0.1364664,0.0615045,-0.1597527,-0.00440005,0.004288914,0.9975575,33.95014,6.163388,-22.70099,1004.798
1.419324398,0.1364664,0.0615045,-0.2820776,-0.001973853,0.005275347,0.9975493,33.95014,6.163388,-22.70099,1004.798
1.421802044,0.1364664,0.0615045,-0.2209152,-0.004375525,-9.34063E-05,0.9975349,33.95014,6.163388,-22.70099,1004.798
1.424278259,0.1976999,0.1825299,-0.2820776,-0.005336175,-0.001067602,0.9994658,33.64065,6.152853,-23.07985,1004.798
1.426755905,0.07523298,0.0615045,-0.3432401,-0.00194113,0.000898886,0.99994,33.64065,6.152853,-23.07985,1004.798
1.429232597,0.1364664,0.0009917939,-0.2820776,-0.006812045,0.002823759,1.000942,33.64065,6.152853,-23.07985,1004.798
1.431709766,0.3201669,0.0009917939,-0.3432401,-0.005842666,0.002826449,0.9999713,33.64065,6.152853,-23.07985,1004.799
1.434186458,0.1364664,0.0615045,-0.2820776,-0.007277106,-9.678979E-05,1.002378,33.64065,6.152853,-23.07985,1004.799
1.436663627,0.1364664,0.0009917939,-0.3432401,-0.01314038,0.0003423551,0.9951717,33.64065,6.152853,-23.07985,1004.799
1.439140320,0.2589334,0.1825299,-0.2820776,-0.005850333,0.001843225,0.9961048,33.64065,6.152853,-23.07985,1004.799
1.441617489,0.07523298,0.1220172,-0.2209152,-0.003896839,0.0003925194,0.9960867,33.64065,6.152853,-23.07985,1004.799
1.444094181,0.1364664,-0.05952091,-0.03742781,-0.009227363,-0.001577005,0.9985192,33.64065,6.152853,-23.07985,1004.799
1.446571827,0.07523298,0.364068,-0.1597527,-0.005363979,0.003312375,0.9985232,33.64065,6.152853,-23.07985,1004.799
1.449048996,0.07523298,0.1825299,-0.3432401,-0.006801699,0.0003867925,0.9999641,33.64065,6.152853,-23.07985,1004.799
1.451525688,-0.04723396,0.1220172,-0.2820776,-0.01115356,-0.00206228,1.003354,33.64065,6.152853,-23.07985,1004.799
1.454002857,0.0139995,0.0615045,-0.4044026,-0.004861277,0.001859977,1.000926,33.64065,6.152853,-23.07985,1004.799
1.456479549,0.07523298,0.1220172,-0.2209152,-0.008733368,-0.0005912648,1.002383,33.64065,6.152853,-23.07985,1004.799
1.458956718,0.0139995,-0.1200336,-0.2209152,-0.007789092,0.001837845,0.9980461,33.64065,6.152853,-23.07985,1004.799
1.461433411,0.1364664,0.364068,-0.1597527,-0.01019783,-0.001091599,0.999975,33.64065,6.152853,-23.07985,1004.799
1.463910580,0.1976999,0.1825299,-0.2209152,-0.005841072,-0.0001056443,0.9956121,33.64065,6.152853,-23.07985,1004.799
1.466387272,0.07523298,-0.241059,-0.09859026,-0.006296271,-0.001552529,1.002365,33.64065,6.152853,-23.07985,1004.799
1.468864918,0.1364428,0.06158023,-0.09855929,-0.007283133,-0.001078842,0.9989937,33.64065,6.152853,-23.07985,1004.799
1.471342087,0.07516648,0.243099,-0.03736587,-0.003399078,-0.002530026,0.9946209,33.64065,6.152853,-23.07985,1004.799
1.473818779,0.1363763,0.364048,-0.2208415,-0.01117324,-0.002076341,0.9975619,33.95366,5.773839,-23.8979,1004.8
1.476295948,0.01386655,0.1218828,-0.09844721,-0.009731751,-0.003059044,0.9907914,33.95366,5.773839,-23.8979,1004.8
1.478772640,0.1363291,0.1823573,-0.09841628,-0.004364602,-0.0005744719,0.9999458,33.95366,5.773839,-23.8979,1004.8
1.481249809,0.1975198,0.2428127,-0.2818727,-0.003898987,0.002835345,0.999478,33.95366,5.773839,-23.8979,1004.8
1.483726501,0.1362242,0.1822237,-0.2206217,-0.003888087,0.0008876466,0.9994679,33.95366,5.773839,-23.8979,1004.8
1.486203670,0.1974149,0.1821664,-0.2205524,-0.00196353,0.001371749,0.9941505,33.95366,5.773839,-23.8979,1004.8
1.488680363,0.1361194,0.0610838,-0.09815821,-0.004850399,-0.001554354,0.9984953,33.95366,5.773839,-23.8979,1004.8
1.491158008,0.0748432,0.06106461,-0.2204523,-0.005801235,-0.003988151,1.000901,33.95366,5.773839,-23.8979,1004.8
1.493635177,0.1360532,0.1215581,-0.220383,-0.003868435,-0.0005649244,1.002839,33.95366,5.773839,-23.8979,1004.8
1.496111870,0.1972439,0.3030581,-0.1591513,-0.003877141,0.001873213,1.0043,33.95366,5.773839,-23.8979,1004.8
1.498589039,0.1359484,0.2424501,-0.09793888,-0.008265074,-0.0006016379,0.9970708,33.95366,5.773839,-23.8979,1004.8
1.501065731,0.2583727,-0.06018954,-0.2813955,-0.005347629,0.0003908277,0.998508,33.95366,5.773839,-23.8979,1004.8
1.503542900,0.1358246,0.2423929,-0.2201446,-0.004882615,0.0003781114,0.9922306,33.95366,5.773839,-23.8979,1004.8
1.506019592,0.07454843,0.2423167,-0.158913,-0.006834977,0.004273986,0.9966053,33.95366,5.773839,-23.8979,1004.8
1.508497238,0.01329154,0.1817279,-0.03653817,-0.005369961,0.005263588,0.9999812,33.95366,5.773839,-23.8979,1004.8
1.510973453,0.07452083,0.1211581,-0.03652669,-0.00438153,0.0003911741,0.996572,33.95366,5.773839,-23.8979,1004.8
1.513451099,0.1969644,0.2421454,-0.2200026,-0.002410555,-0.00153591,1.000896,33.95366,5.773839,-23.8979,1004.8
1.515927791,0.135669,0.1815567,-0.2199335,-0.006274448,-0.003981293,1.004765,33.95366,5.773839,-23.8979,1004.8
1.518404961,0.1356264,0.1209869,-0.09753946,-0.00484003,-0.002524687,0.9999384,33.95366,5.773839,-23.8979,1004.8
1.520882130,0.1355838,0.302487,-0.1586713,-0.0004952813,-0.0005695703,0.9936498,33.95366,5.773839,-23.8979,1004.8
1.523358822,0.1967746,0.2418793,-0.03629651,-0.006297933,-0.003020334,0.9994611,33.94439,6.530083,-22.70747,1004.8
1.525835991,0.1967128,0.1812906,-0.15861,-0.008254151,-0.001082703,0.9994817,33.94439,6.530083,-22.70747,1004.8
1.528312683,0.1354176,0.1812336,-0.2197227,-0.008268861,0.001840015,0.9999796,33.94439,6.530083,-22.70747,1004.8
1.530790329,-0.04832538,0.1811767,-0.2196536,-0.009233944,-0.003048324,0.9941676,33.94439,6.530083,-22.70747,1004.8
1.533266544,0.1353902,0.1206071,-0.1584222,-0.002913766,0.002360485,1.002366,33.94439,6.530083,-22.70747,1004.8
1.535744190,0.0741142,0.1205692,-0.2806973,-0.005359061,0.00331589,0.9999712,33.94439,6.530083,-22.70747,1004.8
1.538220882,0.07409092,-0.0004940738,-0.2806091,-0.008285811,0.00133903,0.9941849,33.94439,6.530083,-22.70747,1004.8
1.540698051,0.1353011,0.1810442,-0.1581961,-0.006809366,-0.0005964309,0.9960976,33.94439,6.530083,-22.70747,1004.8
1.543175220,0.1964921,0.1809873,-0.2193088,-0.003903929,0.001365197,0.995609,33.94439,6.530083,-22.70747,1004.8
1.545651913,0.1964303,0.05990505,-0.1580775,-0.006813684,0.002822587,1.000459,33.94439,6.530083,-22.70747,1004.8
1.548129082,0.1351352,0.2414243,-0.1580278,-0.005368344,0.003798128,0.9980429,33.94439,6.530083,-22.70747,1004.8
1.550605774,-0.1098412,0.05981039,-0.3414655,-0.006329549,0.002334664,0.999006,33.94439,6.530083,-22.70747,1004.8
1.553083420,0.07389376,0.1203043,-0.2801958,-0.008236669,-0.001559082,1.003823,33.94439,6.530083,-22.70747,1004.799
1.555560112,0.1963375,0.3018046,-0.1577829,-0.006809343,0.0008702016,0.9985185,33.94439,6.530083,-22.70747,1004.799
1.558037281,0.01257539,0.1806844,-0.1577333,-0.005828509,-0.0005855381,0.9985057,33.94439,6.530083,-22.70747,1004.799
1.560513973,0.2575053,0.2411403,-0.2188462,-0.004386425,0.001854292,0.9975449,33.94439,6.530083,-22.70747,1004.799
1.562991142,0.1349575,0.2410646,-0.09645251,-0.003360859,-0.004947072,1.001849,33.94439,6.530083,-22.70747,1004.799
1.565468311,0.07368161,0.1199634,-0.341072,-0.003380465,-0.0005612357,1.003319,33.94439,6.530083,-22.70747,1004.799
1.567945003,0.01242499,-0.001099659,-0.2798024,-0.00680119,-0.002057204,0.9960901,33.94439,6.530083,-22.70747,1004.799
1.570422649,0.1961215,0.1199261,-0.2185521,-0.006809897,0.0003809335,0.9975507,33.94439,6.530083,-22.70747,1004.799
1.572898865,0.3797603,0.1804011,-0.2184834,-0.007255859,-0.004481454,1.00139,33.94439,6.530083,-22.70747,1004.799
1.575376511,0.07347364,0.1803444,-0.3407397,-0.0009575705,-0.001043778,0.9999247,33.95014,6.163388,-22.70099,1004.799
1.577853203,0.01221709,0.1197751,-0.3406326,-0.004850399,-0.001554354,0.9984953,33.95014,6.163388,-22.70099,1004.799
1.580330372,0.07344672,0.1197375,-0.2793632,-0.005831211,0.001368019,1.000929,33.95014,6.163388,-22.70099,1004.799
1.582807064,0.01219018,0.05918714,-0.218113,-0.000982096,0.003338542,0.9999474,33.95014,6.163388,-22.70099,1004.799
1.585284233,0.1346533,0.1801939,-0.2180444,-0.006333959,-0.0001128484,0.9936841,33.95014,6.163388,-22.70099,1004.799
1.587760925,0.07337751,0.24065,-0.2791384,-0.0102349,0.005237248,0.999525,33.95014,6.163388,-22.70099,1004.799
1.590238094,0.1345879,0.05903633,-0.2178882,-0.005862895,0.002323119,0.9932113,33.95014,6.163388,-22.70099,1004.799
1.592715740,0.1957791,-0.06200762,-0.2178198,-0.003393074,-0.003014607,0.9955837,33.95014,6.163388,-22.70099,1004.8
1.595191955,0.2569511,0.11955,-0.09542644,-0.0004908941,0.0004113091,0.9965508,33.95014,6.163388,-22.70099,1004.8
1.597669601,0.07316995,0.05899971,-0.2788838,-3.07071E-05,0.006261608,0.9985091,33.95014,6.163388,-22.70099,1004.8
1.600146294,0.07314696,-0.001531532,-0.2176338,-0.005344926,-0.001562729,0.9960846,33.95014,6.163388,-22.70099,1004.8
1.602623463,0.1955909,0.2405198,-0.2175654,-0.004362431,-0.001550665,0.9989753,33.95014,6.163388,-22.70099,1004.8
1.605100155,0.134296,0.3009569,-0.1563346,-0.007782579,-0.001090733,0.995135,33.95014,6.163388,-22.70099,1004.8
1.607577324,0.07302035,0.1193242,-0.09512301,-0.004377696,0.0008827861,0.9985053,33.95014,6.163388,-22.70099,1004.8
1.610054016,0.07299741,0.1192868,-0.2785805,-0.005357975,0.002827794,0.9994859,33.95014,6.163388,-22.70099,1004.8
1.612531185,0.07297447,-0.001776122,-0.1561681,-0.008729049,-0.004010282,0.9980212,33.95014,6.163388,-22.70099,1004.8
1.615008831,-0.04951539,0.1192498,-0.156119,-0.008745377,0.0003778967,1.000457,33.95014,6.163388,-22.70099,1004.8
1.617485523,0.01173363,0.2402378,-0.2783949,-0.004369498,0.0008886451,1.000919,33.95014,6.163388,-22.70099,1004.8
1.619962692,0.07296342,0.1191369,-0.1559825,-0.00634703,0.002811042,0.9946644,33.95014,6.163388,-22.70099,1004.8
1.622439384,0.134174,0.3006376,-0.1559335,-0.004858065,-0.002537577,0.9946288,33.95014,6.163388,-22.70099,1004.8
1.624916553,0.1341318,0.119005,-0.1558845,-0.005837306,-0.00401393,0.9902826,34.31493,6.534066,-22.70886,1004.8
1.627393246,0.1340897,0.2399931,-0.1558355,-0.009727895,-0.0011008,0.9951456,34.31493,6.534066,-22.70886,1004.8
1.629870415,0.07281408,0.1794049,-0.03346166,-0.008746994,0.001843357,1.002396,34.31493,6.534066,-22.70886,1004.8
1.632347107,0.01155773,0.1188359,-0.0946136,-0.004366796,-0.001064912,0.9984952,34.31493,6.534066,-22.70886,1004.801
1.634824276,-0.04967936,0.1187985,-0.09458388,-0.005839433,-0.0001044725,0.9960948,34.31493,6.534066,-22.70886,1004.801
1.637301922,0.1340366,0.05824853,-0.1557166,-0.007771102,-0.00108253,0.9985138,34.31493,6.534066,-22.70886,1004.801
1.642255783,0.1951667,0.1187627,-0.2168005,-0.003410464,0.003328301,1.000926,34.31493,6.534066,-22.70886,1004.801
1.642255783,0.1951667,0.1187627,-0.2168005,-0.003410464,0.003328301,1.000926,34.31493,6.534066,-22.70886,1004.801
1.644732475,0.1951054,0.1187253,-0.2778948,-0.004862386,0.0008814408,0.9989905,34.31493,6.534066,-22.70886,1004.801
1.647209644,-0.0498898,-0.002337357,-0.09432015,-0.005357975,0.002827794,0.9994859,34.31493,6.534066,-22.70886,1004.801
1.649686336,0.0725928,0.3002269,-0.3389403,-0.003381574,-0.001539772,1.001383,34.31493,6.534066,-22.70886,1004.801
1.652163505,0.01133653,0.05808176,-0.1553465,-0.004835665,-0.00301044,1.000418,34.31493,6.534066,-22.70886,1004.801
1.657117367,0.1949913,0.2395454,-0.2164114,-0.005358553,0.0008718934,0.9960972,34.31493,6.534066,-22.70886,1004.801
1.659595013,0.1949301,0.057932,-0.2163434,-0.002905036,0.001388979,1.003327,34.31493,6.534066,-22.70886,1004.801
1.662071705,0.0724019,0.1184265,-0.2774379,-0.003927391,0.003792789,0.9927256,34.31493,6.534066,-22.70886,1004.801
1.664548874,-0.1113212,0.2999274,-0.1550258,-0.003887601,-0.003022983,0.993173,34.31493,6.534066,-22.70886,1004.801
1.667025566,-0.0500528,0.2393205,-0.1549771,-0.004873817,0.003806503,1.000454,34.31493,6.534066,-22.70886,1004.801
1.669502735,0.1336633,0.1787326,-0.2772533,-0.00389356,0.0003948631,0.997052,34.31493,6.534066,-22.70886,1004.801
1.671979427,0.07238787,0.05765103,-0.09367883,-0.008259601,-0.0001088544,0.9994867,34.31493,6.534066,-22.70886,1004.802
1.674456596,0.01113165,0.05763292,-0.1548119,-0.007787961,0.004283014,1.002403,34.31493,6.534066,-22.70886,1004.802
1.676933288,0.07236163,0.1181275,-0.1547632,-0.006805554,-0.001571452,0.9956098,34.3249,5.785038,-23.51927,1004.802
1.679410934,0.07233889,0.1180904,-0.1547146,-0.003388155,-0.003011092,0.9970317,34.3249,5.785038,-23.51927,1004.802
1.681887150,0.2560166,0.178566,-0.154666,-0.008738863,-0.002550681,0.9975461,34.3249,5.785038,-23.51927,1004.802
1.684364796,0.1334692,0.05748451,-0.0322925,-0.001962976,0.001861017,0.9951183,34.3249,5.785038,-23.51927,1004.802
1.686841965,0.07219381,0.1179791,-0.03228235,-0.0009914024,0.002354147,0.9955981,34.3249,5.785038,-23.51927,1004.802
1.689318657,0.1946381,0.1179421,-0.2157596,-0.005824676,-9.392644E-05,1.000439,34.3249,5.785038,-23.51927,1004.802
1.691795826,0.5007443,0.117905,-0.2156918,-0.007311492,0.002811868,0.9970831,34.3249,5.785038,-23.51927,1004.802
1.694272518,0.1331861,0.2388934,-0.09329912,-0.00292963,0.001371402,0.9960865,34.3249,5.785038,-23.51927,1004.802
1.696749687,0.07191083,0.2388183,-0.09326981,-0.00436839,0.001867181,1.002854,34.3249,5.785038,-23.51927,1004.802
1.699226379,-0.1118122,0.1782306,-0.154403,-0.004867304,0.0008779258,0.9975426,34.3249,5.785038,-23.51927,1004.802
1.701704025,-0.05054358,0.3597127,-0.2766794,-0.007284241,-0.002057378,0.997058,34.3249,5.785038,-23.51927,1004.802
1.704180717,0.1331727,0.2385743,-0.1542675,-0.003849891,-0.002996032,1.004274,34.3249,5.785038,-23.51927,1004.802
1.706657886,0.1331309,0.1779867,-0.09305662,-0.006819712,0.001840535,0.9970754,34.3249,5.785038,-23.51927,1004.802
1.709135055,0.01062211,0.1779307,-0.03186493,-0.006825739,0.0008584837,0.9936917,34.3249,5.785038,-23.51927,1004.802
1.711611748,0.1330857,-0.003663257,-0.1541798,-0.005827955,-9.626988E-05,0.9994735,34.3249,5.785038,-23.51927,1004.802
1.714088917,0.1330439,-0.06417481,-0.1541314,-0.001933532,-0.002517789,0.9965436,34.3249,5.785038,-23.51927,1004.8
1.716565609,0.07176863,0.1778962,-0.2764079,-0.006305023,-0.002047657,0.9989833,34.3249,5.785038,-23.51927,1004.8
1.719042778,0.1329796,0.238353,-0.2151586,-0.005362363,0.001846914,0.9965848,34.3249,5.785038,-23.51927,1004.8
1.721519470,0.1941712,0.1172527,-0.1539285,-0.005325805,-0.002037936,1.000909,34.3249,5.785038,-23.51927,1004.8
1.723997116,0.1328768,0.1777285,-0.09271772,-0.004860215,-9.475159E-05,0.9980202,34.3249,5.785038,-23.51927,1004.8
1.726473808,0.132835,0.2986981,-0.2150135,-0.006314793,0.00234521,1.00335,34.32068,6.16737,-22.70238,1004.8
1.728950977,-0.1121406,0.1775789,-0.1537835,-0.002896307,0.0004174737,1.004287,34.32068,6.16737,-22.70238,1004.8
1.731428146,0.194062,0.2380358,-0.2148977,-0.005350377,-0.0005888802,0.9960896,34.32068,6.16737,-22.70238,1004.8
1.733904839,0.194001,0.1774483,-0.03134277,-0.00293127,0.00137023,0.9956037,34.32068,6.16737,-22.70238,1004.8
1.736382008,0.1939401,0.3589307,-0.1536578,-0.004882569,0.003311376,0.9970724,34.32068,6.16737,-22.70238,1004.8
1.738858700,0.07141222,0.2983052,-0.3370969,-0.007339896,0.003769312,0.9903308,34.32068,6.16737,-22.70238,1004.8
1.741336346,0.07138979,-0.004352016,-0.336991,-0.005834535,-0.001567589,0.9951219,34.32068,6.16737,-22.70238,1004.8
1.743812561,0.2550678,0.1771875,-0.2145603,-0.007288052,-0.001082357,0.9975458,34.32068,6.16737,-22.70238,1004.8
1.746290207,0.07128723,0.1771318,-0.09216793,-0.005834513,-0.000100957,0.9975429,34.32068,6.16737,-22.70238,1004.8
1.748766899,0.07126483,0.1165634,-0.2144639,-0.004374394,0.002351762,1.001892,34.32068,6.16737,-22.70238,1004.8
1.751244068,0.1937094,0.1165268,-0.275559,-0.007305488,0.002327286,0.998046,34.32068,6.16737,-22.70238,1004.8
1.753721237,0.1324151,0.1770029,-0.2754724,-0.005802874,-0.003989322,1.000419,34.32068,6.16737,-22.70238,1004.797
1.756197929,0.07113999,0.1769473,-0.2753859,-0.007753642,-0.003025541,1.000434,34.32068,6.16737,-22.70238,1004.797
1.758675098,0.009884169,0.116379,-0.3364618,-0.004862962,-0.00107446,0.9956017,34.32068,6.16737,-22.70238,1004.797
1.761151791,0.07111453,0.2373679,-0.2140312,-0.004848206,-0.001063913,0.9999459,34.32068,6.16737,-22.70238,1004.797
1.763629436,-0.1126082,-0.004757518,-0.213964,-0.003869543,-0.001543461,1.000903,34.32068,6.16737,-22.70238,1004.797
1.766106129,-0.05133937,0.05575668,-0.2750592,-0.005322018,-0.004479589,0.9980001,34.32068,6.16737,-22.70238,1004.797
1.768583298,0.0711437,0.3583027,-0.2749728,-0.004337374,-0.006910349,0.9974996,34.32068,6.16737,-22.70238,1004.797
1.771059990,0.07112135,0.2371647,-0.3360488,-0.006790798,-0.001560905,0.999954,34.32068,6.16737,-22.70238,1004.797
1.773537159,0.1323325,0.1765775,-0.3971057,-0.007798929,0.001830814,0.9951501,34.32068,6.16737,-22.70238,1004.797
1.776014328,0.07105743,-0.06552879,-0.09116869,-0.006795208,-0.004008417,0.9946319,33.95518,5.789476,-23.07453,1004.797
1.778491020,0.009801637,0.1160299,-0.1523025,-0.005365642,0.001844571,0.9956195,33.95518,5.789476,-23.07453,1004.797
1.780968189,0.1322655,0.1765061,-0.2745796,-0.00826288,-0.0001111981,0.9985214,33.95518,5.789476,-23.07453,1004.797
1.783444881,0.1322239,0.0554253,-0.2133309,-0.00631105,-0.003029708,0.9955996,33.95518,5.789476,-23.07453,1004.797
1.785922527,0.2546494,-0.06561752,-0.09093891,-0.003405591,0.0003985518,0.9975321,33.95518,5.789476,-23.07453,1004.797
1.788399219,0.1321024,0.0554285,-0.2132353,-0.006824054,0.00379292,0.9990162,33.95518,5.789476,-23.07453,1004.797
1.790876389,0.009593965,0.1764365,-0.2131683,-0.003365201,-0.002994687,1.003789,33.95518,5.789476,-23.07453,1004.797
1.793353081,0.1320579,-0.005157042,-0.1519389,-0.01067432,-0.001087085,1.002874,33.95518,5.789476,-23.07453,1004.798
1.795830250,0.1932499,-0.005155422,-0.3353785,-0.006780938,-8.724234E-05,1.005271,33.95518,5.789476,-23.07453,1004.798
1.798307419,0.009488752,0.1763843,-0.2129482,-0.009243715,0.001344542,0.9985343,33.95518,5.789476,-23.07453,1004.798
1.800784111,0.009485771,0.1158162,-0.09055639,-0.006792416,-9.544473E-05,1.001892,33.95518,5.789476,-23.07453,1004.798
1.803261757,0.1319497,-0.0052456,-0.1516904,-0.00438698,0.001365023,0.996577,33.95518,5.789476,-23.07453,1004.798
1.805737972,0.2543752,0.2368069,-0.1516428,-0.005859616,0.002325463,0.9941767,33.95518,5.789476,-23.07453,1004.798
1.808215618,0.1318284,0.1762198,-0.1515951,-0.004859661,0.0003945162,0.998988,33.95518,5.789476,-23.07453,1004.798
1.810692310,0.07055348,-0.005373708,-0.2738724,-0.00584599,-0.0001091594,0.9941642,33.95518,5.789476,-23.07453,1004.798
1.813169479,0.1317648,0.2366788,-0.3961113,-0.002922032,-0.002045272,0.9926901,33.95518,5.789476,-23.07453,1004.798
1.815646172,0.1317234,0.2971171,-0.2736619,-0.006799528,-0.0005894003,0.9989935,33.95518,5.789476,-23.07453,1004.798
1.818123341,-0.0520184,0.1759984,-0.02892611,-0.005819248,-0.002534408,0.9980129,33.95518,5.789476,-23.07453,1004.798
1.820600033,-0.05200206,-0.005595009,-0.2124044,-0.003894114,-9.440491E-05,0.9960842,33.95518,5.789476,-23.07453,1004.798
1.823077202,0.009247744,0.1759448,-0.2123377,-0.002429653,0.0004059291,0.9984922,33.95518,5.789476,-23.07453,1004.798
1.825554848,0.07047831,0.2364023,-0.02878359,-0.0073126,0.001833331,0.9951475,33.95518,5.789476,-23.07453,1004.798
1.828031540,0.009222698,0.05478991,-0.089937,-0.006785348,-0.002534754,0.9999489,33.27504,5.773755,-23.51534,1004.798
1.830508709,0.1929202,0.1152854,-0.2122337,-0.005807262,-0.004970202,0.9975177,33.27504,5.773755,-23.51534,1004.798
1.832985401,0.2540931,0.1757619,-0.3344919,-0.006317563,-0.0001011305,0.9985108,33.27504,5.773755,-23.51534,1004.798
1.835462570,0.1315463,-0.06634414,-0.02857453,-0.003403951,0.0003997234,0.9980147,33.27504,5.773755,-23.51534,1004.798
1.837939262,0.131505,0.1152148,-0.08972801,-0.005335089,-0.001555699,0.9989806,33.27504,5.773755,-23.51534,1004.798
1.840416431,0.1314637,0.1756913,-0.2120247,-0.005829595,-9.744195E-05,0.9989908,33.27504,5.773755,-23.51534,1004.798
1.842893124,0.07018889,0.3571742,-0.334283,-0.00486294,0.0003921727,0.9980227,33.27504,5.773755,-23.51534,1004.798
1.845370293,0.07016685,0.0544985,-0.2730156,-0.005336175,-0.001067602,0.9994658,33.27504,5.773755,-23.51534,1004.798
1.847847939,0.0701448,-0.006031321,-0.2117673,-0.006312113,-0.00107498,0.9985058,33.27504,5.773755,-23.51534,1004.798
1.850324631,0.1925897,-0.006029427,-0.02821344,-0.003871205,-0.003011265,0.9979998,33.27504,5.773755,-23.51534,1004.798
1.852801800,0.1312957,-0.1270529,-0.08936703,-0.00726408,-0.005953945,0.9965551,33.27504,5.773755,-23.51534,1004.798
1.855278492,0.07002102,-0.06650032,-0.0281765,-0.008757962,-0.0006088417,0.9951428,33.27504,5.773755,-23.51534,1004.798
1.857755661,-0.05246792,0.05454598,-0.1504926,-0.003889218,-0.001557522,0.9951113,33.27504,5.773755,-23.51534,1004.798
1.860232353,-0.05245144,0.05452884,-0.2116077,-0.007785836,0.0003735558,0.9965906,33.27504,5.773755,-23.51534,1004.798
1.862709522,0.1312654,0.1755371,-0.02805389,-0.002897438,-0.002027695,0.9999303,33.27504,5.773755,-23.51534,1004.798
1.865187168,0.1312242,0.1149693,-0.15037,-0.003418708,0.0003891774,0.9936707,33.27504,5.773755,-23.51534,1004.798
1.867663383,0.131183,0.2359585,-0.2114852,-0.006788095,-0.003514462,0.9975305,33.27504,5.773755,-23.51534,1004.798
1.870141029,0.1923752,0.1753717,-0.08909385,-0.007771102,-0.00108253,0.9985138,33.27504,5.773755,-23.51534,1004.798
1.872617722,0.06984787,0.1753166,-0.1502283,0.0004604503,0.0004011099,0.9902708,33.27504,5.773755,-23.51534,1004.801
1.875094891,0.1310594,0.1752615,-0.1501811,-0.006333383,0.001843052,0.9970728,33.27504,5.773755,-23.51534,1004.801
1.877571583,0.06978475,-0.006331619,-0.150134,-0.0106694,-0.00108357,1.004322,33.96093,5.422781,-23.06805,1004.801
1.880048752,0.1922298,0.1146958,-0.1500868,-0.002399101,-0.00299434,1.001853,33.96093,5.422781,-23.06805,1004.801
1.882525444,0.1309359,0.05414704,-0.1500396,-0.003892475,-9.323331E-05,0.9965668,33.96093,5.422781,-23.06805,1004.801
1.885002613,0.1308948,-0.006382673,-0.2723174,-0.004827999,-0.002027217,1.004285,33.96093,5.422781,-23.06805,1004.801
1.887479305,0.00838671,0.1146447,-0.1499069,-0.004867859,0.0003886572,0.9965746,33.96093,5.422781,-23.06805,1004.801
1.889956951,0.1920845,0.05409602,-0.1498598,-0.002931801,0.002347595,0.9970568,33.96093,5.422781,-23.06805,1004.801
1.892434120,0.2532576,0.2356171,-0.3333001,-0.002889795,-0.002511105,1.001376,33.96093,5.422781,-23.06805,1004.801
1.894910812,0.1307111,0.1145177,-0.2108705,-0.00532689,-0.00154984,1.001394,33.96093,5.422781,-23.06805,1004.801
1.897387981,0.008203102,-0.1275691,-0.02731689,-0.005807172,0.0008963275,1.007201,33.96093,5.422781,-23.06805,1004.801
1.899864674,0.1306675,0.0540091,-0.2107957,-0.006343751,0.002813386,0.9956298,33.96093,5.422781,-23.06805,1004.801
1.902341843,0.06939295,0.1145048,-0.3942168,-0.007300569,0.002330802,0.999494,33.96093,5.422781,-23.06805,1004.801
1.904818535,0.06937115,0.1749816,-0.2717681,-0.006282137,-0.006431149,0.9984781,33.96093,5.422781,-23.06805,1004.801
1.907295704,0.1305828,0.1749266,-0.1493578,-0.006819734,0.0003739027,0.9946545,33.96093,5.422781,-23.06805,1004.801
1.909772396,0.06930833,0.2353843,-0.1493109,-0.01021748,0.0003609715,0.9966038,33.96093,5.422781,-23.06805,1004.801
1.912250042,0.1917535,0.1747977,-0.1492639,-0.005848693,0.001844397,0.9965875,33.96093,5.422781,-23.06805,1004.8
1.914727211,0.1304598,0.1142301,-0.1492171,-0.003887556,-8.97178E-05,0.9980149,33.96093,5.422781,-23.06805,1004.8
1.917203903,0.06918533,0.2957323,-0.1491702,-0.007291839,0.001359296,1.000454,33.96093,5.422781,-23.06805,1004.8
1.919681072,0.007930122,0.2351267,-0.08796085,-0.006347585,0.002321774,0.9936966,33.96093,5.422781,-23.06805,1004.8
1.922157764,0.1303946,0.1140274,-0.2102581,-0.0048728,-0.00108149,0.9927057,33.96093,5.422781,-23.06805,1004.8
1.927111626,0.06909842,0.1139558,-0.1489828,-0.00924263,0.0008564454,0.998049,33.27657,5.789391,-22.69197,1004.8
1.929588795,0.1303102,0.3559708,-0.148936,-0.01073709,0.004245648,0.9932478,33.27657,5.789391,-22.69197,1004.8
1.932065487,0.06903578,0.1138081,-0.1488892,-0.008265605,0.0003757263,0.998524,33.27657,5.789391,-22.69197,1004.8
1.934543133,0.06901409,0.1742851,-0.2100049,-0.00389192,0.0003960349,0.9975348,33.27657,5.789391,-22.69197,1004.8
1.937020302,0.1302259,0.1742303,-0.1487765,-0.008247615,-0.002544649,0.9989914,33.27657,5.789391,-22.69197,1004.8
1.939496994,0.06895149,0.2346883,-0.2098922,-0.004887465,0.004774493,0.9980453,33.27657,5.789391,-22.69197,1004.8
1.941974163,0.1301633,0.2951273,-0.2709887,-0.001460805,0.001385983,0.9989744,33.27657,5.789391,-22.69197,1004.8
1.944450855,0.007655471,0.2345219,-0.2097411,-0.007289159,-0.002060893,0.9956099,33.27657,5.789391,-22.69197,1004.8
1.946928024,0.06888653,0.1739355,-0.3320001,-0.005362961,-0.001575619,0.9907751,33.27657,5.789391,-22.69197,1004.8
1.949404716,0.1300984,0.2949063,0.03507891,-0.008735009,-0.0005924366,1.0019,33.27657,5.789391,-22.69197,1004.8
1.951882362,-0.05364291,0.05276279,-0.08725702,-0.008777615,0.0008437294,0.9917717,33.27657,5.789391,-22.69197,1004.801
1.954358578,0.007607406,-0.06827919,-0.08722961,-0.003401803,-0.002043102,0.9946234,33.27657,5.789391,-22.69197,1004.801
1.956836224,0.2525389,0.1737931,-0.2095271,-0.001937851,0.0009012294,1.000905,33.27657,5.789391,-22.69197,1004.801
1.959313393,0.1299926,0.1737385,-0.3317862,-0.0058165,-0.0015547,1.000431,33.27657,5.789391,-22.69197,1004.801
1.961790085,0.1911852,0.05265849,-0.2705195,-0.003374992,-6.845221E-05,1.005735,33.27657,5.789391,-22.69197,1004.801
1.964267254,0.2523587,0.23418,-0.1481096,-0.003917,0.004289087,0.9965895,33.27657,5.789391,-22.69197,1004.801
1.966743946,0.007345497,-0.06845703,-0.270388,-0.002908361,-0.001546629,0.9975194,33.27657,5.789391,-22.69197,1004.801
1.969221115,0.1298101,0.1131026,-0.1479781,-0.004851486,-0.001066257,0.9989804,33.27657,5.789391,-22.69197,1004.801
1.971697807,0.1910028,0.3551179,-0.1479317,-0.006319734,0.0008750622,0.9994811,33.27657,5.789391,-22.69197,1004.801
1.974175453,0.1909428,-0.008069919,-0.1478852,-0.006790244,-0.001071637,1.000922,33.27657,5.789391,-22.69197,1004.801
1.976651669,0.1296494,-0.06858008,-0.2090012,-0.006334491,0.0008645161,0.9951371,33.27657,5.789391,-22.69197,1004.801
1.979129314,-0.05409178,0.1734923,-0.1477731,-0.007285304,-0.0001026487,0.9999642,34.69192,6.178571,-22.32375,1004.801
1.981606483,0.06839215,0.1734378,-0.08656418,-0.002422009,-7.747975E-05,0.9999377,34.69192,6.178571,-22.32375,1004.801
1.984083176,0.1296041,0.1128706,-0.08653698,-0.004340608,-0.003979429,1.001376,34.69192,6.178571,-22.32375,1004.801
1.986560345,0.2520304,0.1128351,-0.2699972,-0.004395155,0.002825797,0.9965846,34.69192,6.178571,-22.32375,1004.801
1.989037037,0.1294842,0.1733124,-0.2087499,-0.005383677,0.001831681,0.9903101,34.69192,6.178571,-22.32375,1004.801
1.991514206,0.2519105,0.05223252,-0.1475219,-0.007320244,0.00231674,0.9937019,34.69192,6.178571,-22.32375,1004.801
1.993990898,0.06813095,-0.008296594,-0.08631305,-0.0039061,0.002341389,0.9965794,34.69192,6.178571,-22.32375,1004.801
1.996468544,0.129343,-0.06880669,-0.08628593,-0.002898501,-7.29661E-05,1.002836,34.69192,6.178571,-22.32375,1004.801
1.998945236,0.1905358,0.05224033,-0.2085837,-0.006304447,-9.1756E-05,1.002372,34.69192,6.178571,-22.32375,1004.801
2.001422405,0.190476,0.1732493,-0.3920056,-0.01116885,-0.001095461,1.000463,34.69192,6.178571,-22.32375,1004.801
2.003899574,0.1904161,0.1126822,-0.2083951,-0.01067109,-0.004018007,0.9989971,34.69192,6.178571,-22.32375,1004.801
2.006376266,0.2515898,0.1731595,-0.2083296,-0.01070873,0.0003549396,0.9951584,34.69192,6.178571,-22.32375,1004.801
2.008853436,0.06781035,-0.06894571,-0.08593922,-0.006325184,0.001848911,0.9994862,34.69192,6.178571,-22.32375,1004.801
2.011330128,0.1290225,0.05210135,-0.08591223,-0.005360192,0.0008707215,0.9956145,34.69192,6.178571,-22.32375,1004.801
2.013807774,0.006515046,0.1125977,-0.02472278,-0.001961891,0.001372921,0.9946331,34.69192,6.178571,-22.32375,1004.801
2.016283989,0.006512999,-0.008463092,-0.2082024,-0.003385938,-0.001054019,1.000903,34.69192,6.178571,-22.32375,1004.801
2.018761635,0.1289779,0.1730777,-0.208137,-0.006331766,0.0003775915,0.9951346,34.69192,6.178571,-22.32375,1004.801
2.021238327,0.0677039,0.233536,-0.1469091,-0.005829595,-9.744195E-05,0.9989908,34.69192,6.178571,-22.32375,1004.801
2.023715496,0.2513831,0.1729499,-0.146863,-0.00972023,-0.0001175769,0.9990119,34.69192,6.178571,-22.32375,1004.801
2.026192665,0.06760366,-0.008642509,-0.08565438,-0.01217753,0.001806991,0.9946912,34.69192,6.178571,-22.32375,1004.801
2.028669357,0.06758242,0.1123856,-0.2079524,-0.004377187,-0.001561211,0.9946312,33.95589,5.796692,-22.69451,1004.801
2.031146526,0.006327719,0.172863,-0.08556214,-0.007305534,-0.0006059785,0.9932041,33.95589,5.796692,-22.69451,1004.801
2.033623219,0.1900261,0.2333214,-0.1466977,-0.006833337,0.004275158,0.997088,33.95589,5.796692,-22.69451,1004.802
2.036100864,0.1899664,0.2332481,-0.1466516,-0.007258007,-0.002038629,1.004781,33.95589,5.796692,-22.69451,1004.802
2.038577080,0.006206353,0.1121494,-0.02428064,-0.009226278,-0.002065102,0.9980339,33.95589,5.796692,-22.69451,1004.802
2.041054726,0.1286713,0.1726269,-0.02427302,-0.006335576,0.001352612,0.9956223,33.95589,5.796692,-22.69451,1004.802
2.043531418,0.1286309,-0.1299909,-0.1465903,-0.005830171,-0.002053343,0.995602,33.95589,5.796692,-22.69451,1004.802
2.046008587,0.189824,0.05158809,-0.2077067,-0.007294078,-0.002064408,0.994162,33.95589,5.796692,-22.69451,1004.802
2.048485756,0.006063933,0.1725973,-0.2076415,-0.009229003,-0.001578177,0.9980364,33.95589,5.796692,-22.69451,1004.802
2.050962448,0.128529,0.1120304,-0.3910636,-0.0009662772,0.001394359,1.001385,33.95589,5.796692,-22.69451,1004.802
2.053439617,-0.1164453,0.1119952,-0.3297783,-0.002901226,0.0004139582,1.002839,33.95589,5.796692,-22.69451,1004.802
2.055916309,-0.1164087,0.11196,-0.1461873,-0.008726832,-0.002053211,1.001893,33.95589,5.796692,-22.69451,1004.802
2.058393955,0.06732827,0.05141211,-0.2684663,-0.003875547,-0.00105888,0.9999406,33.95589,5.796692,-22.69451,1004.802
2.060870647,0.1897741,0.1724214,-0.1460571,-0.005353124,-0.001568588,0.9936712,33.95589,5.796692,-22.69451,1004.802
2.063347816,0.1897144,0.1723672,-0.02368624,-0.005355273,0.000874237,0.9970625,33.95589,5.796692,-22.69451,1004.802
2.065824509,0.1896548,0.172313,-0.1460037,-0.006301189,-0.001556045,1.000917,33.95589,5.796692,-22.69451,1004.802
2.068301678,0.3120622,0.1722589,-0.02363293,-0.00536675,0.0008660344,0.9936838,33.95589,5.796692,-22.69451,1004.802
2.070778847,0.06703028,0.1116921,-0.08478796,-0.005376542,0.003792269,0.9956295,33.95589,5.796692,-22.69451,1004.802
2.073255539,0.06700923,0.0511443,-0.08476133,-0.00532308,-0.002524861,1.000906,33.95589,5.796692,-22.69451,1004.803
2.075733185,0.06698817,0.1116409,-0.0847347,-0.002891411,-0.001045643,1.003314,33.95589,5.796692,-22.69451,1004.803
2.078209400,0.1894341,0.1116059,-0.3293579,-0.006785879,-0.00155739,1.001402,33.64136,6.160069,-22.69984,1004.803
2.080687046,0.1281411,0.05105809,-0.08460461,-0.006300104,-0.002044142,1.000431,33.64136,6.160069,-22.69984,1004.803
2.083163738,-0.05559958,0.2325802,-0.08457803,-0.008262371,-0.002555195,0.9946474,33.64136,6.160069,-22.69984,1004.803
2.085640907,0.005651355,0.2325071,-0.2068764,-0.007304425,0.0003725577,0.9951399,33.64136,6.160069,-22.69984,1004.803
2.088117600,0.18935,0.1719213,-0.2679738,-0.001466763,0.004803829,1.002854,33.64136,6.160069,-22.69984,1004.803
2.090594769,0.1892905,-0.009670772,-0.2067272,-0.001912749,-0.001525191,1.004272,33.64136,6.160069,-22.69984,1004.803
2.093071938,0.2504645,0.1718704,-0.2066623,-0.009706048,-0.002062931,0.9999673,33.64136,6.160069,-22.69984,1004.803
2.095548630,0.1891523,0.1718164,-0.2677598,-0.0039061,0.002341389,0.9965794,33.64136,6.160069,-22.69984,1004.803
2.098026276,0.1278595,0.1717624,-0.08418829,-0.002922518,0.001865357,0.9989849,33.64136,6.160069,-22.69984,1004.803
2.100502491,0.005352348,0.1111957,-0.2676492,-0.008266136,0.001353091,0.999977,33.64136,6.160069,-22.69984,1004.803
2.102980137,0.06658414,-0.009864599,-0.1452402,-0.007790245,-0.002073956,0.9912686,33.64136,6.160069,-22.69984,1004.803
2.105456829,0.1277967,0.0506512,-0.08403213,-0.002928545,0.0008833059,0.9956012,33.64136,6.160069,-22.69984,1004.803
2.107933998,0.06652307,0.1716607,-0.08400573,0.0004981377,-0.001038572,0.9989513,33.64136,6.160069,-22.69984,1004.803
2.110410690,-0.05596476,0.05058136,-0.08397934,-0.002929122,-0.001072594,0.9922125,33.64136,6.160069,-22.69984,1004.803
2.112887859,0.06651975,0.1110782,-0.1451154,-0.005335089,-0.001555699,0.9989806,33.64136,6.160069,-22.69984,1004.804
2.115365028,0.1277323,-0.009982129,-0.2673948,-0.003868435,-0.0005649244,1.002839,33.64136,6.160069,-22.69984,1004.804
2.117841721,0.1276922,0.1110464,-0.2061483,-0.003880997,-8.503045E-05,0.9999456,33.64136,6.160069,-22.69984,1004.804
2.120319366,-0.1172818,0.05049882,-0.02259614,-0.009724594,0.0003681758,0.9985319,33.64136,6.160069,-22.69984,1004.804
2.122796059,0.06645545,-0.01002974,-0.144914,-0.005866197,0.0008541433,0.989825,33.64136,6.160069,-22.69984,1004.804
2.125273228,0.1889015,0.1109988,-0.3283558,-0.005856359,0.0008611741,0.9927211,33.64136,6.160069,-22.69984,1004.804
2.127749920,0.2500757,0.292502,-0.2059277,-0.004407695,0.004772323,0.996112,33.64136,6.160069,-22.69984,1004.804
2.130227089,0.06629667,0.05035935,-0.08353812,-0.005839986,-0.0005937405,0.9951269,33.65286,5.426678,-22.68688,1004.804
2.132703781,-0.1174246,-0.01016918,-0.1446743,-0.007310429,0.000857139,0.9941771,33.65286,5.426678,-22.68688,1004.804
2.135180950,-0.05615421,0.1713721,-0.1446289,-0.003406699,-0.0005799844,0.9955963,33.65286,5.426678,-22.68688,1004.804
2.137658596,0.1887973,0.1108056,-0.1445835,-0.00485525,0.002842029,1.00431,33.65286,5.426678,-22.68688,1004.804
2.140134811,0.1275045,0.1107708,-0.144538,-0.01117213,-0.001097805,0.9994976,33.65286,5.426678,-22.68688,1004.804
2.142612457,-0.05623593,-0.07080214,-0.08333016,-0.006318649,0.0003869655,0.9989959,33.65286,5.426678,-22.68688,1004.804
2.145089150,0.2499491,-0.01026719,-0.1444664,-0.00487929,0.00331372,0.9980378,33.65286,5.426678,-22.68688,1004.804
2.147566319,0.1274036,0.1107614,-0.3279084,-0.004380421,0.001369711,0.9985078,33.65286,5.426678,-22.68688,1004.804
2.150043011,0.06613012,-0.01029876,-0.144318,-0.00531054,-0.004471387,1.001379,33.65286,5.426678,-22.68688,1004.804
2.152520180,0.1273428,0.05021718,-0.2665976,-0.003899541,0.002346076,0.9985102,33.65286,5.426678,-22.68688,1004.804
2.154996872,0.1273028,0.2317395,-0.08302649,-0.005848716,0.0003777649,0.9941667,33.65286,5.426678,-22.68688,1004.804
2.157474041,0.06602935,0.1106413,0.0393245,-0.003374484,-0.002512449,1.001861,33.65286,5.426678,-22.68688,1004.804
2.159951687,0.06600861,0.1711192,-0.1441752,-0.004853678,-0.001556697,0.99753,33.65286,5.426678,-22.68688,1004.804
2.162427902,0.06598787,-0.07098532,-0.1441299,-0.007802694,0.0057391,1.00048,33.65286,5.426678,-22.68688,1004.804
2.164905548,0.004733667,-0.01045032,-0.1440846,-0.005316013,-0.004964171,0.9989629,33.65286,5.426678,-22.68688,1004.804
2.167382240,0.06596565,0.1710911,-0.08287692,-0.007772742,-0.001083702,0.998031,33.65286,5.426678,-22.68688,1004.804
2.169859409,0.06594492,0.3525754,-0.08285089,-0.007761287,-0.002542132,0.9989887,33.65286,5.426678,-22.68688,1004.804
2.172336101,0.06592421,0.2314392,-0.2051498,-0.007300083,-0.001579827,0.9931991,33.65286,5.426678,-22.68688,1004.804
2.174813270,0.127137,0.04982844,-0.2662478,-0.00874653,-0.003533904,0.9936797,33.65286,5.426678,-22.68688,1004.804
2.177290439,0.127097,0.04981279,-0.2050017,-0.007789669,-0.0001180554,0.9946573,33.65286,5.426678,-22.68688,1004.804
2.179767132,0.249524,0.04979714,-0.0214499,-0.005856314,0.003794439,0.9975629,33.27657,5.789391,-22.69197,1004.804
2.182244777,0.1269787,0.04978149,-0.1437681,-0.0004412429,-0.004930799,1.002315,33.27657,5.789391,-22.69197,1004.804
2.184721470,0.1269388,0.231304,-0.2048854,-0.004380998,-0.0005861898,0.995119,33.27657,5.789391,-22.69197,1004.804
2.187198639,0.004431996,0.2312313,-0.204821,-0.001939536,-0.002033208,0.9955808,33.27657,5.789391,-22.69197,1004.804
2.189675331,0.1268975,0.1101332,-0.2047567,-0.001450459,-0.001050983,0.9979966,33.27657,5.789391,-22.69197,1004.804
2.194629192,0.2492463,0.04955136,-0.1434464,-0.007788006,0.001349749,0.997561,33.27657,5.789391,-22.69197,1004.803
2.197106361,0.004234107,0.2310739,-0.08223883,-0.00584054,-0.001083008,0.9941591,33.27657,5.789391,-22.69197,1004.803
2.199584007,0.06546625,0.3520267,-0.1433755,-5.095964E-06,0.001391191,0.9980012,33.27657,5.789391,-22.69197,1004.803
2.202060222,0.1266792,0.1098653,-0.08216795,-0.00634426,0.005257383,0.9995038,33.27657,5.789391,-22.69197,1004.803
2.204537868,0.1878728,-0.01119462,-0.08214214,-0.005823036,-9.275461E-05,1.000922,33.27657,5.789391,-22.69197,1004.803
2.207014561,0.1878138,0.2308597,-0.1432788,-0.004374971,0.0003958615,0.9985027,33.27657,5.789391,-22.69197,1004.803
2.209491730,0.004054389,0.2307872,-0.1432338,-0.003883214,-0.002042104,0.9960741,33.27657,5.789391,-22.69197,1004.803
2.211968422,0.1265201,-0.01133613,-0.3266761,-0.004870561,0.002342214,0.998998,33.27657,5.789391,-22.69197,1004.803
2.214445591,0.06524684,0.1702055,-0.1430862,-0.008261241,-0.0001100264,0.999004,33.27657,5.789391,-22.69197,1004.803
2.216922283,0.06522634,0.2911775,-0.1430412,-0.00827378,0.0018365,0.9985315,33.27657,5.789391,-22.69197,1004.803
2.219399452,0.1264393,0.04903518,-0.1429963,-0.006820843,-0.0006046332,0.9927188,33.27657,5.789391,-22.69197,1004.803
2.221876144,0.06516613,-0.01149292,-0.08178888,-0.008271633,-0.000606325,0.9951402,33.27657,5.789391,-22.69197,1004.803
2.224353313,0.003912184,-0.01148931,-0.1429256,-0.003415982,-9.774696E-05,0.9936681,33.27657,5.789391,-22.69197,1004.803
2.226830959,-0.05732251,0.2305651,-0.2652057,-0.004383746,-0.001565898,0.9927006,33.27657,5.789391,-22.69197,1004.803
2.229307651,-0.0573045,0.2304927,-0.08163497,-0.008276505,0.002323424,0.998534,33.6464,5.786157,-23.07337,1004.803
2.231784820,0.1264139,0.1093949,-0.02044686,-0.004866773,-9.943871E-05,0.9960895,33.6464,5.786157,-23.07337,1004.803
2.234261513,0.003907251,-0.1326903,-0.1427654,-0.004872777,0.0003851422,0.9951267,33.6464,5.786157,-23.07337,1004.802
2.236738682,0.003906024,0.2304276,-0.08155805,-0.009238241,0.001837325,1.00095,33.6464,5.786157,-23.07337,1004.802
2.239215374,0.06513827,0.1698425,-0.2038573,-0.004882569,0.003311376,0.9970724,33.6464,5.786157,-23.07337,1004.802
2.241692543,0.1263513,0.1697891,-0.2037933,-0.002434595,-0.001064219,0.9946231,33.6464,5.786157,-23.07337,1004.802
2.244170189,0.003844637,0.1092231,-0.08140436,-0.005821973,-0.002047484,0.9980154,33.6464,5.786157,-23.07337,1004.802
2.246646881,0.0650769,0.2302142,-0.02021633,-0.005330724,-0.002041452,0.9994608,33.6464,5.786157,-23.07337,1004.802
2.249124050,0.1262899,0.1696291,-0.2036974,-0.00388975,-0.0005801579,0.9965643,33.6464,5.786157,-23.07337,1004.802
2.251600742,0.1262503,0.04855046,-0.2036334,-0.00193896,-7.730699E-05,0.9989696,33.6464,5.786157,-23.07337,1004.802
2.254077911,0.309911,-0.0724902,-0.1424069,-0.003902289,0.001366368,0.9960917,33.6464,5.786157,-23.07337,1004.802
2.256554603,0.1261132,0.1695834,-0.2035246,-0.008258493,0.0008696816,1.001422,33.6464,5.786157,-23.07337,1004.802
2.259031772,0.1260736,0.0485047,-0.2034607,-0.00582359,-0.0005820226,0.9999537,33.6464,5.786157,-23.07337,1004.802
2.261508465,0.1872675,0.1090022,-0.2645592,-0.008756855,0.0003696943,0.9970785,33.6464,5.786157,-23.07337,1004.802
2.263985634,0.1872086,0.2299933,-0.2033137,-0.005355804,0.001851601,0.9985156,33.6464,5.786157,-23.07337,1004.802
2.266463280,0.06468289,0.04838297,-0.2644123,-0.006790798,-0.001560905,0.999954,33.6464,5.786157,-23.07337,1004.802
2.268939972,0.125896,0.1088805,-0.2031667,-0.001944433,-0.0005700905,0.9965537,33.6464,5.786157,-23.07337,1004.802
2.271417141,0.2483234,0.04833356,-0.2031029,-0.004874925,0.002827967,0.998518,33.6464,5.786157,-23.07337,1004.802
2.273893833,0.00331153,0.04831837,-0.2030391,-0.007312046,0.002322599,0.9961153,33.6464,5.786157,-23.07337,1004.805
2.276371002,0.06454396,-0.07272221,-0.0806504,-0.006837747,0.001827646,0.9917661,33.6464,5.786157,-23.07337,1004.805
2.278847694,0.370691,0.1693514,-0.20295,-0.007315325,0.002320256,0.99515,33.6464,5.786157,-23.07337,1004.805
2.281324863,0.3093411,0.2298109,-0.0805613,-0.001935149,-0.001052328,0.998482,33.94439,6.530083,-22.70747,1004.805
2.283801555,0.1255435,-0.07282476,-0.08053599,-0.00533121,0.001869178,1.005756,33.94439,6.530083,-22.70747,1004.805
2.286278725,0.1867375,0.2297616,-0.2028356,-0.006309941,-0.002051172,0.9975354,33.94439,6.530083,-22.70747,1004.805
2.288756370,0.1254454,0.2296894,-0.1416094,-0.005824099,0.001861974,1.003828,33.94439,6.530083,-22.70747,1004.805
2.291233063,0.002939058,0.1085919,-0.2027274,-0.005854143,0.002818246,0.9965925,33.94439,6.530083,-22.70747,1004.805
2.293710232,0.1254051,0.04804507,-0.08033879,-0.006822459,0.0008608274,0.994657,33.94439,6.530083,-22.70747,1004.805
2.296186924,0.1865991,0.1690554,-0.08031355,-0.005836153,-0.0001021288,0.9970601,33.94439,6.530083,-22.70747,1004.805
2.298664093,0.247774,0.04797686,-0.2026132,-0.003896862,-0.001074113,0.9936658,33.94439,6.530083,-22.70747,1004.805
2.301140785,0.1252292,0.04796179,-0.263712,-0.003397992,-0.003018122,0.9941358,33.94439,6.530083,-22.70747,1004.805
2.303617954,0.1864233,0.2294848,-0.2024667,-0.001451567,-0.002029519,0.9960609,33.94439,6.530083,-22.70747,1004.805
2.306095600,0.002664368,0.1689,-0.2024031,-0.005850841,0.004287222,0.9999789,33.94439,6.530083,-22.70747,1004.805
2.308572292,0.00266353,0.168847,-0.2023395,-0.007296759,0.001355781,0.9990063,33.94439,6.530083,-22.70747,1004.805
2.311049461,0.06389616,0.04776852,-0.2634384,-0.009737665,0.003292067,0.9995123,33.94439,6.530083,-22.70747,1004.805
2.313526153,0.186343,0.04775351,-0.1410308,-0.007760755,-0.003519496,0.9975358,33.94439,6.530083,-22.70747,1004.804
2.316003322,0.1862845,0.04773851,-0.1409865,-0.006796249,-0.0005870564,0.999959,33.94439,6.530083,-22.70747,1004.804
2.318480015,0.1249925,0.1687489,-0.0797797,-0.004851994,0.00137774,1.002854,33.94439,6.530083,-22.70747,1004.804
2.320957184,0.3086537,0.350234,-0.1409171,-0.005320332,-0.001545153,1.003325,33.94439,6.530083,-22.70747,1004.804
2.323433876,0.002389322,0.1685859,-0.2020353,-0.006303362,-0.0005798524,1.001887,33.94439,6.530083,-22.70747,1004.804
2.325911045,0.06362204,0.1080202,-0.1408094,-0.008730688,-0.004011454,0.9975386,33.94439,6.530083,-22.70747,1004.804
2.328387737,0.002368584,0.04747357,-0.3242525,-0.005352039,-0.002056685,0.9931859,33.94439,6.530083,-22.70747,1004.804
2.330865383,0.1248348,0.1079714,-0.2018257,-0.007776529,0.001357951,1.00094,33.27657,5.789391,-22.69197,1004.804
2.333342552,0.1247956,0.1079374,-0.2017623,-0.006310474,-0.001073808,0.9989884,33.27657,5.789391,-22.69197,1004.804
2.335819244,0.002289416,0.04739083,-0.079374,-0.006315968,-0.003033223,0.9941517,33.27657,5.789391,-22.69197,1004.804
2.338296413,0.1247556,0.1684013,-0.07934907,-0.007767845,-0.002546819,0.9970581,33.27657,5.789391,-22.69197,1004.804
2.340773105,0.002249504,0.04732303,-0.1404866,-0.003389217,-0.001056363,0.999938,33.27657,5.789391,-22.69197,1004.804
2.343250275,0.1859492,0.1078209,-0.2627674,-0.009236625,0.0003718643,0.9990118,33.27657,5.789391,-22.69197,1004.804
2.345726967,0.1246573,0.2288124,-0.2626848,-0.002434572,0.0004024138,0.9970441,33.27657,5.789391,-22.69197,1004.804
2.348204136,0.002151218,0.04720241,-0.1402774,-0.0009663003,-7.227319E-05,0.9989643,33.27657,5.789391,-22.69197,1004.804
2.350681782,0.1858509,0.04718758,-0.07907086,-0.001960783,0.002351457,0.9965688,33.27657,5.789391,-22.69197,1004.804
2.353158474,0.1857926,0.04717276,-0.1402085,-0.0009864836,0.002357662,0.9970462,33.27657,5.789391,-22.69197,1004.804
2.355635643,0.3694346,0.1076706,-0.2624893,-0.005330679,0.0008918139,1.004303,33.27657,5.789391,-22.69197,1004.804
2.358112335,0.1243847,0.2286622,-0.2624069,-0.003379426,-0.003982597,0.9979921,33.27657,5.789391,-22.69197,1004.804
2.360589504,-0.05935482,0.1680777,-0.1399995,-0.004852615,-0.003511426,0.9946238,33.27657,5.789391,-22.69197,1004.804
2.363066196,0.06313077,0.04699947,-0.201118,-0.007326802,0.002312053,0.9917713,33.27657,5.789391,-22.69197,1004.804
2.365543365,0.3080448,0.1074974,-0.2622173,-0.00586562,0.002810044,0.9932138,33.27657,5.789391,-22.69197,1004.804
2.368020058,0.1242476,0.1074636,-0.07864752,-0.002928545,0.0008833059,0.9956012,33.27657,5.789391,-22.69197,1004.804
2.370497703,0.001741653,0.1679426,-0.2621102,-0.004341162,-0.004468696,1.000408,33.27657,5.789391,-22.69197,1004.804
2.372974872,-0.05949236,-0.01364829,-0.2620279,-0.006306686,-0.003515461,0.9960799,33.27657,5.789391,-22.69197,1004.804
2.375451565,0.06299327,0.1073814,-0.2007831,-0.006794077,-0.001563249,0.9989885,33.27657,5.789391,-22.69197,1004.804
2.377928734,0.001740006,0.1678604,-0.01723262,-0.003421964,0.001853466,0.9951262,33.27657,5.789391,-22.69197,1004.804
2.380405426,0.1242064,0.04678223,-0.07838967,-0.004379358,-0.0005850182,0.9956016,33.27657,5.789391,-22.69197,1004.804
2.382882595,0.06293391,0.1677929,-0.07836504,-0.006808833,-0.001573795,0.9946445,33.95014,6.163388,-22.70099,1004.804
2.385359287,0.001680668,0.2282529,-0.1395029,-0.005830171,-0.002053343,0.995602,33.95014,6.163388,-22.70099,1004.804
2.387836456,0.3078475,0.04664311,-0.261784,-0.005836684,0.0008752354,0.9985132,33.95014,6.163388,-22.70099,1004.804
2.390313148,0.1852838,0.1071412,-0.2617017,-0.002912726,-0.001060877,0.9970392,33.95014,6.163388,-22.70099,1004.804
2.392790794,-0.05970825,0.0465948,-0.1392946,-0.001953716,-8.785282E-05,0.9946255,33.95014,6.163388,-22.70099,1004.803
2.395267963,0.06277744,-0.01393254,-0.2004133,-0.007276575,-0.001074154,1.000924,33.95014,6.163388,-22.70099,1004.803
2.397744655,0.06275772,0.1676099,-0.2615128,-0.002426397,-0.00105836,0.9970365,33.95014,6.163388,-22.70099,1004.803
2.400221825,0.06273801,0.1675573,-0.2002682,-0.00731096,0.001834503,0.9956301,33.95014,6.163388,-22.70099,1004.803
2.402698517,0.0627183,0.1069919,-0.1390428,-0.002916005,-0.00106322,0.9960739,33.95014,6.163388,-22.70099,1004.803
2.405175686,0.0626986,0.167471,-0.261324,-0.008261795,-0.0005992944,0.9980362,33.95014,6.163388,-22.70099,1004.803
2.407652378,0.0626789,0.1674184,-0.01659211,-0.005857468,-0.0001173622,0.9907853,33.95014,6.163388,-22.70099,1004.803
2.410129547,0.001425736,0.2278785,-0.2000743,-0.004866219,0.0003898293,0.9970573,33.95014,6.163388,-22.70099,1004.803
2.412606239,0.001425288,0.1067815,-0.2611739,-0.006321374,0.0008738901,0.9989984,33.95014,6.163388,-22.70099,1004.803
2.415083885,0.1851252,-0.01427742,-0.07760444,-0.003404505,-8.954434E-05,0.9970468,33.95014,6.163388,-22.70099,1004.803
2.417561054,0.00136668,0.1672652,-0.2610675,-0.009738219,0.002802798,0.9985445,33.95014,6.163388,-22.70099,1004.803
2.420037746,-0.05986721,0.2277253,-0.2609854,-0.002916513,0.001380777,0.9999479,33.95014,6.163388,-22.70099,1004.803
2.422514915,0.123852,0.2276538,-0.1385785,-0.005343819,-0.000584193,0.9980203,33.95014,6.163388,-22.70099,1004.803
2.424991608,0.06257962,0.1065569,-0.1996974,-0.009245355,0.00134337,0.9980515,33.95014,6.163388,-22.70099,1004.803
2.427468777,0.00132649,0.1065234,-0.01614733,-0.00484331,-0.002527031,0.9989729,33.95014,6.163388,-22.70099,1004.803
2.429945469,0.06255955,0.1064899,-0.01614226,-0.006308856,-0.002539268,0.9970502,33.95014,6.163388,-22.70099,1004.803
2.432423115,0.06253989,0.1064565,-0.1384621,-0.005353633,0.0008754089,0.9975452,33.64207,6.167286,-22.31982,1004.804
2.434899330,0.1849872,0.04591032,0.04506877,-0.005356913,0.000873065,0.9965798,33.64207,6.167286,-22.31982,1004.804
2.437376976,0.1849291,0.1064086,-0.1384328,-0.006326247,0.00380364,1.002392,33.64207,6.167286,-22.31982,1004.804
2.439854145,0.184871,0.1668879,-0.1383893,-0.006333937,0.001353784,0.996105,33.64207,6.167286,-22.31982,1004.804
2.442330837,0.2460464,-0.01470267,-0.1995082,-0.002444941,0.001372747,0.9956011,33.64207,6.167286,-22.31982,1004.804
2.444808006,0.2459691,-0.01469805,-0.260608,-0.01070002,-0.002083199,0.9936978,33.64207,6.167286,-22.31982,1004.804
2.447284698,0.2458918,0.1668447,-0.1382013,-0.006327401,-0.0001081612,0.9956147,33.64207,6.167286,-22.31982,1004.804
2.449761867,0.1233476,0.1062796,-0.07699537,-0.009209351,-0.003030748,1.001408,33.64207,6.167286,-22.31982,1004.804
2.452238560,0.1233089,0.1667589,-0.1992961,-0.004370561,0.002843374,1.003825,33.64207,6.167286,-22.31982,1004.804
2.454716205,0.1232701,0.1667065,-0.07690857,-0.004383746,-0.001565898,0.9927006,33.64207,6.167286,-22.31982,1004.804
2.457193375,0.1844648,0.1666541,-0.0768844,-0.004395708,0.002336529,0.9956167,33.64207,6.167286,-22.31982,1004.804
2.462147236,0.184349,0.04556204,-0.1991418,-0.001945495,0.001384639,0.9994599,33.64207,6.167286,-22.31982,1004.804
2.464623928,0.06182412,0.1060604,-0.2602417,-0.00241492,-0.001050157,1.000415,33.64207,6.167286,-22.31982,1004.804
2.467101097,0.1230382,0.2270525,-0.2601599,-0.004837328,-0.004478244,0.9975149,33.64207,6.167286,-22.31982,1004.804
2.469577789,0.0005325694,0.1059558,-0.504728,-0.002933464,0.0008797909,0.9941533,33.64207,6.167286,-22.31982,1004.804
2.472054958,0.0005324017,0.1059225,-0.1375947,-0.00435749,-8.051679E-05,1.002844,33.64207,6.167286,-22.31982,1004.803
2.474531650,0.0005322341,0.1664019,-0.07638905,-0.003392497,-0.001058707,0.9989725,33.64207,6.167286,-22.31982,1004.803
2.477009296,0.122999,0.1058369,-0.19869,-0.003882106,-0.001063567,0.9980098,33.64207,6.167286,-22.31982,1004.803
2.479486465,0.2454273,0.1058037,-0.25979,-0.008240525,-0.003517326,0.9994691,33.64207,6.167286,-22.31982,1004.803
2.481963158,0.1841167,0.1057704,-0.1985459,-0.01069072,-0.001098803,0.9980469,33.95014,6.163388,-22.70099,1004.803
2.484440327,0.1228254,0.04522451,-0.07615864,-0.003397924,0.001381775,1.001398,33.95014,6.163388,-22.70099,1004.803
2.486917019,0.06155336,0.1662357,-0.1984596,-0.007299529,-0.001090559,0.9941671,33.95014,6.163388,-22.70099,1004.803
2.489394188,0.06153402,0.2266962,-0.1983973,-0.009228427,0.0003777232,1.001425,33.95014,6.163388,-22.70099,1004.803
2.491870880,0.2452151,0.1055996,-0.1371725,-0.004363516,-0.001062568,0.9994605,33.95014,6.163388,-22.70099,1004.803
2.494348526,0.06143766,0.2871045,-0.1982919,-0.004387002,-0.0001016087,0.9941562,33.95014,6.163388,-22.70099,1004.803
2.496824741,0.06141835,0.2870143,-0.1982296,-0.005827955,-9.626988E-05,0.9994735,33.95014,6.163388,-22.70099,1004.803
2.499302387,0.1226325,0.2869241,-0.2593298,-0.002917068,0.0008915083,0.9989799,33.95014,6.163388,-22.70099,1004.803
2.501779556,0.06136053,0.1052959,-0.1369234,-0.0102,-0.0001154065,1.000945,33.95014,6.163388,-22.70099,1004.803
2.504256248,0.1838082,0.1052628,-0.07571789,-0.004365687,-8.637575E-05,1.000431,33.95014,6.163388,-22.70099,1004.803
2.506733417,0.122517,0.1657424,0.04663081,-0.008745355,0.001844529,1.002878,33.95014,6.163388,-22.70099,1004.803
2.509210110,0.06124502,-0.07636044,-0.1368712,-0.004844949,-0.002528203,0.9984903,33.95014,6.163388,-22.70099,1004.803
2.511687279,0.1836927,-0.01582375,-0.07566575,-0.003407253,-0.001069252,0.9946284,33.95014,6.163388,-22.70099,1004.803
2.514163971,0.06116807,0.226232,-0.01447952,-0.006341004,0.003793094,0.9980482,33.95014,6.163388,-22.70099,1004.802
2.516641617,0.1836158,0.1656483,-0.1367999,-0.006305555,-0.001070292,1.000436,33.95014,6.163388,-22.70099,1004.802
2.519118786,0.1223246,-0.0159419,-0.2590818,-0.005810519,-0.003505913,0.9989731,33.95014,6.163388,-22.70099,1004.802
2.521595478,-0.0001807269,0.1656012,-0.3201629,-0.005857422,0.002815903,0.9956272,33.95014,6.163388,-22.70099,1004.802
2.524072647,0.1835197,0.2260619,-0.1977374,-0.004855872,-0.002047137,0.9960794,33.95014,6.163388,-22.70099,1004.802
2.526549339,0.2446956,0.04445277,-0.07535036,-0.0077902,0.000859309,0.9961104,33.95014,6.163388,-22.70099,1004.802
2.529026508,0.1221517,0.1049515,-0.07532668,-0.005346566,-0.001563901,0.9956019,33.95014,6.163388,-22.70099,1004.802
2.531503200,0.0608799,0.2259439,-0.07530302,-0.007308767,0.002324943,0.9970806,33.95014,6.163388,-22.70099,1004.802
2.533980369,0.06086077,0.1653603,-0.2587667,-0.00728752,-0.002059721,0.9960927,33.64136,6.160069,-22.69984,1004.802
2.536457062,-0.0003918186,-0.0162298,-0.07519807,-0.001449905,-0.0005617146,0.9989644,33.64136,6.160069,-22.69984,1004.802
2.538934708,-0.0003916956,0.1048007,-0.1363369,-0.004863471,0.001369537,0.9994757,33.64136,6.160069,-22.69984,1004.802
2.541411877,-0.06162504,0.1047678,-0.01396916,-0.005823545,0.002351242,1.004795,33.64136,6.160069,-22.69984,1004.802
2.543888569,0.06086126,0.1652476,-0.07512723,-0.004850399,-0.001554354,0.9984953,33.64136,6.160069,-22.69984,1004.802
2.546365738,0.1220756,-0.07685515,-0.07510363,-0.005806154,-0.003991666,0.9994534,33.64136,6.160069,-22.69984,1004.802
2.548842430,0.1832707,-0.01631831,-0.07508003,-0.001924757,-0.0005560287,1.002346,33.64136,6.160069,-22.69984,1004.802
2.551319599,0.1832131,0.2257376,-0.1362189,-0.001446625,-0.0005593707,0.9999298,33.64136,6.160069,-22.69984,1004.802
2.553796291,0.1219221,0.1046413,-0.07501365,0.0005177904,-0.002491142,1.002323,33.64136,6.160069,-22.69984,1004.801
2.556273937,0.06065035,0.1046084,-0.197315,-0.003899496,0.005279341,1.003352,33.64136,6.160069,-22.69984,1004.801
2.558750152,0.1218648,0.3466264,-0.1360906,-0.005361808,0.002336182,0.9975528,33.64136,6.160069,-22.69984,1004.801
2.561227798,0.06059301,0.1044667,-0.1360478,-0.003403397,0.0008889914,0.9989825,33.64136,6.160069,-22.69984,1004.801
2.563704967,-0.0006594956,0.1649466,-0.1360051,-0.003385961,-0.002520652,0.9984823,33.64136,6.160069,-22.69984,1004.801
2.566181660,0.1218076,0.2254074,-0.01363742,-0.003376678,-0.003002889,1.00041,33.64136,6.160069,-22.69984,1004.801
2.568658829,0.06053592,0.2253366,-0.3194454,-0.006802253,-0.0001024758,0.9989961,33.64136,6.160069,-22.69984,1004.801
2.571135521,0.2442173,0.2252658,-0.3193451,-0.006301189,-0.001556045,1.000917,33.64136,6.160069,-22.69984,1004.801
2.573612690,0.1829071,0.1041697,-0.1357574,-0.008748701,-0.002557712,0.99465,33.64136,6.160069,-22.69984,1004.801
2.576089382,0.1828496,0.04362423,-0.1357147,-0.004888042,0.002818593,0.9946565,33.64136,6.160069,-22.69984,1004.801
2.578567028,-0.2458421,0.1041232,-0.07450962,-0.007780386,-0.000600293,0.9965855,33.64136,6.160069,-22.69984,1004.801
2.581043720,-0.0008309688,0.1646032,-0.07448621,-0.005821397,-9.1583E-05,1.001404,33.64136,6.160069,-22.69984,1004.801
2.583520889,0.06040276,0.2250642,-0.1967877,-0.002423626,0.001387981,1.001876,33.95518,5.789476,-23.07453,1004.801
2.585998058,0.1216173,0.2249935,-0.07440099,-0.002405636,-0.001532395,1.002344,33.95518,5.789476,-23.07453,1004.801
